// General information: 
//  MT Manager version: 2022.0.0 
//  XDA version: 2022.0.0 build 7085 rev 119802 built on 2022-11-08
// Device information: 
//  DeviceId: 037004D1
//  ProductCode: MTi-300-2A5G4
//  Firmware Version: 1.4.1
//  Hardware Version: 2.1.0
// Device settings: 
//  Filter Profile: general(39.16)
//  Option Flags: Orientation Smoother Disabled, Position/Velocity Smoother Disabled, Continuous Zero Rotation Update Disabled, AHS Disabled, ICC Disabled
// Coordinate system: ENU
PacketCounter	SampleTimeFine	Acc_X	Acc_Y	Acc_Z	AccHR_X	AccHR_Y	AccHR_Z	Gyr_X	Gyr_Y	Gyr_Z	GyrHR_X	GyrHR_Y	GyrHR_Z	Roll	Pitch	Yaw
00001	14658912	9.812007	0.222821	0.169558				-0.003460	-0.000811	-0.001305				42.095125	-88.281313	-173.467753
00002	14658962	9.829557	0.262255	0.179300				-0.001802	-0.001526	-0.001218				42.115058	-88.281830	-173.485831
00003	14659012	9.805422	0.256556	0.204077				-0.001207	0.000332	0.000688				42.107642	-88.281837	-173.478729
00004	14659062	9.830034	0.233509	0.197774				-0.003681	0.001413	-0.000686				42.104742	-88.282221	-173.474714
00005	14659112	9.824471	0.247608	0.184084				-0.003983	-0.001146	-0.000248				42.112624	-88.282344	-173.483705
00006	14659162	9.827385	0.239717	0.190712				-0.003861	-0.003111	0.001375				42.124058	-88.283565	-173.493813
00007	14659212	9.824495	0.221180	0.194229				-0.004064	0.001051	-0.002676				42.135232	-88.282678	-173.506075
00008	14659262	9.819549	0.250551	0.204359				-0.004629	0.004047	-0.000925				42.116667	-88.282298	-173.486542
00009	14659312	9.829687	0.234774	0.173839				-0.006665	0.001591	0.001536				42.093582	-88.282314	-173.465388
00010	14659362	9.822725	0.235528	0.182457				-0.001512	0.001743	-0.000047				42.084612	-88.282553	-173.454557
00011	14659412	9.802623	0.237005	0.195717				0.000524	-0.000031	-0.000799				42.090487	-88.282690	-173.460445
00012	14659462	9.828043	0.237826	0.204030				-0.002903	0.002145	0.000504				42.074332	-88.282777	-173.442749
00013	14659512	9.829188	0.226409	0.195570				-0.003522	0.000319	0.000047				42.070952	-88.282557	-173.440288
00014	14659562	9.811240	0.258335	0.183517				-0.005517	0.004006	0.001165				42.037554	-88.282643	-173.406249
00015	14659612	9.798467	0.251861	0.183289				-0.002971	0.000230	0.000016				42.035026	-88.282723	-173.404641
00016	14659662	9.816529	0.251238	0.189632				-0.000194	0.000604	-0.000250				42.035408	-88.282647	-173.402462
00017	14659712	9.797653	0.256221	0.190469				-0.003400	-0.001456	-0.001021				42.050921	-88.282729	-173.418943
00018	14659762	9.830495	0.234428	0.198387				-0.004707	-0.002545	0.001543				42.056435	-88.285089	-173.424029
00019	14659812	9.797262	0.255779	0.177664				-0.003006	0.005401	-0.002555				42.039244	-88.283297	-173.407598
00020	14659862	9.814143	0.237915	0.179396				-0.001774	-0.000367	-0.003108				42.065294	-88.283215	-173.431817
00021	14659912	9.805096	0.264813	0.201681				-0.006252	-0.001908	-0.005315				42.113138	-88.282797	-173.481583
00022	14659962	9.813461	0.230769	0.187738				-0.003352	-0.001601	-0.006314				42.169927	-88.282043	-173.536845
00023	14660012	9.819013	0.243469	0.189174				-0.003161	0.000873	-0.002327				42.180022	-88.281261	-173.547768
00024	14660062	9.804008	0.229225	0.179777				-0.004905	-0.002912	-0.001855				42.212380	-88.282240	-173.579257
00025	14660112	9.812750	0.235268	0.177950				-0.005340	0.002094	-0.001316				42.206561	-88.281658	-173.575032
00026	14660162	9.816588	0.242925	0.197170				-0.006389	0.002488	-0.004680				42.224458	-88.280495	-173.592288
00027	14660212	9.807814	0.250627	0.175798				-0.003540	-0.000197	-0.000273				42.226578	-88.280438	-173.595402
00028	14660262	9.808384	0.238205	0.184922				-0.005787	-0.000081	-0.000753				42.232636	-88.281439	-173.601123
00029	14660312	9.815647	0.248790	0.183671				-0.006571	0.000162	-0.003250				42.252704	-88.280674	-173.623023
00030	14660362	9.802286	0.252841	0.178653				0.000246	-0.002299	0.000215				42.268187	-88.282120	-173.636340
00031	14660412	9.795495	0.238139	0.190549				-0.002503	0.000432	-0.001651				42.276143	-88.281930	-173.645145
00032	14660462	9.822159	0.239068	0.190173				-0.002740	0.002718	-0.002767				42.280540	-88.280606	-173.647580
00033	14660512	9.809962	0.262381	0.189565				-0.003742	0.003152	-0.002922				42.279884	-88.279407	-173.648017
00034	14660562	9.819791	0.236588	0.192300				-0.001122	-0.000871	-0.002210				42.302262	-88.280814	-173.669054
00035	14660612	9.809198	0.228416	0.188486				-0.001127	-0.000419	0.000234				42.302828	-88.281056	-173.670012
00036	14660662	9.816066	0.236738	0.178938				-0.003812	0.002381	-0.001477				42.299384	-88.280221	-173.665009
00037	14660712	9.823559	0.228537	0.177361				-0.005953	-0.001024	-0.001719				42.316224	-88.280315	-173.683682
00038	14660762	9.819279	0.240581	0.188675				-0.004272	-0.002283	0.000484				42.328962	-88.281303	-173.695255
00039	14660812	9.802998	0.254395	0.176626				-0.003764	0.001863	-0.000681				42.320814	-88.280936	-173.688268
00040	14660862	9.815824	0.238084	0.177254				0.000638	0.001562	0.001580				42.301935	-88.281092	-173.666708
00041	14660912	9.814266	0.249430	0.212704				-0.003289	0.001162	0.000436				42.290610	-88.280904	-173.656298
00042	14660962	9.806484	0.251501	0.197100				-0.007620	0.000083	-0.001544				42.300741	-88.281414	-173.666419
00043	14661012	9.822948	0.243429	0.206548				-0.004645	-0.003835	0.001152				42.315793	-88.282575	-173.682879
00044	14661062	9.826457	0.238363	0.189356				-0.005899	0.000367	-0.000751				42.319377	-88.282609	-173.685697
00045	14661112	9.814075	0.243056	0.179592				-0.005025	-0.000776	-0.000212				42.324168	-88.282862	-173.692005
00046	14661162	9.811645	0.252916	0.206437				-0.001914	-0.000145	-0.003326				42.350580	-88.282967	-173.716744
00047	14661212	9.821556	0.247513	0.193063				-0.003088	0.001420	-0.004373				42.371584	-88.281721	-173.738580
00048	14661262	9.824665	0.241051	0.165212				-0.005922	0.001112	-0.000005				42.364746	-88.282107	-173.731138
00049	14661312	9.842817	0.248579	0.179407				-0.001775	-0.001234	0.001829				42.359164	-88.282902	-173.726161
00050	14661362	9.830711	0.237601	0.196569				-0.005004	0.001483	-0.001708				42.362441	-88.282650	-173.728473
00051	14661412	9.824411	0.251487	0.186302				-0.004333	0.000260	-0.004764				42.393271	-88.281431	-173.760421
00052	14661462	9.804545	0.230277	0.206541				-0.005447	0.002315	-0.002758				42.398321	-88.281558	-173.765055
00053	14661512	9.801750	0.238637	0.179224				-0.005730	0.000183	-0.000108				42.396279	-88.281402	-173.764599
00054	14661562	9.811746	0.243133	0.209711				-0.001531	-0.004078	-0.000846				42.430325	-88.282771	-173.796836
00055	14661612	9.809937	0.244713	0.191151				-0.003581	0.002226	0.000028				42.414782	-88.282213	-173.782260
00056	14661662	9.832522	0.233750	0.181014				-0.003989	0.002093	0.001724				42.390169	-88.282655	-173.756479
00057	14661712	9.813332	0.238066	0.194740				-0.000879	0.001854	-0.000370				42.380433	-88.282273	-173.747035
00058	14661762	9.825356	0.240514	0.170211				-0.004088	0.000791	-0.000622				42.380783	-88.282663	-173.746345
00059	14661812	9.822796	0.230161	0.180536				-0.001489	-0.000234	-0.001054				42.389270	-88.282468	-173.755234
00060	14661862	9.816131	0.246793	0.186131				-0.003114	0.002554	-0.000776				42.379709	-88.282501	-173.744359
00061	14661912	9.811691	0.238387	0.190201				-0.006426	0.001138	-0.000196				42.371996	-88.281880	-173.738295
00062	14661962	9.818224	0.249386	0.188214				-0.006711	0.000976	0.000254				42.364278	-88.282748	-173.730467
00063	14662012	9.808272	0.244007	0.191835				-0.001171	-0.001262	-0.001343				42.381729	-88.282729	-173.748246
00064	14662062	9.808035	0.245980	0.188050				-0.002088	-0.000498	-0.000315				42.388870	-88.283016	-173.753506
00065	14662112	9.816723	0.236080	0.189283				-0.007801	0.003994	-0.000981				42.367771	-88.282142	-173.734722
00066	14662162	9.802794	0.248515	0.183021				-0.003689	0.000638	0.000723				42.359844	-88.282703	-173.725548
00067	14662212	9.817995	0.234882	0.178110				-0.001449	-0.000688	-0.002213				42.379386	-88.282390	-173.745498
00068	14662262	9.813295	0.246346	0.183922				-0.005206	-0.001362	-0.002110				42.403390	-88.283454	-173.769059
00069	14662312	9.816373	0.247979	0.182703				-0.006676	-0.001258	-0.000915				42.416156	-88.283495	-173.783721
00070	14662362	9.835556	0.234624	0.189099				-0.005467	0.001059	0.001401				42.400177	-88.284279	-173.767070
00071	14662412	9.813991	0.245831	0.188187				-0.004257	-0.001962	-0.001890				42.425099	-88.284036	-173.793051
00072	14662462	9.802798	0.244393	0.189876				-0.005154	-0.002684	0.001193				42.434683	-88.285432	-173.801828
00073	14662512	9.823654	0.228171	0.200213				-0.001924	0.000349	-0.000022				42.432036	-88.285441	-173.799791
00074	14662562	9.837049	0.244821	0.196826				-0.003806	0.005025	-0.004288				42.430985	-88.284282	-173.797606
00075	14662612	9.812227	0.230667	0.195395				-0.004392	-0.000603	0.000625				42.429434	-88.284393	-173.797233
00076	14662662	9.824782	0.231237	0.204315				-0.002940	0.002103	-0.001393				42.426807	-88.284366	-173.793218
00077	14662712	9.818569	0.240882	0.188461				0.000970	0.001172	-0.000986				42.426614	-88.283859	-173.792712
00078	14662762	9.810671	0.243318	0.190923				0.001176	0.002659	-0.001524				42.422617	-88.283930	-173.786309
00079	14662812	9.815116	0.234252	0.183312				-0.004359	0.004569	0.000299				42.389673	-88.283155	-173.754680
00080	14662862	9.802444	0.249924	0.198382				-0.003013	0.000357	-0.000560				42.392955	-88.283225	-173.756344
00081	14662912	9.828842	0.237253	0.190682				-0.002503	0.005435	-0.002882				42.377547	-88.281456	-173.741606
00082	14662962	9.814518	0.239372	0.192603				-0.004163	0.002144	-0.003533				42.389808	-88.280753	-173.752676
00083	14663012	9.807409	0.239737	0.185438				-0.003961	0.001352	0.003263				42.356991	-88.280840	-173.720835
00084	14663062	9.816081	0.252298	0.183471				-0.004516	0.003532	-0.000124				42.335726	-88.281184	-173.698866
00085	14663112	9.837109	0.210828	0.178579				-0.004514	0.002436	-0.000069				42.319378	-88.280473	-173.683701
00086	14663162	9.807471	0.248273	0.196521				-0.004009	0.003468	-0.002660				42.317061	-88.279762	-173.680196
00087	14663212	9.813354	0.264471	0.176030				-0.003340	0.001378	-0.002478				42.324862	-88.278689	-173.688787
00088	14663262	9.799663	0.254693	0.175710				-0.005624	0.004634	-0.005984				42.337265	-88.277932	-173.700984
00089	14663312	9.804799	0.251921	0.198559				-0.003076	-0.001651	-0.000573				42.351016	-88.277952	-173.715495
00090	14663362	9.837726	0.228210	0.198199				-0.004268	0.000329	-0.004061				42.378755	-88.277647	-173.742137
00091	14663412	9.837406	0.222696	0.184083				-0.003897	0.000826	-0.001076				42.379906	-88.277225	-173.744384
00092	14663462	9.831047	0.234802	0.184856				-0.003623	0.001282	-0.002834				42.392741	-88.277126	-173.756090
00093	14663512	9.836006	0.234836	0.192780				-0.004724	0.002784	-0.000224				42.374950	-88.276666	-173.739740
00094	14663562	9.806131	0.240450	0.198356				-0.004406	0.001148	0.002013				42.354515	-88.277326	-173.718217
00095	14663612	9.820715	0.218205	0.195659				-0.005943	-0.000209	-0.000400				42.357113	-88.277237	-173.722487
00096	14663662	9.821345	0.243313	0.196761				-0.002092	-0.002336	0.001087				42.365934	-88.278590	-173.729663
00097	14663712	9.825443	0.236686	0.202828				-0.001837	0.001672	0.000276				42.352648	-88.278327	-173.716927
00098	14663762	9.806854	0.231548	0.176573				-0.006236	0.003444	0.002994				42.310312	-88.278514	-173.673908
00099	14663812	9.798876	0.234162	0.190943				-0.003915	-0.000497	-0.000308				42.314415	-88.278594	-173.679158
00100	14663862	9.811277	0.231190	0.195039				-0.001546	0.003676	-0.001864				42.305704	-88.278172	-173.668647
00101	14663912	9.833419	0.219319	0.180258				-0.003076	0.001295	-0.000204				42.297922	-88.277871	-173.661745
00102	14663962	9.820711	0.239887	0.190327				-0.003763	-0.000140	0.000880				42.293737	-88.278819	-173.656448
00103	14664012	9.815780	0.248191	0.200119				-0.003993	-0.003018	0.001440				42.301746	-88.279807	-173.665647
00104	14664062	9.819838	0.238383	0.180714				-0.003926	-0.002313	-0.002050				42.332536	-88.280343	-173.695189
00105	14664112	9.826055	0.223858	0.205619				-0.001340	-0.002071	-0.002090				42.360172	-88.280408	-173.723239
00106	14664162	9.821417	0.225064	0.184157				-0.005898	0.001471	-0.000037				42.351363	-88.280517	-173.713736
00107	14664212	9.813896	0.242963	0.170521				-0.005734	0.001182	-0.002058				42.356675	-88.279787	-173.720648
00108	14664262	9.814611	0.247726	0.199014				-0.003492	0.001582	0.000856				42.341499	-88.280586	-173.704398
00109	14664312	9.817478	0.243641	0.205731				-0.007173	-0.000782	-0.001042				42.351691	-88.280598	-173.716681
00110	14664362	9.832680	0.231425	0.197987				-0.002842	0.001004	-0.001365				42.357014	-88.280375	-173.720339
00111	14664412	9.840367	0.210947	0.190060				-0.001384	0.000715	0.001035				42.344748	-88.280298	-173.708400
00112	14664462	9.814852	0.239899	0.214493				-0.002716	0.004345	0.000612				42.313561	-88.280579	-173.675950
00113	14664512	9.824731	0.245735	0.184076				-0.004806	-0.000643	0.000269				42.314313	-88.280742	-173.678071
00114	14664562	9.807098	0.241832	0.193325				-0.003070	-0.000836	-0.000538				42.325142	-88.281286	-173.687431
00115	14664612	9.835125	0.231707	0.187873				-0.002603	0.001101	-0.005151				42.353550	-88.280156	-173.716655
00116	14664662	9.819365	0.232620	0.192866				-0.000913	0.004280	0.002339				42.311052	-88.280703	-173.672361
00117	14664712	9.814077	0.233311	0.198829				-0.000567	0.001016	-0.001111				42.312307	-88.280194	-173.673731
00118	14664762	9.801678	0.243830	0.179918				-0.004184	-0.000017	-0.000112				42.314597	-88.280574	-173.674819
00119	14664812	9.815461	0.257054	0.197156				-0.006548	0.001619	-0.001062				42.309936	-88.279941	-173.671990
00120	14664862	9.816454	0.245598	0.213951				-0.006475	0.003761	0.000716				42.280763	-88.280004	-173.642445
00121	14664912	9.855611	0.228941	0.191665				-0.004088	0.002921	-0.000264				42.262838	-88.279353	-173.625683
00122	14664962	9.826719	0.233072	0.196195				-0.002126	0.003567	-0.003599				42.266850	-88.278216	-173.627874
00123	14665012	9.809286	0.227351	0.216033				-0.001253	-0.000910	-0.003848				42.299361	-88.277602	-173.660723
00124	14665062	9.832426	0.251853	0.197690				-0.001277	-0.001069	-0.002113				42.322678	-88.278697	-173.682564
00125	14665112	9.831603	0.243331	0.194218				-0.001190	0.004459	-0.002506				42.311241	-88.277485	-173.671590
00126	14665162	9.806938	0.248049	0.207706				-0.004467	0.000552	-0.003862				42.336148	-88.276939	-173.695347
00127	14665212	9.806488	0.261741	0.175087				-0.004840	0.000652	0.001439				42.320431	-88.277014	-173.680979
00128	14665262	9.813107	0.249313	0.209003				-0.003548	-0.003275	-0.002796				42.362206	-88.277956	-173.721609
00129	14665312	9.827282	0.262607	0.200520				-0.003734	-0.002405	-0.001825				42.389447	-88.278005	-173.749871
00130	14665362	9.824940	0.249105	0.181479				-0.001711	-0.000428	-0.002401				42.410821	-88.277892	-173.769283
00131	14665412	9.824513	0.242265	0.186758				-0.002829	0.000855	0.002067				42.389892	-88.277996	-173.749091
00132	14665462	9.822643	0.236423	0.193470				-0.002392	0.001952	-0.000653				42.383515	-88.278580	-173.741376
00133	14665512	9.814998	0.245460	0.179935				-0.002187	0.003537	-0.002600				42.378297	-88.277548	-173.736906
00134	14665562	9.818892	0.247708	0.199321				-0.002357	0.002788	-0.003405				42.386102	-88.276650	-173.742996
00135	14665612	9.805031	0.246952	0.170847				-0.002378	0.003434	-0.002087				42.378036	-88.275603	-173.735652
00136	14665662	9.829245	0.234131	0.171342				-0.002695	-0.000676	-0.000601				42.388214	-88.276184	-173.744286
00137	14665712	9.815225	0.245479	0.181223				-0.006194	-0.002707	-0.002014				42.418183	-88.276165	-173.775930
00138	14665762	9.828251	0.246656	0.190129				-0.006322	0.001558	-0.001831				42.421465	-88.276146	-173.778780
00139	14665812	9.806670	0.235220	0.198934				-0.003144	0.004391	-0.003715				42.418507	-88.274371	-173.776645
00140	14665862	9.804477	0.239846	0.198220				0.000339	0.002741	-0.003091				42.424966	-88.273940	-173.780808
00141	14665912	9.798674	0.248568	0.194372				-0.003313	0.002876	0.000193				42.404427	-88.273261	-173.761151
00142	14665962	9.816086	0.247448	0.192465				-0.005899	0.005706	-0.001394				42.378049	-88.272357	-173.734170
00143	14666012	9.806193	0.228416	0.173981				-0.004135	0.002277	-0.002316				42.378471	-88.271499	-173.735821
00144	14666062	9.808038	0.249254	0.180867				-0.004908	0.002386	-0.004397				42.394706	-88.270935	-173.751307
00145	14666112	9.809767	0.235257	0.200028				-0.004901	0.001591	0.001695				42.371070	-88.271239	-173.729249
00146	14666162	9.810643	0.242096	0.196864				-0.005639	-0.001695	-0.001498				42.393119	-88.271652	-173.750503
00147	14666212	9.815666	0.245063	0.187355				0.000394	0.002261	0.001072				42.371380	-88.271249	-173.728567
00148	14666262	9.809958	0.234764	0.207037				-0.005383	0.003552	-0.001051				42.356416	-88.270980	-173.712911
00149	14666312	9.825278	0.254635	0.193069				-0.004849	0.001778	-0.000009				42.343683	-88.270762	-173.701655
00150	14666362	9.803239	0.245947	0.193272				-0.003389	-0.000566	-0.006372				42.393257	-88.270402	-173.750011
00151	14666412	9.823237	0.249262	0.187221				-0.007805	-0.000212	-0.001644				42.403801	-88.270211	-173.762839
00152	14666462	9.806393	0.266847	0.180887				-0.004650	0.000690	0.001016				42.393235	-88.271006	-173.751376
00153	14666512	9.809331	0.245325	0.172193				-0.001863	0.000341	-0.002266				42.406261	-88.270704	-173.765062
00154	14666562	9.810471	0.243679	0.183005				-0.007827	0.001666	-0.000093				42.396607	-88.270252	-173.754978
00155	14666612	9.820868	0.248591	0.186309				-0.001588	-0.000300	-0.003074				42.419599	-88.269880	-173.778518
00156	14666662	9.826427	0.242649	0.185580				-0.002609	0.002890	0.000571				42.398687	-88.270019	-173.756072
00157	14666712	9.796529	0.234743	0.183861				-0.003231	0.005364	-0.000148				42.364312	-88.268758	-173.722558
00158	14666762	9.838265	0.226349	0.190033				-0.003269	-0.000585	0.001228				42.360648	-88.270010	-173.717683
00159	14666812	9.807822	0.233240	0.209347				-0.003643	-0.000007	-0.000913				42.365975	-88.270032	-173.724167
00160	14666862	9.813061	0.219810	0.197829				-0.008109	-0.001770	-0.001717				42.389181	-88.270565	-173.747364
00161	14666912	9.837437	0.214449	0.194887				-0.002792	0.003497	-0.000837				42.371652	-88.269700	-173.730653
00162	14666962	9.818109	0.241179	0.186267				-0.002071	-0.000244	-0.002590				42.393396	-88.269608	-173.750569
00163	14667012	9.826632	0.243957	0.188127				-0.005688	0.000123	0.002106				42.376177	-88.270048	-173.735007
00164	14667062	9.815710	0.245817	0.179404				-0.005241	0.001536	-0.004463				42.398365	-88.269530	-173.756465
00165	14667112	9.807496	0.247698	0.194497				-0.004499	-0.001217	0.000135				42.404104	-88.269632	-173.763395
00166	14667162	9.805921	0.262818	0.187802				-0.004475	0.000813	-0.003730				42.425605	-88.269474	-173.783992
00167	14667212	9.813158	0.229974	0.200451				-0.003578	-0.000207	-0.002713				42.444893	-88.269038	-173.804337
00168	14667262	9.814213	0.247975	0.185878				-0.004698	-0.000124	-0.001524				42.457169	-88.269241	-173.815613
00169	14667312	9.814651	0.244707	0.199476				-0.005121	-0.001137	-0.002106				42.477951	-88.268889	-173.837758
00170	14667362	9.834480	0.222484	0.195107				-0.003444	0.001904	-0.000842				42.472424	-88.269315	-173.831147
00171	14667412	9.825769	0.239460	0.182897				-0.002038	0.000630	-0.002750				42.487083	-88.268749	-173.846450
00172	14667462	9.815145	0.244093	0.197311				-0.001217	-0.001008	-0.003689				42.521366	-88.268645	-173.878676
00173	14667512	9.820450	0.238446	0.197347				-0.005595	-0.000108	-0.001551				42.531158	-88.268594	-173.890209
00174	14667562	9.828549	0.235773	0.202861				-0.006603	0.003528	-0.000054				42.509149	-88.268314	-173.867751
00175	14667612	9.810133	0.244386	0.198542				-0.003301	-0.000843	-0.001629				42.524802	-88.268486	-173.884537
00176	14667662	9.827745	0.230323	0.189715				-0.004958	0.003002	-0.002761				42.526217	-88.267226	-173.884691
00177	14667712	9.823417	0.246685	0.202044				-0.006764	-0.000778	-0.002227				42.545115	-88.266499	-173.905265
00178	14667762	9.846440	0.225794	0.179238				-0.007616	-0.000346	-0.004856				42.580407	-88.267280	-173.941092
00179	14667812	9.807123	0.248292	0.176792				-0.000554	0.001433	-0.003164				42.593121	-88.266351	-173.953959
00180	14667862	9.811832	0.237056	0.169639				-0.005027	0.003229	-0.002182				42.589037	-88.265305	-173.948694
00181	14667912	9.843219	0.247306	0.195262				-0.005197	0.002346	-0.004238				42.602303	-88.263543	-173.963201
00182	14667962	9.816519	0.243859	0.205489				-0.000376	0.000017	-0.000220				42.605372	-88.264797	-173.964500
00183	14668012	9.823742	0.226655	0.189993				-0.003655	0.004516	0.000261				42.573574	-88.263826	-173.933696
00184	14668062	9.824039	0.222848	0.188138				-0.007164	-0.000002	0.000569				42.569654	-88.264833	-173.929735
00185	14668112	9.838033	0.241927	0.197239				0.000241	0.000772	-0.001471				42.574782	-88.264667	-173.934966
00186	14668162	9.821632	0.231817	0.173401				-0.002829	0.001822	0.001080				42.557083	-88.264817	-173.915593
00187	14668212	9.809737	0.244116	0.185126				0.000767	-0.000646	-0.000995				42.568215	-88.264946	-173.926620
00188	14668262	9.816663	0.251893	0.205445				-0.008215	-0.000217	0.000220				42.568530	-88.265009	-173.926663
00189	14668312	9.822939	0.249171	0.197379				-0.001594	0.001993	-0.003288				42.578551	-88.263577	-173.936929
00190	14668362	9.811623	0.245542	0.184845				-0.002068	0.000020	0.001775				42.567026	-88.265141	-173.924023
00191	14668412	9.818809	0.235059	0.199942				-0.004312	-0.001156	-0.001274				42.582012	-88.265109	-173.940237
00192	14668462	9.820889	0.245845	0.188926				-0.000213	-0.002115	-0.000870				42.603601	-88.266346	-173.959802
00193	14668512	9.822875	0.239294	0.190613				-0.002430	0.001945	-0.002994				42.611478	-88.265222	-173.968300
00194	14668562	9.815850	0.232843	0.183218				-0.002706	0.001752	-0.001872				42.614950	-88.265263	-173.970339
00195	14668612	9.825780	0.240380	0.178875				-0.001077	0.002106	0.000338				42.598694	-88.265113	-173.954511
00196	14668662	9.814816	0.241480	0.178864				-0.004986	-0.000231	-0.001844				42.613660	-88.265081	-173.968453
00197	14668712	9.823739	0.247129	0.186971				-0.004713	-0.000647	-0.001011				42.623388	-88.265162	-173.979611
00198	14668762	9.829597	0.241387	0.174942				-0.001518	-0.002201	0.001567				42.628503	-88.266213	-173.982719
00199	14668812	9.821952	0.240741	0.181134				-0.000377	0.003248	-0.000552				42.611683	-88.265311	-173.965939
00200	14668862	9.820179	0.229862	0.181528				-0.004506	0.001980	-0.001482				42.610195	-88.265384	-173.963542
00201	14668912	9.814695	0.242324	0.196692				-0.000487	0.001597	-0.001173				42.607979	-88.264780	-173.961444
00202	14668962	9.809320	0.237731	0.188534				-0.003757	0.001308	-0.003827				42.626877	-88.264788	-173.979369
00203	14669012	9.815494	0.262546	0.181757				-0.004435	0.000751	-0.001617				42.632199	-88.264091	-173.985838
00204	14669062	9.801665	0.242110	0.185903				-0.003740	-0.000043	-0.000373				42.636192	-88.264780	-173.988726
00205	14669112	9.813691	0.246319	0.197091				-0.004550	-0.000541	-0.000016				42.638355	-88.264884	-173.992198
00206	14669162	9.824810	0.245257	0.171872				-0.008925	-0.000140	-0.002059				42.653158	-88.265511	-174.007498
00207	14669212	9.811773	0.233792	0.184847				-0.000101	-0.001662	-0.001608				42.675061	-88.265512	-174.029411
00208	14669262	9.804209	0.253311	0.176636				-0.001823	0.003056	-0.004562				42.689230	-88.264094	-174.041543
00209	14669312	9.817382	0.243854	0.182115				-0.003956	0.004832	-0.002396				42.673775	-88.262892	-174.027381
00210	14669362	9.821072	0.234552	0.180995				-0.001121	-0.000738	0.000259				42.678331	-88.263728	-174.029999
00211	14669412	9.820684	0.233489	0.209118				-0.002506	0.002532	-0.001292				42.670386	-88.262895	-174.022738
00212	14669462	9.814251	0.239287	0.198367				-0.005529	0.003832	-0.003712				42.672352	-88.262089	-174.024065
00213	14669512	9.823576	0.233739	0.163308				-0.000689	0.001690	-0.001749				42.673322	-88.261566	-174.025338
00214	14669562	9.813026	0.245771	0.190786				-0.005251	-0.001173	-0.002778				42.700991	-88.261456	-174.052003
00215	14669612	9.825984	0.246358	0.171897				-0.000566	0.001276	0.001358				42.683299	-88.261403	-174.034442
00216	14669662	9.814622	0.242343	0.208854				0.000012	0.000193	0.001866				42.672029	-88.262069	-174.020733
00217	14669712	9.824042	0.230781	0.170912				-0.001305	-0.002334	-0.002572				42.704373	-88.262241	-174.053570
00218	14669762	9.808135	0.240285	0.183270				-0.006271	0.001276	0.000925				42.690109	-88.262705	-174.038784
00219	14669812	9.822919	0.232707	0.194619				-0.000981	-0.002060	0.000411				42.700049	-88.263375	-174.049097
00220	14669862	9.826471	0.238623	0.185557				-0.005377	0.002352	-0.000641				42.689958	-88.263416	-174.038290
00221	14669912	9.829231	0.242791	0.194419				-0.003494	0.000539	-0.000913				42.691937	-88.263096	-174.041248
00222	14669962	9.837646	0.242665	0.181040				-0.003692	0.004735	-0.001851				42.675579	-88.262494	-174.023763
00223	14670012	9.820234	0.243884	0.183262				-0.005435	0.003860	-0.004960				42.683811	-88.260619	-174.033493
00224	14670062	9.828315	0.240661	0.191992				-0.005139	-0.001333	-0.001685				42.704684	-88.261142	-174.053540
00225	14670112	9.802122	0.259803	0.192091				-0.002070	-0.000790	0.000463				42.705889	-88.261324	-174.055296
00226	14670162	9.823286	0.245173	0.187484				-0.001599	0.001515	0.000374				42.695443	-88.261999	-174.043195
00227	14670212	9.834013	0.236814	0.203257				-0.002739	0.001941	-0.000971				42.689020	-88.261424	-174.037566
00228	14670262	9.812253	0.233555	0.184926				-0.003976	0.001461	-0.002829				42.700109	-88.261123	-174.047481
00229	14670312	9.819448	0.221746	0.200410				-0.002563	-0.001576	-0.000347				42.711933	-88.261391	-174.060049
00230	14670362	9.811725	0.229954	0.201631				-0.002952	-0.001686	-0.003298				42.746971	-88.261731	-174.093665
00231	14670412	9.807047	0.244620	0.195673				-0.003002	-0.000908	-0.001976				42.765762	-88.261438	-174.113266
00232	14670462	9.814980	0.241324	0.191282				-0.002880	-0.001978	-0.004072				42.808206	-88.261692	-174.154240
00233	14670512	9.831344	0.247361	0.189651				-0.004964	0.003556	0.000295				42.781903	-88.261130	-174.129423
00234	14670562	9.806826	0.245690	0.191097				-0.005081	-0.001305	-0.003735				42.816784	-88.261254	-174.163495
00235	14670612	9.816483	0.234857	0.193083				-0.006884	0.002387	-0.001852				42.812169	-88.260504	-174.160917
00236	14670662	9.815329	0.254328	0.185356				-0.004370	-0.001215	0.000720				42.816434	-88.261001	-174.163870
00237	14670712	9.796342	0.263961	0.194385				-0.003431	0.002642	-0.002369				42.814760	-88.260157	-174.163281
00238	14670762	9.814413	0.250313	0.187342				-0.004166	0.001658	-0.001415				42.815162	-88.260146	-174.162601
00239	14670812	9.835078	0.234216	0.190377				-0.003283	0.002832	-0.003111				42.817647	-88.258833	-174.165960
00240	14670862	9.820102	0.236992	0.180583				-0.005923	0.002271	-0.002913				42.823745	-88.258596	-174.171610
00241	14670912	9.806950	0.246508	0.168649				-0.001500	0.002217	-0.002542				42.826777	-88.257460	-174.174973
00242	14670962	9.823107	0.253558	0.200366				0.000075	-0.001015	-0.001824				42.847998	-88.258202	-174.194042
00243	14671012	9.823333	0.253724	0.201161				-0.005718	0.001183	0.000289				42.836877	-88.257895	-174.184486
00244	14671062	9.802796	0.231778	0.178062				-0.005484	0.002866	0.001098				42.811493	-88.258273	-174.158476
00245	14671112	9.817919	0.248004	0.202120				-0.006510	-0.000422	-0.001068				42.819624	-88.258196	-174.168495
00246	14671162	9.815935	0.240122	0.193484				-0.002719	0.000063	-0.002996				42.841621	-88.258408	-174.189118
00247	14671212	9.826674	0.235072	0.200206				-0.000282	0.002377	0.000759				42.821133	-88.258009	-174.168673
00248	14671262	9.789812	0.272443	0.194194				-0.002437	0.003687	-0.001084				42.806354	-88.257969	-174.152495
00249	14671312	9.813727	0.236540	0.172465				-0.002517	0.002076	-0.001609				42.803351	-88.257201	-174.150201
00250	14671362	9.815841	0.250879	0.186355				-0.000514	0.001429	-0.002386				42.812958	-88.256796	-174.157565
00251	14671412	9.816471	0.237072	0.188695				-0.003045	0.000380	-0.002258				42.825171	-88.256349	-174.170703
00252	14671462	9.820172	0.238533	0.204053				-0.002061	0.001792	-0.002003				42.829168	-88.256275	-174.173071
00253	14671512	9.806905	0.239284	0.191174				-0.004448	0.000033	-0.002836				42.847303	-88.255548	-174.192395
00254	14671562	9.825228	0.233030	0.206215				-0.003843	0.002636	0.000481				42.828224	-88.255822	-174.172186
00255	14671612	9.811831	0.236664	0.208602				-0.002801	-0.001033	0.000396				42.831123	-88.256218	-174.175950
00256	14671662	9.815248	0.228077	0.173248				-0.005867	0.003368	-0.003548				42.834561	-88.255427	-174.178825
00257	14671712	9.806655	0.247286	0.177832				-0.007437	0.003800	-0.000591				42.812169	-88.254348	-174.158457
00258	14671762	9.812637	0.237980	0.190627				-0.005675	-0.000705	-0.004632				42.849439	-88.254274	-174.195132
00259	14671812	9.815633	0.244745	0.194017				-0.000628	0.000139	-0.000183				42.849506	-88.254181	-174.195369
00260	14671862	9.805898	0.260074	0.196713				-0.002515	0.000978	-0.000462				42.848023	-88.254602	-174.192373
00261	14671912	9.825130	0.231933	0.185566				-0.003816	0.000504	-0.000332				42.846110	-88.254143	-174.191386
00262	14671962	9.820133	0.249947	0.187304				-0.001794	0.003379	-0.002886				42.846552	-88.253463	-174.190060
00263	14672012	9.798414	0.249074	0.197550				-0.005230	0.003769	-0.002812				42.840367	-88.252082	-174.185338
00264	14672062	9.813293	0.257024	0.201897				-0.003202	0.001217	-0.003409				42.857164	-88.251890	-174.200881
00265	14672112	9.821029	0.245876	0.205022				-0.005167	0.000767	-0.001675				42.862240	-88.251529	-174.207516
00266	14672162	9.831122	0.250931	0.180002				-0.002836	0.000770	-0.003827				42.884939	-88.251546	-174.228936
00267	14672212	9.816386	0.222237	0.193210				-0.004802	-0.001583	0.001903				42.880703	-88.252092	-174.225981
00268	14672262	9.816842	0.242133	0.196819				-0.008655	-0.000361	-0.000708				42.887780	-88.252604	-174.233253
00269	14672312	9.818718	0.245069	0.194953				-0.005078	0.001029	-0.001575				42.890726	-88.252157	-174.237692
00270	14672362	9.824090	0.235653	0.192837				-0.001836	0.004935	-0.000476				42.864144	-88.251500	-174.209266
00271	14672412	9.810292	0.252294	0.195661				-0.003556	-0.001465	0.000522				42.869181	-88.251700	-174.215202
00272	14672462	9.811548	0.236034	0.178924				-0.005708	0.001498	-0.003367				42.882987	-88.251587	-174.228552
00273	14672512	9.836518	0.232584	0.190699				-0.003342	-0.002500	-0.002339				42.913992	-88.251981	-174.260719
00274	14672562	9.824723	0.237860	0.201504				-0.003407	-0.002143	-0.000188				42.930456	-88.252754	-174.275753
00275	14672612	9.805391	0.243695	0.196687				-0.001911	-0.000019	-0.002454				42.946843	-88.252336	-174.292725
00276	14672662	9.809464	0.244023	0.191863				-0.005355	0.000568	-0.000550				42.947886	-88.252435	-174.292865
00277	14672712	9.813119	0.256439	0.191673				-0.006614	0.000803	-0.003658				42.966023	-88.251387	-174.312812
00278	14672762	9.820054	0.221375	0.181036				-0.004456	-0.000675	-0.002005				42.985391	-88.251740	-174.331156
00279	14672812	9.825457	0.232886	0.208432				-0.001992	0.003404	-0.004267				42.992143	-88.250366	-174.338586
00280	14672862	9.825541	0.242572	0.174691				-0.005070	-0.002397	0.000298				43.006351	-88.251464	-174.351944
00281	14672912	9.823581	0.258057	0.190571				-0.005910	-0.001415	-0.003061				43.034588	-88.251375	-174.382013
00282	14672962	9.810753	0.239478	0.185389				-0.003857	0.000558	-0.004725				43.064224	-88.251074	-174.410558
00283	14673012	9.801944	0.237104	0.189913				-0.003960	-0.002220	-0.002300				43.093097	-88.251276	-174.440688
00284	14673062	9.830202	0.226115	0.186235				-0.002209	-0.000767	-0.002430				43.116386	-88.251305	-174.462171
00285	14673112	9.786574	0.251726	0.180512				-0.004074	0.001692	0.000157				43.103462	-88.250788	-174.450295
00286	14673162	9.819184	0.236384	0.175337				-0.003548	0.002088	-0.002538				43.108869	-88.250631	-174.454526
00287	14673212	9.814846	0.241403	0.173655				-0.000319	0.001834	0.003614				43.072156	-88.250999	-174.417922
00288	14673262	9.814811	0.240006	0.182673				-0.004990	-0.000980	-0.001716				43.091042	-88.251521	-174.435998
00289	14673312	9.806024	0.253054	0.190428				-0.002988	0.001843	-0.001321				43.087448	-88.251054	-174.433361
00290	14673362	9.835429	0.239017	0.199706				-0.004351	0.001398	0.000022				43.079540	-88.251130	-174.424285
00291	14673412	9.827506	0.250213	0.187700				-0.004467	-0.000092	0.000115				43.078118	-88.251273	-174.424200
00292	14673462	9.813313	0.244628	0.184432				-0.004548	0.001329	-0.000643				43.074781	-88.251306	-174.419792
00293	14673512	9.808852	0.238414	0.186898				-0.004253	0.002368	0.000162				43.057321	-88.250824	-174.403531
00294	14673562	9.808346	0.239951	0.188609				-0.001975	0.003382	0.001541				43.026715	-88.251373	-174.371407
00295	14673612	9.824281	0.245577	0.180053				-0.004058	0.000074	-0.001039				43.032271	-88.251022	-174.378050
00296	14673662	9.834148	0.240804	0.173255				0.000490	0.000092	-0.000858				43.039569	-88.251677	-174.383078
00297	14673712	9.799524	0.261321	0.184746				0.000043	0.001115	-0.001810				43.044687	-88.251189	-174.388247
00298	14673762	9.820490	0.239474	0.189582				-0.003972	-0.001896	-0.002331				43.074254	-88.251679	-174.416630
00299	14673812	9.818727	0.251435	0.180624				-0.003126	0.001965	-0.002155				43.075598	-88.250784	-174.418839
00300	14673862	9.813824	0.238258	0.192131				-0.002146	0.001104	-0.005077				43.104833	-88.250435	-174.446582
00301	14673912	9.812558	0.242587	0.194786				-0.003568	0.000895	-0.000300				43.100319	-88.249990	-174.442965
00302	14673962	9.810106	0.249663	0.192318				-0.004712	-0.000417	0.000822				43.098244	-88.250941	-174.440010
00303	14674012	9.827435	0.233742	0.193194				-0.004004	-0.000405	0.001300				43.090765	-88.251306	-174.433692
00304	14674062	9.816678	0.243888	0.219922				-0.000765	0.002659	0.000859				43.070116	-88.251666	-174.411054
00305	14674112	9.804360	0.243128	0.171822				-0.001198	0.002708	-0.002860				43.071884	-88.250627	-174.413223
00306	14674162	9.813334	0.244165	0.180142				-0.007364	0.001545	0.002379				43.046277	-88.250759	-174.387054
00307	14674212	9.815703	0.244697	0.182745				-0.006989	0.000475	-0.002728				43.059930	-88.250004	-174.402648
00308	14674262	9.833474	0.252126	0.182678				-0.007160	0.001793	-0.003109				43.069602	-88.250245	-174.412457
00309	14674312	9.826158	0.255190	0.204526				-0.002799	0.001746	-0.001518				43.068188	-88.249445	-174.411754
00310	14674362	9.820533	0.235960	0.189165				-0.003257	0.001024	-0.001387				43.071937	-88.249854	-174.414330
00311	14674412	9.813623	0.252582	0.195964				-0.002610	0.001878	-0.002282				43.074940	-88.248942	-174.418038
00312	14674462	9.834308	0.241573	0.183353				-0.006456	0.001040	0.001057				43.061750	-88.249293	-174.404273
00313	14674512	9.804986	0.255969	0.198266				-0.004107	-0.002481	-0.001501				43.086942	-88.249335	-174.430546
00314	14674562	9.804409	0.243552	0.200261				-0.002152	0.000632	0.000981				43.077805	-88.249950	-174.419693
00315	14674612	9.800605	0.266520	0.191714				-0.001975	0.001017	-0.002482				43.087877	-88.249128	-174.430263
00316	14674662	9.820591	0.224109	0.203844				-0.003586	0.001279	-0.002287				43.096435	-88.249215	-174.437676
00317	14674712	9.819789	0.234282	0.197289				-0.002725	-0.000381	0.000237				43.096361	-88.249501	-174.438476
00318	14674762	9.801195	0.241168	0.186826				-0.004474	-0.001062	-0.001749				43.115955	-88.250359	-174.457308
00319	14674812	9.827159	0.225002	0.179088				-0.005809	0.001858	0.000548				43.098422	-88.250285	-174.441560
00320	14674862	9.817687	0.234660	0.188876				-0.004661	-0.002267	-0.002138				43.128957	-88.250422	-174.470837
00321	14674912	9.808727	0.249144	0.185694				-0.004075	0.001689	-0.002315				43.132664	-88.249854	-174.475857
00322	14674962	9.819706	0.243642	0.192594				-0.000935	0.001747	0.000021				43.123651	-88.249636	-174.464564
00323	14675012	9.828135	0.223318	0.178560				-0.005703	-0.001598	0.000463				43.129346	-88.249928	-174.471812
00324	14675062	9.807663	0.243520	0.175599				-0.002113	0.000302	-0.001266				43.137336	-88.250460	-174.478287
00325	14675112	9.807124	0.247721	0.177674				-0.003152	-0.000037	0.000787				43.131303	-88.250497	-174.473085
00326	14675162	9.804226	0.248881	0.182094				-0.003333	0.001413	-0.001611				43.134611	-88.250441	-174.475034
00327	14675212	9.799334	0.250668	0.199245				-0.001432	-0.001880	-0.000189				43.147387	-88.251012	-174.488357
00328	14675262	9.815574	0.247604	0.197538				-0.005699	-0.000796	-0.001454				43.162963	-88.251708	-174.503392
00329	14675312	9.819427	0.245220	0.195262				-0.001652	0.002220	0.000990				43.141531	-88.251284	-174.482333
00330	14675362	9.828725	0.231605	0.182966				-0.003510	0.002962	-0.002819				43.142755	-88.250991	-174.482437
00331	14675412	9.827792	0.241063	0.198453				-0.005010	-0.000363	-0.001101				43.151113	-88.250842	-174.492229
00332	14675462	9.804070	0.252183	0.201243				-0.001337	0.001059	-0.002868				43.166010	-88.250566	-174.505177
00333	14675512	9.830263	0.248079	0.208348				-0.003164	0.002326	0.000473				43.146810	-88.250210	-174.486904
00334	14675562	9.825381	0.222257	0.203852				-0.002442	0.003655	-0.002662				43.143334	-88.249217	-174.481657
00335	14675612	9.795170	0.241865	0.197168				-0.003493	-0.000630	-0.002005				43.160161	-88.248860	-174.499437
00336	14675662	9.817628	0.238123	0.193069				-0.001285	0.002877	0.000284				43.141523	-88.249283	-174.479108
00337	14675712	9.807258	0.256020	0.177434				-0.000329	-0.002376	-0.000035				43.157159	-88.249590	-174.494734
00338	14675762	9.825189	0.233648	0.173597				-0.003727	0.003633	-0.003265				43.157438	-88.248694	-174.493708
00339	14675812	9.832076	0.244825	0.191483				-0.002588	0.000069	-0.002357				43.172400	-88.247992	-174.509285
00340	14675862	9.831650	0.245124	0.183175				-0.006586	0.002069	-0.001694				43.170743	-88.248275	-174.507509
00341	14675912	9.806823	0.262758	0.195931				-0.000952	0.002031	-0.002930				43.177563	-88.247318	-174.514630
00342	14675962	9.787610	0.258763	0.192036				-0.002757	0.002291	-0.004779				43.196867	-88.246454	-174.532422
00343	14676012	9.807541	0.236261	0.171731				-0.006140	0.000103	-0.001029				43.201452	-88.246147	-174.538719
00344	14676062	9.811993	0.234617	0.186268				-0.004850	-0.000034	0.000504				43.199105	-88.247100	-174.535609
00345	14676112	9.817060	0.246765	0.189926				-0.002202	0.001173	-0.001875				43.203944	-88.246326	-174.540980
00346	14676162	9.807355	0.245415	0.183948				-0.007401	-0.000799	-0.004306				43.238411	-88.246292	-174.575343
00347	14676212	9.818559	0.240587	0.190314				0.000350	-0.002559	-0.000518				43.258625	-88.246669	-174.595434
00348	14676262	9.815665	0.230914	0.217259				0.000256	0.000411	-0.001689				43.269822	-88.246951	-174.604334
00349	14676312	9.798269	0.254479	0.210366				-0.002799	0.002104	0.000641				43.251293	-88.246420	-174.586463
00350	14676362	9.820565	0.250023	0.194416				-0.002684	0.000263	-0.000530				43.254331	-88.247223	-174.588210
00351	14676412	9.818949	0.248430	0.188986				-0.005198	0.002676	-0.000382				43.238530	-88.246241	-174.573680
00352	14676462	9.820710	0.229498	0.174424				-0.006355	0.005015	-0.000878				43.212716	-88.246069	-174.547619
00353	14676512	9.812579	0.259909	0.195886				-0.004015	-0.000378	-0.002388				43.230257	-88.245578	-174.566263
00354	14676562	9.816329	0.258298	0.207695				-0.003477	0.002158	0.000190				43.216163	-88.246199	-174.551135
00355	14676612	9.808846	0.237201	0.189477				-0.004923	0.000024	-0.002096				43.228833	-88.245815	-174.565249
00356	14676662	9.808518	0.239728	0.199552				-0.000085	0.000819	-0.004544				43.256962	-88.244920	-174.590871
00357	14676712	9.814014	0.243883	0.186797				-0.001365	0.000995	-0.001520				43.260480	-88.244423	-174.594788
00358	14676762	9.815831	0.234690	0.182010				-0.005773	0.000926	0.001954				43.242271	-88.245146	-174.575895
00359	14676812	9.812151	0.239871	0.189888				-0.006441	-0.002880	-0.003584				43.283086	-88.245213	-174.618678
00360	14676862	9.829718	0.243388	0.191039				-0.006475	0.001255	-0.004266				43.304613	-88.244717	-174.639805
00361	14676912	9.820588	0.231585	0.189874				0.001603	-0.001635	-0.000390				43.318382	-88.244913	-174.653082
00362	14676962	9.821118	0.248546	0.185312				-0.003293	0.000216	-0.000972				43.324629	-88.245735	-174.658234
00363	14677012	9.823456	0.241330	0.205736				-0.002053	0.001696	-0.000203				43.314581	-88.245464	-174.648838
00364	14677062	9.823750	0.239795	0.200534				-0.003719	0.002672	-0.001252				43.307193	-88.245261	-174.640217
00365	14677112	9.825646	0.251844	0.177728				-0.003268	0.002382	-0.002956				43.311003	-88.244363	-174.645073
00366	14677162	9.804898	0.251218	0.184944				-0.005396	0.001796	-0.002883				43.320344	-88.243634	-174.653423
00367	14677212	9.817516	0.251262	0.183447				-0.004776	0.000911	0.003041				43.292400	-88.244014	-174.626823
00368	14677262	9.848651	0.233547	0.190839				-0.004409	-0.002805	0.001799				43.299658	-88.245326	-174.632891
00369	14677312	9.810378	0.245105	0.195414				0.000656	-0.001872	0.001697				43.300546	-88.245904	-174.633502
00370	14677362	9.827361	0.242897	0.186975				-0.002462	0.001399	0.000504				43.289408	-88.246511	-174.620892
00371	14677412	9.813426	0.237708	0.179154				-0.001199	0.001539	-0.005012				43.313249	-88.245283	-174.645137
00372	14677462	9.801456	0.254265	0.195449				-0.006245	-0.000571	0.000024				43.317668	-88.245983	-174.649075
00373	14677512	9.826638	0.239629	0.195675				-0.003333	0.000874	0.002490				43.294192	-88.246210	-174.626495
00374	14677562	9.808986	0.238295	0.204651				0.001358	0.003310	-0.000265				43.277063	-88.246160	-174.606722
00375	14677612	9.811886	0.243705	0.186496				-0.005106	-0.001498	-0.003480				43.309037	-88.245806	-174.640181
00376	14677662	9.816864	0.240254	0.197597				-0.003067	0.001090	-0.002255				43.319081	-88.245679	-174.648787
00377	14677712	9.834983	0.226249	0.182857				-0.000984	-0.000138	-0.002874				43.339265	-88.245223	-174.669310
00378	14677762	9.811750	0.248267	0.199131				-0.001848	0.003148	-0.003113				43.341834	-88.244766	-174.670234
00379	14677812	9.815550	0.237483	0.184196				-0.006169	0.002469	0.002637				43.306175	-88.244695	-174.636287
00380	14677862	9.805371	0.249458	0.186527				-0.001406	-0.003753	0.000122				43.331246	-88.246324	-174.659604
00381	14677912	9.823709	0.230463	0.187397				-0.005335	-0.002176	-0.000180				43.344857	-88.246867	-174.674821
00382	14677962	9.822871	0.235483	0.196343				-0.004403	0.001209	0.002465				43.321656	-88.247230	-174.650295
00383	14678012	9.826774	0.230673	0.192689				-0.006214	-0.000740	-0.001937				43.337774	-88.247023	-174.668215
00384	14678062	9.819017	0.244685	0.185420				-0.001768	0.001898	-0.000238				43.328866	-88.247527	-174.657746
00385	14678112	9.832816	0.231220	0.176601				-0.006544	-0.000323	-0.000393				43.331882	-88.247399	-174.662562
00386	14678162	9.816233	0.237189	0.187724				-0.003113	-0.001223	0.002770				43.322545	-88.248600	-174.651700
00387	14678212	9.812988	0.241570	0.166271				-0.004338	0.003081	0.001224				43.293327	-88.247978	-174.623576
00388	14678262	9.821465	0.242973	0.179331				-0.004153	0.000847	-0.003600				43.313362	-88.247973	-174.642677
00389	14678312	9.821021	0.236946	0.186623				-0.002161	0.003890	-0.003014				43.308172	-88.246610	-174.638130
00390	14678362	9.826097	0.221424	0.204170				-0.003450	-0.001620	0.001773				43.307936	-88.247716	-174.636487
00391	14678412	9.811862	0.240677	0.196147				-0.004933	-0.000716	-0.002199				43.325890	-88.247658	-174.655997
00392	14678462	9.816896	0.247964	0.175528				-0.003088	-0.000426	-0.002487				43.347079	-88.247970	-174.675842
00393	14678512	9.811955	0.232361	0.197216				-0.004148	-0.005458	-0.002768				43.399853	-88.248681	-174.729901
00394	14678562	9.814921	0.243812	0.196147				-0.004599	0.001004	-0.001061				43.401788	-88.248527	-174.730660
00395	14678612	9.804665	0.243919	0.199083				-0.005149	0.000925	-0.003501				43.417911	-88.247929	-174.748442
00396	14678662	9.809740	0.242957	0.187745				-0.002421	-0.001259	-0.003680				43.452619	-88.248559	-174.781849
00397	14678712	9.819584	0.236640	0.188234				-0.006099	0.000717	-0.001383				43.455556	-88.248343	-174.786659
00398	14678762	9.820251	0.232579	0.203806				0.000519	0.001352	-0.000952				43.455956	-88.248160	-174.784434
00399	14678812	9.811000	0.240920	0.179840				-0.005856	0.001273	-0.000736				43.451157	-88.247759	-174.781318
00400	14678862	9.818058	0.244436	0.187204				-0.002565	-0.000677	-0.002523				43.474413	-88.247661	-174.802828
00401	14678912	9.811093	0.229845	0.188065				-0.006009	0.001077	-0.000581				43.469949	-88.246917	-174.799839
00402	14678962	9.811110	0.244448	0.193736				-0.006740	0.000066	0.001568				43.458970	-88.248106	-174.788617
00403	14679012	9.801432	0.260264	0.187647				-0.001661	0.002708	0.001119				43.433382	-88.247929	-174.763599
00404	14679062	9.813478	0.234325	0.177903				-0.004792	-0.001102	-0.000753				43.446830	-88.248180	-174.775848
00405	14679112	9.828075	0.239958	0.195336				-0.003847	-0.000763	-0.002811				43.469668	-88.247730	-174.799761
00406	14679162	9.804351	0.235706	0.188076				-0.005370	0.000019	-0.002351				43.486609	-88.247989	-174.816025
00407	14679212	9.818816	0.261079	0.186070				-0.005633	0.001211	-0.000997				43.484056	-88.247485	-174.815053
00408	14679262	9.820925	0.238450	0.197509				-0.004960	-0.000913	-0.002357				43.506692	-88.248197	-174.837064
00409	14679312	9.815767	0.249875	0.201134				-0.004052	-0.000247	-0.001777				43.519160	-88.248085	-174.850817
00410	14679362	9.810552	0.249911	0.196619				-0.003312	-0.000136	-0.000624				43.525192	-88.248863	-174.855664
00411	14679412	9.821192	0.255464	0.197603				-0.002845	0.003391	-0.000930				43.508965	-88.247713	-174.840096
00412	14679462	9.817098	0.245236	0.186042				-0.002744	0.001939	-0.003054				43.518711	-88.247361	-174.848321
00413	14679512	9.825768	0.238592	0.184559				-0.005127	-0.000327	0.001913				43.506367	-88.247784	-174.837430
00414	14679562	9.821404	0.246171	0.182299				-0.001162	0.002973	0.000121				43.488589	-88.247852	-174.817725
00415	14679612	9.822596	0.218526	0.198283				-0.002514	-0.000189	-0.002909				43.508880	-88.247204	-174.838678
00416	14679662	9.803323	0.233240	0.206023				-0.002619	-0.000636	0.000237				43.512937	-88.247942	-174.841204
00417	14679712	9.809427	0.252447	0.181058				-0.003614	0.000247	-0.000367				43.512538	-88.248106	-174.842019
00418	14679762	9.815084	0.243554	0.208624				-0.007167	0.002316	-0.000054				43.498396	-88.248162	-174.827548
00419	14679812	9.809932	0.261211	0.196889				-0.005398	-0.000945	0.000630				43.498728	-88.248523	-174.829449
00420	14679862	9.833339	0.237514	0.194857				-0.003326	0.000989	-0.003182				43.515329	-88.248278	-174.844726
00421	14679912	9.827170	0.256338	0.192280				-0.000391	0.001787	-0.001327				43.512843	-88.247574	-174.842300
00422	14679962	9.812364	0.243757	0.185108				-0.002958	-0.000361	-0.002740				43.535110	-88.247860	-174.863241
00423	14680012	9.806471	0.239644	0.184017				-0.003407	0.001633	-0.004236				43.552570	-88.246437	-174.881536
00424	14680062	9.822945	0.233344	0.189175				-0.005014	0.001031	-0.001319				43.555525	-88.246687	-174.883739
00425	14680112	9.810264	0.239895	0.186171				-0.004259	0.003430	-0.003389				43.555103	-88.245142	-174.884440
00426	14680162	9.827898	0.232441	0.199401				-0.002144	-0.000402	0.001269				43.550743	-88.246412	-174.878619
00427	14680212	9.807596	0.246290	0.179873				-0.003269	-0.001559	-0.001019				43.566938	-88.246399	-174.895677
00428	14680262	9.795848	0.252327	0.181323				-0.003577	-0.001892	-0.001398				43.589532	-88.247674	-174.917331
00429	14680312	9.838283	0.225637	0.187620				-0.002859	-0.000057	0.002359				43.572955	-88.248349	-174.901686
00430	14680362	9.833512	0.221437	0.199578				-0.002816	-0.001612	0.000232				43.583619	-88.249039	-174.910691
00431	14680412	9.799312	0.255491	0.192939				-0.002800	0.002006	-0.000966				43.576208	-88.248691	-174.904239
00432	14680462	9.810040	0.239549	0.184756				-0.002291	0.002439	0.002150				43.547876	-88.249086	-174.874163
00433	14680512	9.823296	0.248412	0.178867				-0.001161	-0.000132	0.000624				43.544191	-88.249128	-174.870737
00434	14680562	9.812428	0.235207	0.192375				-0.003089	0.001167	0.002109				43.524109	-88.250107	-174.849347
00435	14680612	9.812882	0.222858	0.182091				-0.002253	0.003054	0.000483				43.500204	-88.249765	-174.826197
00436	14680662	9.836444	0.215485	0.198955				-0.006021	0.001597	0.000901				43.484637	-88.250039	-174.809959
00437	14680712	9.825726	0.257061	0.192945				-0.004492	-0.001521	-0.003226				43.515219	-88.249729	-174.841847
00438	14680762	9.833404	0.243081	0.172747				-0.004195	-0.000937	-0.004443				43.552577	-88.249448	-174.878026
00439	14680812	9.827449	0.220392	0.180260				-0.002648	0.000201	0.000689				43.545646	-88.249574	-174.871869
00440	14680862	9.824222	0.240831	0.198348				-0.004497	0.002777	-0.004745				43.561390	-88.248654	-174.886621
00441	14680912	9.812145	0.248245	0.173644				-0.006290	0.001648	-0.002751				43.567797	-88.247716	-174.894798
00442	14680962	9.807551	0.244508	0.192563				-0.005994	0.000428	-0.002281				43.580954	-88.247881	-174.907467
00443	14681012	9.789751	0.238113	0.196040				-0.006232	0.000709	-0.004811				43.607245	-88.246756	-174.935539
00444	14681062	9.815397	0.244143	0.194908				-0.005647	-0.000540	-0.003153				43.632644	-88.247082	-174.960430
00445	14681112	9.813651	0.254781	0.186307				-0.001600	0.000542	-0.000622				43.632958	-88.246919	-174.961242
00446	14681162	9.805224	0.255275	0.200301				0.001087	0.002394	-0.003792				43.646069	-88.246057	-174.971626
00447	14681212	9.808603	0.253684	0.195197				-0.001937	0.000118	-0.000402				43.647395	-88.245902	-174.973479
00448	14681262	9.803761	0.227868	0.184252				-0.004154	0.001110	-0.001223				43.649891	-88.245802	-174.974770
00449	14681312	9.820602	0.246442	0.195740				-0.003512	0.002381	0.000032				43.633514	-88.245141	-174.959284
00450	14681362	9.813890	0.236362	0.185387				-0.004582	0.000520	-0.001516				43.641556	-88.245629	-174.966510
00451	14681412	9.814544	0.242591	0.181959				-0.001009	-0.001030	-0.000186				43.649028	-88.245877	-174.974320
00452	14681462	9.827412	0.225699	0.175511				-0.004060	-0.000696	0.000752				43.649397	-88.246779	-174.973584
00453	14681512	9.810903	0.242179	0.194257				-0.002567	0.001424	-0.003666				43.664350	-88.245692	-174.989240
00454	14681562	9.828561	0.240450	0.191654				-0.002760	0.003785	-0.001152				43.649789	-88.245103	-174.973064
00455	14681612	9.829027	0.239182	0.194679				-0.004456	0.001753	0.001410				43.627690	-88.245012	-174.952232
00456	14681662	9.838831	0.248083	0.170651				-0.004182	0.000941	-0.002538				43.639335	-88.245406	-174.963067
00457	14681712	9.839175	0.238276	0.173741				-0.003868	0.001177	-0.000811				43.636051	-88.245096	-174.960947
00458	14681762	9.827312	0.243865	0.194088				0.000588	-0.001682	0.001729				43.637823	-88.246457	-174.960311
00459	14681812	9.810645	0.247133	0.186858				-0.004805	-0.000512	0.000919				43.633552	-88.246899	-174.957508
00460	14681862	9.796716	0.240246	0.181124				-0.001539	-0.000592	-0.001207				43.647863	-88.247006	-174.969750
00461	14681912	9.824656	0.248505	0.190306				-0.004151	-0.000863	0.000148				43.651014	-88.247461	-174.974247
00462	14681962	9.819864	0.249332	0.194479				-0.004228	0.002465	-0.002722				43.654810	-88.247157	-174.977035
00463	14682012	9.801033	0.257826	0.179726				-0.001737	0.002997	0.000516				43.631322	-88.246774	-174.954120
00464	14682062	9.822111	0.229440	0.178130				-0.005154	0.000411	-0.000712				43.634458	-88.247115	-174.956432
00465	14682112	9.820262	0.231606	0.203504				-0.004981	0.000029	-0.000875				43.638752	-88.247040	-174.962217
00466	14682162	9.815892	0.240293	0.199351				-0.003926	0.003953	-0.004734				43.646573	-88.245748	-174.968797
00467	14682212	9.822435	0.243001	0.175738				-0.001600	0.001477	-0.001196				43.644627	-88.245254	-174.967337
00468	14682262	9.806518	0.258341	0.215635				-0.002697	0.001779	-0.000870				43.640862	-88.245209	-174.961990
00469	14682312	9.821569	0.232190	0.184866				-0.003982	0.000726	-0.001580				43.645908	-88.244734	-174.968169
00470	14682362	9.802486	0.243279	0.204825				-0.002556	0.000292	-0.001294				43.654282	-88.244949	-174.974961
00471	14682412	9.819445	0.247389	0.188280				-0.006814	0.001828	-0.005606				43.678477	-88.243563	-175.001179
00472	14682462	9.817510	0.235162	0.178186				-0.003931	0.001043	-0.002602				43.690539	-88.243372	-175.012048
00473	14682512	9.806409	0.242052	0.190045				-0.004824	0.003299	0.000717				43.662952	-88.243049	-174.985965
00474	14682562	9.819837	0.232974	0.192345				-0.004178	0.002081	-0.000415				43.653706	-88.242801	-174.975411
00475	14682612	9.815601	0.225746	0.200006				-0.006799	0.000574	-0.002055				43.661931	-88.242406	-174.985672
00476	14682662	9.821914	0.237803	0.194004				-0.004643	0.002360	-0.002852				43.666493	-88.242235	-174.989464
00477	14682712	9.831082	0.225784	0.199034				-0.002444	0.003556	-0.005035				43.676754	-88.240583	-175.000477
00478	14682762	9.810039	0.235954	0.192114				-0.004166	0.000596	0.000155				43.673408	-88.240669	-174.995770
00479	14682812	9.822885	0.237572	0.190947				-0.002386	0.004145	-0.001342				43.654831	-88.239796	-174.978029
00480	14682862	9.803386	0.236939	0.187516				-0.003792	-0.003313	-0.000544				43.681210	-88.241145	-175.003301
00481	14682912	9.811358	0.245666	0.189735				-0.006492	0.002660	0.002934				43.642194	-88.241450	-174.966298
00482	14682962	9.813176	0.240671	0.213856				-0.004758	-0.001103	-0.001905				43.663598	-88.241280	-174.986414
00483	14683012	9.801372	0.236850	0.206280				-0.004968	-0.000491	-0.001584				43.676002	-88.240982	-175.000195
00484	14683062	9.802474	0.231942	0.191744				-0.008451	0.003193	-0.004665				43.686685	-88.240295	-175.011206
00485	14683112	9.812913	0.251351	0.195801				-0.005616	-0.002246	-0.000497				43.703053	-88.240228	-175.028925
00486	14683162	9.830848	0.229428	0.190108				-0.003364	0.000275	-0.003060				43.723117	-88.240433	-175.047820
00487	14683212	9.820366	0.237305	0.174467				-0.006142	-0.002096	-0.002584				43.752267	-88.240500	-175.078827
00488	14683262	9.810116	0.239829	0.170757				-0.004996	-0.002655	-0.000279				43.772030	-88.241692	-175.097831
00489	14683312	9.826880	0.235199	0.205254				-0.003669	0.002126	-0.000452				43.760081	-88.241236	-175.086972
00490	14683362	9.804162	0.253630	0.181157				0.002410	0.003296	-0.001386				43.751706	-88.240670	-175.075503
00491	14683412	9.800062	0.259770	0.179013				-0.000862	0.002486	-0.002857				43.754753	-88.239454	-175.078714
00492	14683462	9.818899	0.241399	0.172917				-0.000800	0.001425	-0.001840				43.759949	-88.239764	-175.082085
00493	14683512	9.793298	0.246111	0.183250				-0.004423	-0.000646	-0.002510				43.779661	-88.239549	-175.103166
00494	14683562	9.817128	0.239869	0.192553				-0.004775	0.000582	-0.000101				43.778036	-88.239688	-175.100426
00495	14683612	9.814032	0.240071	0.193234				-0.002609	-0.000255	-0.002965				43.798960	-88.239067	-175.122051
00496	14683662	9.821970	0.235742	0.188167				-0.002412	-0.000318	-0.002138				43.816817	-88.239734	-175.138581
00497	14683712	9.812142	0.245211	0.178961				-0.007267	0.001476	-0.000826				43.810653	-88.239457	-175.134608
00498	14683762	9.807673	0.252268	0.195748				-0.003684	0.002635	-0.000989				43.801625	-88.239444	-175.124412
00499	14683812	9.831146	0.246847	0.184381				-0.003839	0.001205	-0.003888				43.818747	-88.238505	-175.142691
00500	14683862	9.804356	0.238175	0.182738				-0.003039	0.000486	-0.000941				43.823963	-88.238425	-175.146241
00501	14683912	9.806396	0.241081	0.193610				-0.003081	0.002845	-0.000319				43.806784	-88.237547	-175.129793
00502	14683962	9.815170	0.240895	0.200425				-0.001076	-0.000133	-0.002648				43.827621	-88.237974	-175.148852
00503	14684012	9.813123	0.247009	0.170261				-0.000049	-0.000985	-0.000669				43.838590	-88.237926	-175.159767
00504	14684062	9.823164	0.230521	0.198992				-0.003112	-0.001261	0.001070				43.841025	-88.239002	-175.160805
00505	14684112	9.816712	0.229910	0.203569				-0.005987	0.000469	-0.000165				43.837313	-88.238856	-175.158801
00506	14684162	9.825122	0.245711	0.197281				-0.001243	0.000554	0.001781				43.823922	-88.239528	-175.143363
00507	14684212	9.826318	0.237423	0.173373				-0.002873	0.001291	0.000088				43.814293	-88.239101	-175.134442
00508	14684262	9.822290	0.224718	0.197339				-0.000229	0.000398	-0.003736				43.838863	-88.239359	-175.157117
00509	14684312	9.810424	0.227063	0.186505				-0.002022	-0.002705	-0.002048				43.869346	-88.239623	-175.188268
00510	14684362	9.816100	0.253079	0.178360				-0.002602	-0.000451	-0.001941				43.887297	-88.239766	-175.204553
00511	14684412	9.817850	0.237804	0.196687				-0.004543	0.002724	0.001770				43.856854	-88.239209	-175.175185
00512	14684462	9.821359	0.249226	0.182681				-0.005297	0.000994	0.000031				43.850980	-88.239850	-175.168674
00513	14684512	9.813076	0.242486	0.188505				-0.006782	-0.000040	-0.001992				43.862849	-88.239266	-175.182375
00514	14684562	9.829403	0.215697	0.181984				-0.003705	0.001380	0.000603				43.850849	-88.240216	-175.169441
00515	14684612	9.817954	0.247970	0.197825				-0.003429	0.001939	0.002439				43.821082	-88.240065	-175.140496
00516	14684662	9.812078	0.241310	0.198771				-0.006343	0.000653	0.000867				43.811397	-88.240784	-175.130392
00517	14684712	9.818188	0.233256	0.188934				-0.004870	-0.000555	-0.002126				43.827908	-88.240619	-175.148393
00518	14684762	9.836205	0.241638	0.185163				-0.001359	-0.002236	-0.001315				43.853128	-88.241751	-175.171916
00519	14684812	9.817524	0.252375	0.179599				-0.000158	0.000073	-0.003738				43.877749	-88.241122	-175.196667
00520	14684862	9.804570	0.236414	0.190274				-0.000912	0.003073	-0.000771				43.865175	-88.240716	-175.181964
00521	14684912	9.822783	0.249553	0.182934				-0.001611	-0.001305	-0.001407				43.882622	-88.240707	-175.199879
00522	14684962	9.822448	0.237697	0.184355				-0.006200	0.000005	-0.001642				43.893977	-88.241260	-175.210882
00523	14685012	9.817784	0.263494	0.193123				-0.005644	0.003929	-0.000849				43.872909	-88.240024	-175.191268
00524	14685062	9.830741	0.240223	0.185602				-0.001598	0.005250	-0.004639				43.872206	-88.238595	-175.188717
00525	14685112	9.828723	0.231808	0.182701				-0.003182	-0.000199	-0.000690				43.877396	-88.238366	-175.194740
00526	14685162	9.812868	0.236383	0.195900				-0.005420	0.000799	0.000670				43.868550	-88.239031	-175.185214
00527	14685212	9.820513	0.241956	0.181124				-0.005226	0.003807	-0.000532				43.846147	-88.237967	-175.164185
00528	14685262	9.809068	0.234176	0.198477				-0.001823	-0.002729	-0.000411				43.868306	-88.239240	-175.184687
00529	14685312	9.823811	0.239500	0.191707				-0.001458	-0.002212	-0.002755				43.900570	-88.239212	-175.217423
00530	14685362	9.823743	0.242243	0.196732				-0.002012	-0.003026	-0.002214				43.936952	-88.239944	-175.252067
00531	14685412	9.809907	0.228389	0.189227				-0.004496	-0.000219	-0.000685				43.941678	-88.239876	-175.258097
00532	14685462	9.820940	0.235499	0.200629				-0.004331	-0.000318	-0.000781				43.949933	-88.239991	-175.265090
00533	14685512	9.808572	0.256279	0.195927				-0.003954	0.002018	-0.000800				43.941161	-88.239332	-175.257394
00534	14685562	9.805093	0.251720	0.190200				-0.002067	-0.001420	-0.005828				43.991199	-88.239552	-175.306034
00535	14685612	9.837584	0.227420	0.183076				-0.004152	-0.000025	-0.001711				44.001715	-88.239094	-175.317668
00536	14685662	9.810497	0.249680	0.205514				-0.001367	0.001553	0.003393				43.971023	-88.239986	-175.285020
00537	14685712	9.822783	0.239780	0.203096				-0.002657	0.002359	-0.003210				43.976450	-88.238873	-175.291221
00538	14685762	9.813982	0.260096	0.199020				-0.005736	0.000534	-0.000069				43.974133	-88.239396	-175.288279
00539	14685812	9.827257	0.250666	0.189601				-0.007479	0.000015	-0.000323				43.974159	-88.239362	-175.290470
00540	14685862	9.818489	0.243783	0.196388				-0.003535	0.000896	-0.001065				43.976927	-88.239792	-175.292084
00541	14685912	9.822340	0.229685	0.179217				-0.000647	-0.004355	0.001401				43.995639	-88.240946	-175.310977
00542	14685962	9.821566	0.228962	0.191115				-0.003187	0.003134	-0.000027				43.976827	-88.240747	-175.290648
00543	14686012	9.808261	0.239134	0.203433				-0.007398	0.002439	-0.001973				43.972299	-88.239665	-175.288125
00544	14686062	9.828575	0.232463	0.205748				-0.005361	0.002828	-0.002398				43.970865	-88.239278	-175.285965
00545	14686112	9.828208	0.229951	0.193224				-0.002336	0.002599	-0.000836				43.959016	-88.238604	-175.274805
00546	14686162	9.809292	0.239983	0.189236				-0.001471	-0.001526	0.000423				43.967777	-88.239827	-175.281833
00547	14686212	9.826129	0.237802	0.205726				-0.004777	0.001680	-0.000063				43.955812	-88.239690	-175.271370
00548	14686262	9.817876	0.241591	0.182711				-0.001839	0.000119	0.001684				43.945708	-88.240352	-175.259324
00549	14686312	9.828903	0.247707	0.197516				-0.001385	-0.000069	0.000656				43.941327	-88.240468	-175.255319
00550	14686362	9.812922	0.229763	0.200274				-0.002570	0.002684	-0.003980				43.952620	-88.239934	-175.265202
00551	14686412	9.838422	0.236220	0.184280				-0.000056	-0.000922	-0.002370				43.974269	-88.239865	-175.287014
00552	14686462	9.811384	0.247840	0.181019				-0.000080	-0.000177	-0.002300				43.993066	-88.240004	-175.303497
00553	14686512	9.821665	0.242902	0.184675				-0.002430	0.002332	-0.003437				44.000334	-88.238858	-175.311467
00554	14686562	9.819045	0.254412	0.200455				-0.002447	0.001951	-0.000935				43.995259	-88.239332	-175.305090
00555	14686612	9.826342	0.249395	0.184853				-0.004922	0.000959	-0.004241				44.016192	-88.238024	-175.327275
00556	14686662	9.822379	0.240708	0.189599				-0.003497	-0.000401	-0.001521				44.030007	-88.238872	-175.340102
00557	14686712	9.812531	0.242951	0.199347				-0.002607	0.003109	0.001031				44.002395	-88.238352	-175.313172
00558	14686762	9.793017	0.259805	0.202274				-0.004731	0.001291	-0.001057				44.002403	-88.238332	-175.312147
00559	14686812	9.810834	0.235502	0.179372				-0.001077	-0.001071	-0.002395				44.025075	-88.237940	-175.335062
00560	14686862	9.831108	0.230342	0.183827				-0.003412	0.002223	0.000928				44.006104	-88.238177	-175.314678
00561	14686912	9.811499	0.232641	0.193299				-0.002579	0.000137	0.000083				44.003885	-88.238222	-175.313224
00562	14686962	9.816697	0.243097	0.179381				-0.004188	0.000270	0.000244				44.001450	-88.239060	-175.309891
00563	14687012	9.809332	0.256624	0.187074				-0.004785	0.000936	-0.001573				44.004579	-88.238492	-175.314352
00564	14687062	9.804444	0.251983	0.179159				-0.004067	0.000366	-0.001066				44.010591	-88.238555	-175.319093
00565	14687112	9.818315	0.240763	0.191037				-0.001729	-0.001400	0.001805				44.007358	-88.238901	-175.316164
00566	14687162	9.805636	0.245554	0.191412				-0.002861	0.001073	0.002049				43.988241	-88.239747	-175.295588
00567	14687212	9.825706	0.219226	0.194467				-0.004128	0.001306	-0.000516				43.982381	-88.239081	-175.290727
00568	14687262	9.812609	0.238009	0.196171				-0.003521	0.001709	0.001765				43.960496	-88.240045	-175.267768
00569	14687312	9.820675	0.221700	0.195083				-0.004590	-0.001721	-0.006337				44.012785	-88.239139	-175.321401
00570	14687362	9.814328	0.251776	0.198260				-0.004552	-0.000449	-0.000716				44.021332	-88.240254	-175.329297
00571	14687412	9.827385	0.238772	0.193229				-0.005946	0.001208	-0.001027				44.018938	-88.239675	-175.328524
00572	14687462	9.827814	0.248416	0.180258				-0.001719	0.000151	-0.000438				44.022534	-88.240493	-175.330544
00573	14687512	9.830657	0.242779	0.194384				-0.006865	-0.000070	-0.000422				44.023594	-88.240760	-175.333785
00574	14687562	9.812435	0.237757	0.186154				-0.004324	0.003464	-0.001305				44.011644	-88.239801	-175.320419
00575	14687612	9.826727	0.251867	0.194689				-0.004491	0.002585	-0.002789				44.012233	-88.238706	-175.322295
00576	14687662	9.809284	0.240546	0.189162				-0.001363	-0.001337	-0.004223				44.051078	-88.238952	-175.359385
00577	14687712	9.802799	0.241967	0.195306				0.000624	0.001194	-0.000207				44.044900	-88.238541	-175.352955
00578	14687762	9.806689	0.244899	0.176315				-0.003618	0.000638	0.000603				44.038095	-88.239011	-175.344815
00579	14687812	9.817915	0.233127	0.194722				-0.005233	-0.000139	-0.001003				44.044275	-88.238886	-175.352525
00580	14687862	9.815203	0.248712	0.178671				-0.000766	0.001791	0.001948				44.021810	-88.239381	-175.327886
00581	14687912	9.821876	0.248580	0.177405				-0.000940	-0.001969	0.001770				44.022180	-88.240241	-175.328593
00582	14687962	9.809775	0.239234	0.188729				-0.003960	-0.000722	0.002585				44.011044	-88.241588	-175.316356
00583	14688012	9.830313	0.228930	0.200435				-0.004963	0.001550	-0.000259				44.001207	-88.241473	-175.308102
00584	14688062	9.805080	0.246665	0.202555				-0.006563	0.004591	-0.000524				43.975247	-88.241316	-175.281876
00585	14688112	9.809917	0.235942	0.173184				-0.006898	0.000737	-0.001121				43.975988	-88.241015	-175.284641
00586	14688162	9.792933	0.251973	0.192683				-0.001826	0.001503	-0.002866				43.988062	-88.239858	-175.294404
00587	14688212	9.821651	0.234250	0.204905				-0.003255	-0.002179	-0.002782				44.020010	-88.239634	-175.327224
00588	14688262	9.830757	0.217091	0.191278				-0.006037	0.000948	-0.000901				44.020315	-88.240226	-175.327212
00589	14688312	9.811414	0.249507	0.211731				-0.001555	0.001024	-0.002996				44.033509	-88.239439	-175.340865
00590	14688362	9.813622	0.256049	0.187849				-0.001656	0.003054	-0.004009				44.042359	-88.238345	-175.347705
00591	14688412	9.827992	0.224530	0.199193				-0.005779	-0.000543	-0.004022				44.070794	-88.238002	-175.378029
00592	14688462	9.810303	0.213630	0.194681				-0.002771	0.000099	-0.000272				44.073831	-88.238410	-175.379510
00593	14688512	9.811867	0.234533	0.207697				-0.003398	0.000674	-0.000294				44.070375	-88.238305	-175.377085
00594	14688562	9.809893	0.263377	0.200054				-0.006160	0.000718	-0.001699				44.077681	-88.238617	-175.384002
00595	14688612	9.802754	0.252467	0.182143				-0.005575	0.003538	-0.002777				44.071782	-88.237420	-175.379752
00596	14688662	9.806310	0.243570	0.202453				-0.002512	-0.000056	-0.001203				44.081990	-88.237606	-175.388300
00597	14688712	9.813617	0.237667	0.187955				-0.000254	-0.002699	0.000830				44.094095	-88.238204	-175.400408
00598	14688762	9.797294	0.248856	0.187052				-0.002492	-0.001511	0.000811				44.099602	-88.239521	-175.404464
00599	14688812	9.818536	0.244190	0.188198				-0.002453	-0.000996	-0.001240				44.113888	-88.239411	-175.419414
00600	14688862	9.809309	0.241180	0.183263				-0.001115	0.000957	-0.005307				44.144747	-88.239041	-175.448510
00601	14688912	9.822102	0.243763	0.189882				-0.004655	0.000580	-0.002249				44.154818	-88.238400	-175.459874
00602	14688962	9.814849	0.241560	0.172726				-0.003470	0.002802	-0.001118				44.145425	-88.238376	-175.449294
00603	14689012	9.829404	0.249515	0.191537				-0.003608	0.001086	-0.002413				44.153517	-88.237747	-175.458473
00604	14689062	9.828399	0.234050	0.191796				-0.004305	0.001045	0.000348				44.145200	-88.238306	-175.449149
00605	14689112	9.822935	0.250266	0.194851				-0.003292	-0.002851	0.000006				44.162773	-88.238885	-175.467671
00606	14689162	9.815215	0.240461	0.192297				-0.007096	-0.000940	0.001470				44.159959	-88.239451	-175.464268
00607	14689212	9.800960	0.253467	0.200891				-0.003526	0.005135	0.001782				44.113806	-88.238841	-175.419157
00608	14689262	9.825180	0.221014	0.199438				-0.000943	0.000007	0.000942				44.109360	-88.239564	-175.412637
00609	14689312	9.823559	0.241414	0.188394				0.000077	-0.000817	0.000455				44.111672	-88.239814	-175.414919
00610	14689362	9.827059	0.245655	0.191986				-0.003002	-0.001001	-0.000723				44.124374	-88.240768	-175.426394
00611	14689412	9.824188	0.237401	0.173095				-0.006397	0.000194	-0.001064				44.128201	-88.240523	-175.432065
00612	14689462	9.810552	0.232159	0.193845				-0.003662	0.002798	-0.002563				44.129091	-88.239978	-175.431681
00613	14689512	9.812641	0.234238	0.198391				-0.008404	0.001939	-0.000759				44.119325	-88.239500	-175.424359
00614	14689562	9.815640	0.236567	0.170995				-0.004920	0.001098	-0.000771				44.118144	-88.239620	-175.422252
00615	14689612	9.798733	0.249626	0.182289				-0.003348	0.000290	0.002365				44.099417	-88.239967	-175.404438
00616	14689662	9.817579	0.257817	0.199321				-0.004969	0.002676	-0.002272				44.098034	-88.239677	-175.402269
00617	14689712	9.806570	0.235667	0.175286				-0.005340	-0.002789	0.000910				44.108474	-88.240550	-175.414316
00618	14689762	9.816402	0.233627	0.206861				-0.005792	-0.001535	0.000917				44.113497	-88.241407	-175.418539
00619	14689812	9.814315	0.234046	0.197573				-0.004142	-0.000445	-0.001717				44.126737	-88.241101	-175.432939
00620	14689862	9.827046	0.244740	0.196613				-0.001831	0.002434	-0.005680				44.150433	-88.240631	-175.455223
00621	14689912	9.818434	0.249606	0.192380				-0.003436	0.001963	-0.000894				44.142741	-88.239887	-175.448411
00622	14689962	9.808386	0.255715	0.189049				-0.002788	0.003655	-0.001559				44.130818	-88.239769	-175.435219
00623	14690012	9.807426	0.251991	0.197863				-0.001198	0.001941	-0.002021				44.131279	-88.239274	-175.436217
00624	14690062	9.811301	0.249123	0.192089				-0.004918	0.000865	-0.004394				44.156542	-88.237965	-175.460073
00625	14690112	9.819290	0.253745	0.200500				-0.004215	0.001109	-0.001375				44.157766	-88.237019	-175.462231
00626	14690162	9.823576	0.235095	0.199516				-0.000847	0.001915	-0.001509				44.156642	-88.237945	-175.459698
00627	14690212	9.818149	0.233141	0.196246				-0.003584	0.004712	-0.000236				44.126579	-88.236991	-175.430688
00628	14690262	9.818416	0.245939	0.203739				-0.001939	-0.001312	-0.004151				44.164905	-88.236619	-175.467044
00629	14690312	9.813781	0.239549	0.195954				-0.002628	0.001465	-0.002179				44.169222	-88.235861	-175.472103
00630	14690362	9.817165	0.227209	0.174123				-0.006124	0.000794	0.001995				44.151357	-88.236610	-175.453620
00631	14690412	9.800401	0.245008	0.191470				-0.000871	0.001357	-0.006644				44.186588	-88.235082	-175.489158
00632	14690462	9.830352	0.227837	0.197369				-0.000982	0.004499	0.000012				44.159373	-88.234758	-175.459924
00633	14690512	9.817437	0.232213	0.195914				-0.006254	0.003017	-0.000461				44.140972	-88.234330	-175.443484
00634	14690562	9.815067	0.231951	0.196876				-0.002933	0.001103	-0.002246				44.150229	-88.234265	-175.451307
00635	14690612	9.813920	0.245299	0.199452				-0.006616	-0.002903	0.000501				44.163743	-88.234895	-175.466685
00636	14690662	9.824710	0.241392	0.197050				-0.007542	0.000623	-0.005798				44.198879	-88.234403	-175.501829
00637	14690712	9.821399	0.241985	0.191103				-0.004151	0.001345	0.000328				44.186774	-88.234275	-175.490963
00638	14690762	9.809562	0.237258	0.190165				-0.001183	-0.000880	-0.005080				44.228499	-88.233796	-175.530573
00639	14690812	9.816333	0.246989	0.190833				-0.002590	-0.000707	-0.001652				44.243246	-88.233696	-175.546125
00640	14690862	9.821992	0.236261	0.183383				-0.001817	-0.000819	-0.000945				44.256811	-88.234197	-175.557870
00641	14690912	9.814799	0.259778	0.183467				-0.000795	0.001597	0.001474				44.236338	-88.234130	-175.537595
00642	14690962	9.817960	0.251206	0.189639				-0.000649	-0.000116	0.000596				44.235466	-88.235243	-175.534829
00643	14691012	9.827868	0.244679	0.178817				0.000703	0.000811	-0.000140				44.231203	-88.235174	-175.530443
00644	14691062	9.811315	0.244697	0.199533				-0.007699	0.000920	-0.001334				44.234539	-88.235000	-175.533521
00645	14691112	9.812354	0.247182	0.217994				-0.000260	-0.000305	-0.000526				44.239694	-88.235218	-175.538914
00646	14691162	9.816042	0.252925	0.187605				-0.001163	0.003078	0.000550				44.218128	-88.235404	-175.515445
00647	14691212	9.811547	0.236027	0.179721				-0.002261	0.004081	-0.004288				44.219326	-88.234001	-175.517470
00648	14691262	9.810886	0.247873	0.184684				-0.002179	-0.000338	0.001018				44.217164	-88.234290	-175.513241
00649	14691312	9.803313	0.238433	0.196484				-0.004563	-0.000127	-0.001954				44.229731	-88.233864	-175.527089
00650	14691362	9.833793	0.232123	0.171275				-0.005500	-0.001247	-0.004595				44.269378	-88.233625	-175.565910
00651	14691412	9.823392	0.249099	0.200827				-0.000481	-0.001610	-0.003102				44.300401	-88.233467	-175.597163
00652	14691462	9.806357	0.245386	0.189957				-0.006837	-0.001133	-0.001416				44.317026	-88.234408	-175.613723
00653	14691512	9.812992	0.232437	0.183009				-0.004902	-0.000747	-0.003117				44.341213	-88.234023	-175.639376
00654	14691562	9.835965	0.239932	0.189010				-0.002475	-0.003551	-0.001729				44.377591	-88.234697	-175.673994
00655	14691612	9.815957	0.244468	0.180664				-0.001582	0.003263	0.001901				44.343496	-88.234410	-175.640340
00656	14691662	9.826245	0.241085	0.179302				-0.004371	-0.000219	-0.001898				44.358515	-88.234657	-175.654312
00657	14691712	9.815218	0.243225	0.186316				-0.003695	-0.000077	-0.000745				44.363033	-88.234373	-175.659792
00658	14691762	9.813454	0.242237	0.204980				-0.005747	-0.001246	-0.002539				44.388649	-88.235099	-175.685028
00659	14691812	9.814959	0.243918	0.189038				-0.004204	0.002793	-0.001304				44.377840	-88.234335	-175.675470
00660	14691862	9.809145	0.240538	0.211814				-0.001927	0.004099	0.001489				44.343221	-88.234106	-175.638884
00661	14691912	9.815068	0.245639	0.166749				-0.000364	0.002992	-0.000382				44.326083	-88.233678	-175.622005
00662	14691962	9.807950	0.252871	0.188320				-0.002599	0.001653	-0.001731				44.328590	-88.233602	-175.622999
00663	14692012	9.815608	0.238691	0.171200				-0.004265	-0.001344	0.000633				44.331744	-88.234040	-175.627403
00664	14692062	9.826250	0.236410	0.188132				-0.003162	-0.000744	-0.000202				44.339732	-88.234757	-175.633999
00665	14692112	9.818144	0.258284	0.184192				-0.002917	0.000649	-0.001510				44.344631	-88.234579	-175.639897
00666	14692162	9.824169	0.232600	0.185243				-0.005202	-0.001003	0.001567				44.341815	-88.235241	-175.635969
00667	14692212	9.814107	0.254789	0.189121				-0.006465	-0.003709	0.000111				44.363487	-88.235860	-175.659395
00668	14692262	9.823710	0.232923	0.182498				-0.004257	0.002635	0.000556				44.343298	-88.236406	-175.638381
00669	14692312	9.814737	0.235382	0.203288				-0.002588	-0.000800	-0.001647				44.358688	-88.236493	-175.654677
00670	14692362	9.815631	0.243072	0.197575				-0.001795	0.000472	-0.002026				44.371042	-88.236531	-175.665237
00671	14692412	9.840979	0.237046	0.193713				-0.000849	0.003078	-0.002053				44.364290	-88.235685	-175.658852
00672	14692462	9.835096	0.227627	0.200374				-0.004794	0.000934	-0.002661				44.377112	-88.235673	-175.670808
00673	14692512	9.792714	0.253124	0.186458				-0.002901	0.002305	0.000170				44.360195	-88.235225	-175.654707
00674	14692562	9.805639	0.243021	0.195511				-0.004569	0.002269	-0.000405				44.349366	-88.235085	-175.642792
00675	14692612	9.807195	0.219702	0.184347				-0.005570	-0.002825	-0.001874				44.378488	-88.235419	-175.673608
00676	14692662	9.822142	0.227011	0.178428				-0.002476	0.001986	0.000194				44.366352	-88.235352	-175.659666
00677	14692712	9.819293	0.238716	0.191976				-0.002806	-0.001223	-0.002740				44.391677	-88.235180	-175.685893
00678	14692762	9.813384	0.239485	0.182304				-0.002282	0.000820	-0.000486				44.391395	-88.235449	-175.683911
00679	14692812	9.802658	0.263226	0.175618				-0.002802	0.000870	-0.004332				44.413745	-88.234363	-175.707048
00680	14692862	9.813797	0.235860	0.201395				-0.005478	-0.000364	-0.000707				44.421696	-88.234964	-175.714317
00681	14692912	9.830141	0.228970	0.190233				-0.004010	-0.002477	-0.002456				44.453002	-88.235099	-175.746857
00682	14692962	9.801247	0.252639	0.194320				-0.004586	0.000882	0.000133				44.446789	-88.235768	-175.739822
00683	14693012	9.791167	0.248237	0.176357				-0.004607	-0.000504	0.001471				44.439073	-88.236104	-175.733384
00684	14693062	9.807547	0.251254	0.178682				-0.003530	-0.000069	0.000928				44.435104	-88.236843	-175.728097
00685	14693112	9.829766	0.237152	0.195384				-0.006411	0.000650	-0.002495				44.445581	-88.236277	-175.740461
00686	14693162	9.806122	0.237738	0.168148				-0.000991	0.000363	-0.001199				44.453685	-88.236406	-175.746448
00687	14693212	9.835198	0.228191	0.181914				-0.002167	0.000046	-0.002255				44.468005	-88.235624	-175.761190
00688	14693262	9.822919	0.239188	0.182081				-0.003812	0.004578	-0.002385				44.454892	-88.235402	-175.747242
00689	14693312	9.821495	0.252734	0.192453				-0.005479	0.006909	-0.001567				44.418787	-88.233752	-175.712734
00690	14693362	9.805882	0.251511	0.178517				-0.002307	0.003731	-0.001110				44.403661	-88.233271	-175.695886
00691	14693412	9.816377	0.253106	0.210106				-0.004744	0.002717	-0.001977				44.397605	-88.232432	-175.691259
00692	14693462	9.824827	0.245144	0.208540				-0.001633	0.000643	0.000156				44.394321	-88.233059	-175.686209
00693	14693512	9.823298	0.244522	0.187664				-0.008319	-0.001907	-0.002860				44.423362	-88.232849	-175.717632
00694	14693562	9.822367	0.244328	0.185092				-0.004810	0.000613	-0.001732				44.432174	-88.232851	-175.725428
00695	14693612	9.818398	0.236782	0.186790				-0.004131	0.000667	0.000900				44.420750	-88.232807	-175.715121
00696	14693662	9.820354	0.243899	0.201625				-0.003196	0.000584	0.001957				44.405509	-88.233546	-175.698410
00697	14693712	9.832783	0.230779	0.182815				-0.002491	-0.001999	-0.003164				44.438910	-88.233431	-175.732607
00698	14693762	9.824509	0.257081	0.197283				-0.003515	0.002616	0.001517				44.412387	-88.234429	-175.705194
00699	14693812	9.810957	0.246739	0.175855				-0.002284	0.000685	-0.004173				44.434993	-88.233442	-175.728462
00700	14693862	9.832892	0.237504	0.189533				-0.002240	-0.000733	-0.002162				44.456271	-88.233440	-175.747904
00701	14693912	9.803124	0.236894	0.191418				-0.003465	-0.000525	-0.002732				44.476804	-88.232965	-175.769419
00702	14693962	9.823014	0.227354	0.191191				-0.004709	0.004759	-0.000586				44.450753	-88.232616	-175.742506
00703	14694012	9.811475	0.237966	0.187584				-0.007451	0.001087	-0.002009				44.454800	-88.232003	-175.748703
00704	14694062	9.817477	0.256154	0.180406				-0.004646	0.002756	-0.000181				44.439445	-88.231490	-175.732040
00705	14694112	9.803305	0.252647	0.168908				-0.005186	0.001448	-0.001372				44.437746	-88.231037	-175.731900
00706	14694162	9.811362	0.248235	0.184161				0.000444	-0.000454	-0.002103				44.457064	-88.231566	-175.748958
00707	14694212	9.816772	0.246825	0.199049				-0.004261	0.002696	-0.001433				44.447903	-88.230669	-175.740980
00708	14694262	9.826219	0.242843	0.179889				-0.003787	0.003569	-0.004636				44.456604	-88.229879	-175.748665
00709	14694312	9.824564	0.233429	0.197275				-0.001004	0.000074	0.001076				44.448697	-88.230089	-175.741052
00710	14694362	9.824864	0.232283	0.189190				-0.004362	0.002019	0.001133				44.429325	-88.230561	-175.720672
00711	14694412	9.818455	0.236900	0.176229				-0.002524	-0.000602	0.001560				44.422060	-88.231224	-175.714268
00712	14694462	9.821582	0.243966	0.196168				-0.003111	0.003483	-0.004736				44.432376	-88.229959	-175.723041
00713	14694512	9.812493	0.237170	0.177512				-0.005312	0.001448	0.000072				44.420975	-88.229755	-175.713201
00714	14694562	9.804357	0.252968	0.189927				0.001772	-0.000719	0.001036				44.421813	-88.230456	-175.711092
00715	14694612	9.795988	0.239873	0.183829				-0.000446	0.002733	0.000519				44.400394	-88.229948	-175.689756
00716	14694662	9.820242	0.233446	0.163949				-0.001024	-0.001676	-0.000083				44.413660	-88.231574	-175.701390
00717	14694712	9.832998	0.230391	0.187915				-0.003122	-0.000066	-0.001934				44.425889	-88.231360	-175.714624
00718	14694762	9.808675	0.242571	0.205727				-0.001938	0.000092	0.000601				44.423454	-88.231771	-175.710242
00719	14694812	9.820297	0.233686	0.193561				-0.004383	0.004535	-0.000398				44.395319	-88.230928	-175.683450
00720	14694862	9.817507	0.248939	0.189963				-0.002529	0.002594	-0.001595				44.390609	-88.230712	-175.677198
00721	14694912	9.797456	0.258540	0.179444				-0.000928	0.000591	-0.000618				44.390732	-88.230469	-175.677585
00722	14694962	9.819983	0.236859	0.200550				-0.003175	0.003913	0.000818				44.361445	-88.230373	-175.646878
00723	14695012	9.812243	0.239061	0.176320				-0.002707	0.002144	-0.001084				44.353732	-88.229970	-175.640096
00724	14695062	9.831955	0.249873	0.201307				0.000434	-0.000034	-0.001043				44.363751	-88.229914	-175.647422
00725	14695112	9.809954	0.244627	0.187693				-0.007162	-0.003342	-0.004630				44.413845	-88.229871	-175.699717
00726	14695162	9.825984	0.240509	0.183644				-0.002293	-0.000759	0.000691				44.416168	-88.230509	-175.700246
00727	14695212	9.800952	0.240637	0.188802				0.000696	0.001173	0.001212				44.400672	-88.230461	-175.684512
00728	14695262	9.805849	0.245060	0.196338				-0.005127	-0.002392	0.000247				44.415704	-88.231711	-175.698786
00729	14695312	9.812255	0.257215	0.215667				-0.004289	0.002499	-0.003262				44.419951	-88.230427	-175.704186
00730	14695362	9.807789	0.264463	0.189832				-0.004262	-0.003383	0.000079				44.442448	-88.232048	-175.725833
00731	14695412	9.796106	0.257256	0.167527				-0.007062	0.001062	0.000686				44.429060	-88.231940	-175.714444
00732	14695462	9.802102	0.256817	0.201021				-0.003843	0.001699	-0.000187				44.420308	-88.232137	-175.704484
00733	14695512	9.803771	0.247237	0.180857				0.000264	-0.000882	-0.002741				44.444134	-88.231838	-175.728292
00734	14695562	9.812333	0.257485	0.201668				-0.002703	0.000844	-0.002085				44.454724	-88.231856	-175.737311
00735	14695612	9.833840	0.253269	0.197972				-0.000282	0.000240	-0.002450				44.469300	-88.231169	-175.751882
00736	14695662	9.795650	0.260622	0.196761				-0.002559	0.003497	-0.003034				44.468061	-88.230826	-175.749325
00737	14695712	9.828981	0.248842	0.182701				-0.003152	0.001168	0.001638				44.448424	-88.231143	-175.730730
00738	14695762	9.824045	0.251047	0.206855				-0.002918	-0.000087	0.002047				44.437485	-88.232056	-175.718259
00739	14695812	9.813804	0.240113	0.190881				-0.005560	-0.000077	-0.002470				44.452920	-88.231330	-175.735142
00740	14695862	9.815266	0.235496	0.195159				-0.004487	-0.002350	0.000465				44.466161	-88.232575	-175.747416
00741	14695912	9.816360	0.248717	0.184165				-0.004461	-0.000218	0.000029				44.466049	-88.232616	-175.748573
00742	14695962	9.811626	0.247730	0.180141				-0.005671	0.002836	0.000083				44.447478	-88.232976	-175.729534
00743	14696012	9.812949	0.249751	0.192846				-0.002451	0.000139	-0.000618				44.449987	-88.232937	-175.732810
00744	14696062	9.812618	0.260748	0.187060				-0.001085	0.000357	-0.002030				44.463517	-88.232684	-175.744117
00745	14696112	9.830678	0.243956	0.189071				-0.007107	-0.000918	-0.003882				44.493201	-88.232154	-175.775888
00746	14696162	9.813251	0.246737	0.189887				-0.004780	-0.000222	-0.001512				44.505372	-88.233003	-175.787475
00747	14696212	9.822762	0.242393	0.200944				-0.005615	0.001796	-0.001850				44.504204	-88.232401	-175.788001
00748	14696262	9.802792	0.229996	0.181809				-0.004533	0.000466	0.002957				44.483213	-88.232681	-175.765503
00749	14696312	9.816529	0.238564	0.177433				-0.003131	0.000487	0.000927				44.472822	-88.232825	-175.756044
00750	14696362	9.823958	0.252976	0.178100				-0.004696	-0.000934	-0.000460				44.483251	-88.233710	-175.765641
00751	14696412	9.807619	0.253615	0.201959				-0.004659	0.002007	-0.002783				44.487109	-88.232970	-175.770986
00752	14696462	9.793338	0.256765	0.194085				-0.002738	0.000399	0.002050				44.473000	-88.233502	-175.755077
00753	14696512	9.822306	0.227215	0.189081				-0.003264	-0.002916	-0.002876				44.510384	-88.233302	-175.793270
00754	14696562	9.825096	0.250131	0.192790				-0.003137	0.001513	-0.001440				44.511064	-88.233920	-175.792933
00755	14696612	9.813725	0.246196	0.191639				-0.000579	0.001694	-0.000902				44.505828	-88.233333	-175.787822
00756	14696662	9.829899	0.247178	0.191790				-0.001828	0.001471	-0.002281				44.513260	-88.233401	-175.793613
00757	14696712	9.839362	0.222084	0.175199				-0.005523	0.001092	0.001317				44.495633	-88.233706	-175.777723
00758	14696762	9.827693	0.234294	0.190825				-0.006511	-0.000255	-0.001378				44.507048	-88.233942	-175.788624
00759	14696812	9.805479	0.232981	0.164881				-0.003032	0.002299	-0.002208				44.505881	-88.233070	-175.788350
00760	14696862	9.820198	0.245949	0.185000				-0.003622	-0.002433	-0.000530				44.526794	-88.233872	-175.807854
00761	14696912	9.815152	0.247985	0.188013				-0.004853	0.000160	-0.001252				44.532578	-88.233724	-175.815112
00762	14696962	9.822614	0.237500	0.196594				0.001521	0.001148	-0.001327				44.536940	-88.233447	-175.816516
00763	14697012	9.829335	0.242558	0.176337				0.000039	-0.001626	0.000264				44.546001	-88.233514	-175.825364
00764	14697062	9.802027	0.250663	0.188308				-0.002528	0.000333	-0.002155				44.559642	-88.234179	-175.837792
00765	14697112	9.825560	0.235576	0.185596				-0.001603	0.000707	-0.000200				44.555789	-88.234065	-175.834440
00766	14697162	9.802161	0.264030	0.176537				-0.003846	-0.000432	-0.000452				44.562701	-88.234975	-175.840375
00767	14697212	9.801405	0.243751	0.185496				-0.004883	0.002240	0.001166				44.538801	-88.234914	-175.817968
00768	14697262	9.826332	0.243902	0.199273				-0.003605	0.002155	-0.001437				44.535979	-88.234891	-175.813922
00769	14697312	9.803194	0.228481	0.197654				-0.004838	0.000224	-0.003333				44.555153	-88.234172	-175.834488
00770	14697362	9.816356	0.241530	0.199939				-0.002200	-0.001320	-0.006398				44.607768	-88.233726	-175.885450
00771	14697412	9.816961	0.239230	0.182254				-0.007214	0.002032	0.001558				44.582037	-88.233608	-175.861764
00772	14697462	9.810295	0.269434	0.197578				-0.001682	-0.000205	-0.003316				44.607605	-88.233433	-175.885444
00773	14697512	9.812217	0.248198	0.200704				-0.002417	0.000014	-0.000682				44.611014	-88.233462	-175.889654
00774	14697562	9.798849	0.262616	0.176577				-0.006202	0.001175	-0.000917				44.610645	-88.233557	-175.888730
00775	14697612	9.825892	0.229943	0.181192				-0.004045	-0.001278	-0.000621				44.622018	-88.233715	-175.901279
00776	14697662	9.817561	0.248139	0.183406				-0.003503	0.000634	-0.004975				44.651990	-88.233361	-175.930064
00777	14697712	9.803412	0.250404	0.195198				-0.002378	-0.002389	-0.003289				44.688522	-88.233446	-175.967468
00778	14697762	9.802732	0.248368	0.193823				-0.004112	0.001086	0.000550				44.679304	-88.233564	-175.956884
00779	14697812	9.818072	0.239051	0.195961				-0.004210	0.001985	-0.000826				44.670639	-88.233023	-175.949440
00780	14697862	9.822901	0.233414	0.197248				-0.006761	-0.001421	-0.000291				44.682605	-88.233483	-175.960844
00781	14697912	9.818300	0.240536	0.194789				-0.004753	0.004078	-0.001935				44.667664	-88.231935	-175.947045
00782	14697962	9.829206	0.258680	0.204502				-0.007100	0.001550	0.002674				44.640107	-88.233412	-175.919615
00783	14698012	9.827625	0.241772	0.186228				-0.007872	0.000106	-0.003938				44.663239	-88.232547	-175.944978
00784	14698062	9.818527	0.247143	0.183763				-0.006250	0.003726	-0.000332				44.641737	-88.232459	-175.923031
00785	14698112	9.798259	0.244185	0.194051				-0.006387	0.000648	-0.003904				44.661277	-88.231634	-175.944471
00786	14698162	9.822082	0.228121	0.184983				-0.006166	-0.002056	0.000087				44.674738	-88.232810	-175.957493
00787	14698212	9.819503	0.223728	0.188232				-0.000951	0.001596	0.002725				44.646005	-88.233213	-175.929135
00788	14698262	9.816355	0.243785	0.194708				-0.005945	0.000311	0.000517				44.641871	-88.233134	-175.923941
00789	14698312	9.813849	0.256720	0.188577				-0.006525	-0.003811	-0.000207				44.666280	-88.233891	-175.950245
00790	14698362	9.815978	0.238444	0.188702				-0.001236	0.000293	0.000504				44.662990	-88.235277	-175.945468
00791	14698412	9.810897	0.245809	0.187736				-0.005186	-0.002883	-0.001586				44.691111	-88.235281	-175.974919
00792	14698462	9.823303	0.242565	0.190622				-0.004722	0.001000	-0.001792				44.697203	-88.235684	-175.980302
00793	14698512	9.811821	0.251307	0.180511				-0.009430	-0.001109	-0.000185				44.702903	-88.235936	-175.988750
00794	14698562	9.811403	0.241305	0.192078				-0.005119	0.000750	0.003243				44.677870	-88.236836	-175.962751
00795	14698612	9.820457	0.238661	0.196295				-0.001378	-0.002490	-0.000637				44.698163	-88.236998	-175.983308
00796	14698662	9.807433	0.253043	0.194120				-0.000453	0.002593	-0.004457				44.713009	-88.236372	-175.996120
00797	14698712	9.810705	0.251565	0.167932				-0.004038	0.002766	-0.001334				44.702729	-88.235541	-175.986989
00798	14698762	9.815708	0.240822	0.189702				-0.000884	0.002237	-0.001284				44.698754	-88.235487	-175.980986
00799	14698812	9.819847	0.242321	0.210951				-0.003775	-0.000165	0.002658				44.681054	-88.236053	-175.964358
00800	14698862	9.835603	0.230694	0.188933				-0.002899	0.002068	-0.002083				44.683262	-88.236023	-175.965209
00801	14698912	9.824601	0.241364	0.173584				-0.003028	0.000101	0.001501				44.671696	-88.236574	-175.954677
00802	14698962	9.804000	0.260090	0.195281				-0.005364	0.001893	-0.002909				44.679802	-88.235416	-175.961515
00803	14699012	9.811525	0.242542	0.169056				-0.001697	0.000314	-0.001515				44.687294	-88.235110	-175.969531
00804	14699062	9.816084	0.246982	0.194281				-0.004850	0.000932	-0.003555				44.705638	-88.235135	-175.987224
00805	14699112	9.807200	0.245859	0.207741				-0.006042	0.002310	-0.000018				44.688878	-88.234700	-175.972214
00806	14699162	9.806493	0.251830	0.194289				-0.004890	0.001229	-0.001370				44.691111	-88.234781	-175.973516
00807	14699212	9.815078	0.246518	0.203556				-0.002274	0.001537	-0.001539				44.690725	-88.234027	-175.973691
00808	14699262	9.814952	0.240693	0.194592				-0.001466	-0.002687	0.000744				44.705207	-88.235362	-175.986327
00809	14699312	9.802834	0.259847	0.192118				-0.002906	0.001230	-0.002533				44.713077	-88.234555	-175.995004
00810	14699362	9.817500	0.233314	0.184402				-0.004823	0.000099	-0.001024				44.720217	-88.235091	-176.001331
00811	14699412	9.822340	0.228745	0.181699				-0.002571	-0.000417	-0.002733				44.740135	-88.234594	-176.021975
00812	14699462	9.842973	0.239793	0.172309				-0.003242	0.001611	-0.002083				44.745193	-88.234336	-176.025544
00813	14699512	9.814310	0.239676	0.188017				-0.003025	0.001906	-0.002626				44.749393	-88.233029	-176.030365
00814	14699562	9.833264	0.242170	0.198493				-0.001927	0.002228	0.004012				44.709875	-88.234562	-175.989444
00815	14699612	9.795341	0.245176	0.200732				-0.002846	-0.002711	-0.001141				44.734142	-88.235012	-176.014619
00816	14699662	9.800022	0.237618	0.190484				-0.005145	-0.000039	-0.004043				44.762134	-88.234666	-176.041709
00817	14699712	9.810794	0.246037	0.202946				-0.001553	0.004102	-0.002138				44.748961	-88.233282	-176.028900
00818	14699762	9.812099	0.249981	0.177274				-0.003688	0.002737	-0.001655				44.742913	-88.233651	-176.022057
00819	14699812	9.796023	0.248094	0.200013				-0.005561	-0.001389	0.005001				44.717563	-88.234833	-175.998216
00820	14699862	9.793175	0.259003	0.177323				-0.004289	0.001169	-0.001344				44.719836	-88.235086	-175.999530
00821	14699912	9.807801	0.258731	0.198556				-0.004859	-0.000450	0.002815				44.702943	-88.235709	-175.983999
00822	14699962	9.818162	0.237058	0.185394				-0.006884	0.001483	0.000422				44.690716	-88.236118	-175.971464
00823	14700012	9.818344	0.240931	0.186304				-0.003125	-0.000042	-0.001684				44.701206	-88.235926	-175.982943
00824	14700062	9.819980	0.244029	0.185604				-0.003320	0.000991	-0.001610				44.706837	-88.235801	-175.987058
00825	14700112	9.805758	0.238851	0.184378				-0.001061	-0.001556	-0.000604				44.720792	-88.235719	-176.001142
00826	14700162	9.820355	0.229938	0.192990				-0.006430	-0.001038	-0.002639				44.745570	-88.236436	-176.025748
00827	14700212	9.840963	0.237601	0.192621				-0.002082	-0.002807	-0.002761				44.781773	-88.236337	-176.062495
00828	14700262	9.836941	0.219780	0.187188				-0.002058	0.000692	-0.001778				44.790715	-88.236514	-176.069752
00829	14700312	9.822145	0.240191	0.189468				-0.003193	0.003552	0.001352				44.757730	-88.235800	-176.037498
00830	14700362	9.821494	0.243246	0.173134				-0.002041	0.001276	-0.000232				44.752617	-88.236391	-176.030827
00831	14700412	9.808713	0.246421	0.192839				-0.004061	0.001204	-0.001159				44.751113	-88.235987	-176.030528
00832	14700462	9.811604	0.248482	0.183113				-0.006318	0.003818	-0.001844				44.739091	-88.235350	-176.018005
00833	14700512	9.822343	0.254872	0.166145				-0.002383	-0.000487	-0.004571				44.771944	-88.234336	-176.051433
00834	14700562	9.824303	0.241299	0.185243				-0.002490	-0.002167	-0.003298				44.809907	-88.234577	-176.087750
00835	14700612	9.805601	0.250696	0.187162				-0.002427	0.001268	-0.001351				44.809883	-88.233995	-176.088393
00836	14700662	9.813753	0.247922	0.183860				0.000198	-0.001690	0.001218				44.815224	-88.235384	-176.091491
00837	14700712	9.835665	0.236849	0.204934				-0.003315	0.000858	-0.002129				44.822619	-88.234801	-176.099856
00838	14700762	9.819818	0.235386	0.189581				-0.005211	-0.001950	-0.000659				44.840770	-88.235745	-176.117271
00839	14700812	9.823311	0.244813	0.184382				-0.000728	0.001229	-0.001235				44.840708	-88.235159	-176.117367
00840	14700862	9.827009	0.237322	0.179600				-0.004337	0.001944	0.000226				44.827611	-88.235722	-176.103405
00841	14700912	9.829131	0.232688	0.190983				-0.002870	-0.000974	-0.000179				44.834350	-88.235854	-176.110955
00842	14700962	9.824812	0.250883	0.199943				-0.003206	0.001773	0.000446				44.821445	-88.236062	-176.096522
00843	14701012	9.814563	0.265974	0.208699				-0.005759	0.002238	-0.003236				44.826414	-88.235195	-176.103306
00844	14701062	9.818409	0.232928	0.192855				-0.003070	0.002453	-0.000416				44.814537	-88.235279	-176.090020
00845	14701112	9.846498	0.228457	0.202958				-0.004020	0.000883	-0.001995				44.820850	-88.234680	-176.097477
00846	14701162	9.835759	0.235551	0.193245				-0.001957	0.003767	-0.000992				44.804520	-88.234375	-176.079426
00847	14701212	9.802239	0.245440	0.202176				-0.005045	-0.000108	-0.001705				44.815087	-88.233890	-176.091334
00848	14701262	9.807466	0.251834	0.191868				-0.001092	0.000513	-0.001808				44.825542	-88.234291	-176.099974
00849	14701312	9.816739	0.245116	0.207205				-0.004636	0.002163	-0.003141				44.830645	-88.233322	-176.106486
00850	14701362	9.819247	0.246331	0.184499				-0.001125	0.004850	0.000717				44.796304	-88.233306	-176.070294
00851	14701412	9.816782	0.238413	0.174120				-0.003956	0.001081	0.000508				44.784960	-88.233232	-176.060109
00852	14701462	9.825356	0.248517	0.192254				-0.008833	-0.000948	-0.001671				44.802295	-88.233457	-176.077526
00853	14701512	9.814118	0.247411	0.201169				-0.004274	-0.002091	0.002128				44.800574	-88.234575	-176.077204
00854	14701562	9.827406	0.241925	0.182702				-0.004298	0.000851	0.002497				44.779875	-88.235193	-176.055222
00855	14701612	9.807516	0.252642	0.182039				-0.004689	-0.001130	0.000115				44.784974	-88.235632	-176.061792
00856	14701662	9.814371	0.255263	0.183948				-0.001985	0.000765	0.001270				44.774171	-88.235762	-176.048875
00857	14701712	9.818974	0.224096	0.194896				-0.005826	-0.000437	0.002270				44.760417	-88.236393	-176.036834
00858	14701762	9.827088	0.234121	0.172455				-0.002687	0.004494	0.000329				44.729979	-88.236459	-176.005065
00859	14701812	9.817060	0.267427	0.186260				-0.003549	0.000245	-0.001226				44.735678	-88.235966	-176.011661
00860	14701862	9.817917	0.247566	0.204595				-0.004666	0.003064	-0.003713				44.741231	-88.235530	-176.016463
00861	14701912	9.813444	0.251045	0.188787				-0.003429	0.003508	-0.002401				44.732876	-88.234757	-176.009359
00862	14701962	9.821250	0.252968	0.193224				-0.002033	0.000721	-0.002674				44.748149	-88.234215	-176.022624
00863	14702012	9.817776	0.242649	0.198797				-0.002152	0.001491	-0.002895				44.756905	-88.233282	-176.031969
00864	14702062	9.825745	0.234094	0.198205				-0.007433	-0.000372	0.001343				44.750856	-88.234287	-176.025797
00865	14702112	9.827188	0.243780	0.175235				-0.003074	-0.000746	-0.000948				44.761238	-88.234438	-176.037183
00866	14702162	9.809593	0.253399	0.190160				-0.000200	-0.000512	-0.004195				44.794311	-88.234388	-176.068101
00867	14702212	9.824120	0.239377	0.179607				-0.000931	0.001779	0.000017				44.782171	-88.234327	-176.056408
00868	14702262	9.813723	0.249685	0.184150				-0.003672	-0.000954	-0.001591				44.800545	-88.234442	-176.073341
00869	14702312	9.794087	0.258790	0.184186				-0.003523	-0.002433	0.001103				44.808148	-88.235223	-176.081998
00870	14702362	9.819603	0.235674	0.187100				-0.007240	0.002672	-0.000054				44.791446	-88.235584	-176.065242
00871	14702412	9.813442	0.251194	0.188665				-0.005415	-0.002535	0.000428				44.803796	-88.236283	-176.079206
00872	14702462	9.823139	0.236627	0.189910				-0.003991	0.003079	-0.001595				44.795529	-88.235623	-176.069577
00873	14702512	9.814256	0.246811	0.180363				-0.000969	0.000911	0.001140				44.781473	-88.235775	-176.055862
00874	14702562	9.807225	0.255602	0.183218				-0.002244	-0.001610	-0.003136				44.814660	-88.235919	-176.087294
00875	14702612	9.814659	0.242688	0.200925				-0.001609	-0.000140	0.000302				44.812962	-88.236049	-176.086085
00876	14702662	9.826405	0.257435	0.197512				-0.000144	0.000920	-0.000687				44.814203	-88.236275	-176.085032
00877	14702712	9.811431	0.249495	0.170821				-0.002623	0.002626	0.000738				44.791159	-88.236025	-176.062815
00878	14702762	9.818222	0.251362	0.185879				-0.001920	0.001436	-0.002413				44.799600	-88.235678	-176.069364
00879	14702812	9.811625	0.250162	0.176335				-0.006673	0.002007	0.001451				44.775214	-88.235539	-176.046863
00880	14702862	9.820736	0.241649	0.183250				-0.002039	0.002345	0.000701				44.756723	-88.236107	-176.026806
00881	14702912	9.835244	0.228512	0.174750				-0.003009	0.001285	-0.001548				44.757565	-88.235701	-176.028620
00882	14702962	9.814784	0.240870	0.184731				-0.001100	0.002944	0.000381				44.738052	-88.235260	-176.006768
00883	14703012	9.826512	0.247854	0.199922				-0.001182	0.000449	-0.000271				44.736730	-88.234872	-176.005629
00884	14703062	9.836992	0.226093	0.204233				-0.003593	0.000826	0.001211				44.724290	-88.236243	-175.992340
00885	14703112	9.793597	0.260252	0.182691				-0.004148	0.003377	0.002190				44.686619	-88.235897	-175.955783
00886	14703162	9.789786	0.255580	0.193140				-0.004221	0.000433	0.001182				44.677053	-88.236872	-175.945271
00887	14703212	9.806931	0.260736	0.182572				-0.003029	0.000962	-0.002925				44.689067	-88.236103	-175.958176
00888	14703262	9.804540	0.256077	0.193790				-0.000250	-0.000093	-0.004127				44.719418	-88.235727	-175.986190
00889	14703312	9.815132	0.247647	0.191104				-0.004805	0.000579	-0.001030				44.720898	-88.235675	-175.989233
00890	14703362	9.812027	0.233864	0.182084				-0.007411	0.002532	-0.003997				44.731359	-88.234729	-175.999370
00891	14703412	9.821838	0.242757	0.193898				-0.004438	-0.003035	0.000101				44.749318	-88.235312	-176.018576
00892	14703462	9.817739	0.245997	0.198026				-0.004411	0.000029	-0.003861				44.775757	-88.234979	-176.043889
00893	14703512	9.829257	0.240415	0.195144				-0.002353	-0.000058	-0.001170				44.783069	-88.234808	-176.051916
00894	14703562	9.815022	0.241346	0.184185				-0.005643	-0.000338	0.000667				44.781420	-88.235846	-176.049725
00895	14703612	9.809843	0.252158	0.191399				-0.003462	0.001569	-0.002539				44.787003	-88.234916	-176.056241
00896	14703662	9.821451	0.238532	0.189733				-0.002363	0.003238	-0.001762				44.779305	-88.234703	-176.047036
00897	14703712	9.797636	0.245570	0.175623				-0.006275	0.001297	-0.001021				44.775885	-88.233962	-176.045237
00898	14703762	9.828932	0.247540	0.193912				-0.000915	0.001103	-0.000622				44.774851	-88.234160	-176.042119
00899	14703812	9.832295	0.240392	0.202482				-0.001953	-0.000767	-0.002366				44.794857	-88.233867	-176.062716
00900	14703862	9.811471	0.259805	0.182003				-0.005436	-0.000819	-0.000429				44.803871	-88.234763	-176.071126
00901	14703912	9.825316	0.234478	0.188471				-0.005527	0.001250	0.002692				44.776428	-88.235010	-176.045230
00902	14703962	9.829451	0.253998	0.174234				0.002903	-0.001124	0.000253				44.784989	-88.236085	-176.050799
00903	14704012	9.831952	0.239396	0.184263				-0.002170	-0.000833	-0.000117				44.790647	-88.236238	-176.057087
00904	14704062	9.800024	0.253224	0.197488				-0.003076	0.001747	0.002084				44.766448	-88.237575	-176.031868
00905	14704112	9.819261	0.244164	0.185828				-0.003761	0.001087	0.001759				44.746435	-88.237745	-176.012949
00906	14704162	9.799506	0.256862	0.197783				-0.004792	0.004297	-0.000499				44.723125	-88.237089	-175.988526
00907	14704212	9.811539	0.245606	0.199729				-0.002626	-0.001614	-0.000603				44.736927	-88.237370	-176.003134
00908	14704262	9.801389	0.243946	0.186973				-0.006631	-0.003327	0.002582				44.742101	-88.239111	-176.007879
00909	14704312	9.813524	0.234701	0.170304				0.000434	0.001994	-0.001776				44.741020	-88.238154	-176.006548
00910	14704362	9.814999	0.261733	0.185393				-0.000031	0.000501	-0.000467				44.743385	-88.238446	-176.006539
00911	14704412	9.823992	0.243026	0.192718				-0.001258	-0.001238	-0.000797				44.756215	-88.238704	-176.019852
00912	14704462	9.833840	0.211778	0.203727				0.001033	-0.000136	-0.003718				44.784454	-88.238823	-176.045620
00913	14704512	9.810865	0.237474	0.171754				-0.003657	0.000563	-0.002383				44.795489	-88.238218	-176.057701
00914	14704562	9.819154	0.247320	0.196327				-0.001832	-0.001240	0.000746				44.800558	-88.239131	-176.060935
00915	14704612	9.815323	0.259818	0.175587				-0.003581	0.002114	-0.003337				44.807677	-88.237893	-176.069001
00916	14704662	9.814935	0.248490	0.183103				-0.007223	0.004220	0.000246				44.778586	-88.237932	-176.039812
00917	14704712	9.810458	0.239514	0.194554				-0.005820	0.002978	-0.004318				44.785918	-88.236218	-176.048664
00918	14704762	9.819039	0.240049	0.191522				-0.005349	-0.001626	0.000949				44.791248	-88.237415	-176.053246
00919	14704812	9.824012	0.237416	0.201701				-0.002518	0.003071	-0.002021				44.783864	-88.236351	-176.046559
00920	14704862	9.810194	0.236517	0.204599				-0.003945	0.001790	-0.000771				44.778156	-88.236863	-176.039969
00921	14704912	9.823953	0.248489	0.189451				-0.004830	0.002423	-0.000893				44.766875	-88.236241	-176.030098
00922	14704962	9.802985	0.242091	0.202760				-0.007112	0.002640	-0.000759				44.754993	-88.236073	-176.017893
00923	14705012	9.835431	0.241539	0.195767				-0.000702	-0.001072	-0.004841				44.793658	-88.235624	-176.056983
00924	14705062	9.808998	0.268796	0.178177				-0.003230	-0.000522	0.001074				44.791773	-88.235814	-176.053200
00925	14705112	9.798181	0.248334	0.197415				-0.001296	0.000796	-0.003219				44.807511	-88.234857	-176.069226
00926	14705162	9.814540	0.237433	0.193209				-0.003092	-0.001073	-0.001109				44.823089	-88.236152	-176.083908
00927	14705212	9.817084	0.228284	0.185599				-0.004000	0.001431	-0.001669				44.823601	-88.235368	-176.085463
00928	14705262	9.819945	0.248622	0.180492				-0.002677	-0.001070	-0.001915				44.844954	-88.235699	-176.105219
00929	14705312	9.825841	0.235322	0.178633				-0.003128	0.001359	0.002430				44.819041	-88.235983	-176.080231
00930	14705362	9.802014	0.263683	0.201205				-0.003935	0.000305	-0.000038				44.818987	-88.236405	-176.078919
00931	14705412	9.812951	0.243453	0.206066				-0.003365	0.002377	-0.004043				44.829004	-88.235213	-176.089975
00932	14705462	9.799429	0.246674	0.191588				-0.008377	-0.000773	0.001637				44.822871	-88.236575	-176.084124
00933	14705512	9.827308	0.231646	0.180848				-0.004069	0.002459	-0.003335				44.827941	-88.235083	-176.090154
00934	14705562	9.819120	0.253174	0.189895				-0.002043	0.000437	0.001048				44.819622	-88.236241	-176.080389
00935	14705612	9.808337	0.241020	0.187606				-0.004711	0.002651	-0.001340				44.809554	-88.235652	-176.071809
00936	14705662	9.832405	0.236238	0.195683				-0.002221	0.003785	-0.004427				44.815746	-88.234598	-176.076349
00937	14705712	9.809165	0.246417	0.196456				-0.006083	0.000998	-0.005613				44.844538	-88.233129	-176.106808
00938	14705762	9.822684	0.236443	0.186099				-0.004429	0.002848	-0.000733				44.832025	-88.233083	-176.093317
00939	14705812	9.815055	0.253339	0.193049				-0.005526	0.000888	-0.001474				44.834112	-88.232602	-176.096994
00940	14705862	9.813569	0.237890	0.195694				-0.002815	0.000223	-0.001940				44.847392	-88.232647	-176.108707
00941	14705912	9.801767	0.253716	0.183946				-0.001916	-0.000468	0.001490				44.840043	-88.233066	-176.101923
00942	14705962	9.813555	0.245174	0.183456				-0.002813	0.002157	-0.002729				44.845627	-88.232636	-176.105982
00943	14706012	9.812764	0.253774	0.176474				-0.006022	-0.001705	0.000247				44.853554	-88.232912	-176.115561
00944	14706062	9.828184	0.232573	0.191201				-0.005119	-0.002852	-0.000378				44.875732	-88.234035	-176.136925
00945	14706112	9.822445	0.231589	0.197805				-0.003217	0.000732	-0.001873				44.882435	-88.233306	-176.144419
00946	14706162	9.833487	0.227968	0.190797				-0.002207	0.000399	-0.000720				44.886074	-88.234339	-176.146821
00947	14706212	9.820936	0.244588	0.183764				-0.002868	0.003970	-0.002300				44.874426	-88.232957	-176.135917
00948	14706262	9.811172	0.241719	0.189875				-0.006527	-0.001004	-0.001708				44.892806	-88.233559	-176.153957
00949	14706312	9.828479	0.240735	0.203719				-0.003083	-0.001363	-0.000856				44.906401	-88.233737	-176.168495
00950	14706362	9.826464	0.233976	0.197268				-0.003450	-0.000986	-0.001717				44.925847	-88.233937	-176.186477
00951	14706412	9.798467	0.244752	0.197679				-0.004116	0.000913	-0.001864				44.930722	-88.233652	-176.192714
00952	14706462	9.809305	0.247620	0.209683				-0.003008	0.000348	-0.002544				44.946820	-88.233558	-176.207317
00953	14706512	9.813242	0.230882	0.184766				-0.002425	0.004270	-0.001500				44.927850	-88.232674	-176.189215
00954	14706562	9.795968	0.250609	0.203705				-0.004089	0.001106	-0.001799				44.934060	-88.232450	-176.194153
00955	14706612	9.821365	0.243190	0.195468				-0.005614	0.002726	-0.002365				44.930404	-88.231236	-176.191979
00956	14706662	9.812613	0.240476	0.191170				-0.003956	0.002215	0.000001				44.916792	-88.231836	-176.177479
00957	14706712	9.834381	0.238429	0.179084				-0.003707	0.001108	-0.002994				44.928035	-88.230999	-176.189789
00958	14706762	9.810015	0.258039	0.190494				-0.004572	0.003329	-0.000793				44.912580	-88.230850	-176.173373
00959	14706812	9.818981	0.248747	0.183935				-0.004117	0.001980	-0.000383				44.900912	-88.230385	-176.162892
00960	14706862	9.824025	0.241643	0.192068				-0.002417	0.002813	-0.003017				44.904560	-88.229504	-176.164734
00961	14706912	9.828579	0.226364	0.177883				-0.005455	0.001057	0.001891				44.883791	-88.229487	-176.145396
00962	14706962	9.826596	0.244485	0.192207				-0.005063	-0.000822	-0.003346				44.912037	-88.229738	-176.172867
00963	14707012	9.818668	0.251026	0.190126				-0.008193	-0.000744	-0.000934				44.920708	-88.229591	-176.183819
00964	14707062	9.819992	0.264002	0.181304				-0.003024	0.003131	-0.000478				44.904460	-88.229935	-176.166438
00965	14707112	9.820895	0.261949	0.194173				-0.002698	0.001647	-0.002345				44.908022	-88.229445	-176.170985
00966	14707162	9.831030	0.232709	0.192571				-0.002161	0.002885	-0.002537				44.908000	-88.228821	-176.169221
00967	14707212	9.810081	0.244795	0.205530				-0.005112	-0.000171	-0.001644				44.918410	-88.228428	-176.181041
00968	14707262	9.808290	0.252623	0.170546				-0.002730	-0.000352	-0.000817				44.927957	-88.228719	-176.188926
00969	14707312	9.828055	0.222961	0.193179				-0.002404	0.000359	-0.002259				44.939778	-88.228202	-176.201447
00970	14707362	9.827503	0.233724	0.182966				-0.000892	0.001392	-0.000785				44.937602	-88.228499	-176.197297
00971	14707412	9.823160	0.255167	0.188664				-0.005618	-0.000149	-0.001287				44.945517	-88.228144	-176.206736
00972	14707462	9.826047	0.231899	0.191716				-0.004008	-0.002608	-0.001021				44.970329	-88.229490	-176.230674
00973	14707512	9.802852	0.239978	0.190242				-0.008663	-0.000170	-0.001093				44.976150	-88.229157	-176.238890
00974	14707562	9.819471	0.250348	0.178820				-0.003455	-0.001021	-0.004572				45.014364	-88.229081	-176.275844
00975	14707612	9.806128	0.249672	0.181039				-0.005042	-0.002501	-0.003804				45.054101	-88.228947	-176.317128
00976	14707662	9.808969	0.250426	0.181749				-0.001745	-0.000378	-0.004769				45.090047	-88.228216	-176.350996
00977	14707712	9.810603	0.248273	0.191374				-0.003269	-0.000591	-0.000530				45.096141	-88.228515	-176.358214
00978	14707762	9.822934	0.242793	0.172112				-0.004911	-0.001264	-0.000305				45.107494	-88.229246	-176.368683
00979	14707812	9.832361	0.244453	0.186268				-0.004960	0.002156	-0.002754				45.109780	-88.228345	-176.372449
00980	14707862	9.798165	0.250726	0.196766				-0.001926	0.001562	-0.002508				45.117733	-88.228397	-176.378831
00981	14707912	9.827083	0.241308	0.197534				-0.003889	0.002053	-0.000259				45.104956	-88.228035	-176.367231
00982	14707962	9.812978	0.252252	0.184242				-0.002274	0.002597	-0.000351				45.092199	-88.227642	-176.352572
00983	14708012	9.810400	0.254153	0.173570				-0.004541	-0.003141	-0.004291				45.139600	-88.227237	-176.401184
00984	14708062	9.805641	0.244865	0.192366				-0.003225	0.000384	0.001048				45.131772	-88.227966	-176.391987
00985	14708112	9.831196	0.207958	0.177736				0.000215	0.003967	0.000577				45.102075	-88.227355	-176.362263
00986	14708162	9.830688	0.240267	0.194417				-0.005677	0.002465	-0.002398				45.101931	-88.227435	-176.361734
00987	14708212	9.818777	0.246907	0.181525				-0.007784	0.000466	0.001445				45.086936	-88.227908	-176.349142
00988	14708262	9.812469	0.228308	0.199621				-0.005912	0.005179	-0.001711				45.065249	-88.226676	-176.326550
00989	14708312	9.831548	0.235516	0.180530				-0.005901	0.002494	-0.003488				45.070068	-88.225441	-176.333051
00990	14708362	9.812285	0.281866	0.198054				-0.002940	-0.000549	0.001590				45.065125	-88.226270	-176.326518
00991	14708412	9.820972	0.250926	0.203787				-0.006259	0.000840	-0.002117				45.071429	-88.225680	-176.334634
00992	14708462	9.819614	0.249059	0.196151				-0.004739	0.000485	0.000027				45.069246	-88.226342	-176.331611
00993	14708512	9.792919	0.272527	0.190210				-0.001400	-0.001849	-0.000410				45.083663	-88.226643	-176.346450
00994	14708562	9.812707	0.249247	0.195384				-0.002811	-0.001717	-0.000311				45.098488	-88.227751	-176.359921
00995	14708612	9.822708	0.243243	0.207636				-0.007577	0.000010	-0.002184				45.110573	-88.227221	-176.374125
00996	14708662	9.809302	0.235008	0.197702				-0.003461	0.002404	-0.003913				45.122088	-88.226063	-176.383999
00997	14708712	9.819026	0.252380	0.167577				-0.001458	-0.001339	-0.003460				45.152954	-88.225730	-176.415370
00998	14708762	9.806035	0.233162	0.190949				-0.003322	0.000989	-0.003412				45.170214	-88.225803	-176.431516
00999	14708812	9.808382	0.254719	0.191427				0.001956	0.001407	-0.002201				45.175861	-88.225025	-176.436577
01000	14708862	9.806966	0.249192	0.161179				-0.001149	0.000252	-0.001940				45.189029	-88.225234	-176.447789
01001	14708912	9.816666	0.239001	0.191799				-0.005991	-0.000176	0.003747				45.163932	-88.226030	-176.424400
01002	14708962	9.817710	0.252795	0.188690				-0.003029	-0.000174	-0.003671				45.190406	-88.226157	-176.449625
01003	14709012	9.827547	0.215529	0.174588				-0.002637	0.002883	0.000223				45.169322	-88.225449	-176.429173
01004	14709062	9.821786	0.234588	0.182262				-0.002537	0.001782	-0.000138				45.160422	-88.225548	-176.418605
01005	14709112	9.814442	0.248001	0.187939				-0.001521	-0.000302	-0.002614				45.179014	-88.225103	-176.437657
01006	14709162	9.820162	0.243877	0.195205				-0.007069	0.002085	-0.001694				45.176753	-88.225061	-176.435216
01007	14709212	9.830674	0.235278	0.206707				-0.003507	0.003126	-0.000381				45.157869	-88.224085	-176.417148
01008	14709262	9.794476	0.261826	0.191874				-0.003298	-0.003725	-0.000384				45.186439	-88.225764	-176.444640
01009	14709312	9.805695	0.257666	0.195521				-0.001554	0.002156	-0.000867				45.177605	-88.225060	-176.436180
01010	14709362	9.812707	0.245786	0.202610				-0.003324	-0.000851	-0.001430				45.193759	-88.225893	-176.451237
01011	14709412	9.815500	0.241877	0.182075				-0.007910	0.001462	-0.001115				45.189155	-88.225361	-176.448896
01012	14709462	9.818111	0.240890	0.186460				-0.002509	-0.001354	-0.001433				45.209386	-88.225876	-176.467511
01013	14709512	9.811962	0.251894	0.195515				-0.001341	0.003285	-0.002760				45.205645	-88.224451	-176.464019
01014	14709562	9.822803	0.241091	0.197582				-0.006353	0.000742	-0.002410				45.216905	-88.224658	-176.474946
01015	14709612	9.820487	0.221518	0.187843				-0.003751	0.004633	-0.002555				45.202363	-88.222913	-176.461278
01016	14709662	9.803236	0.228983	0.189511				-0.001054	0.000550	0.000370				45.198425	-88.223610	-176.455423
01017	14709712	9.817078	0.229280	0.184250				-0.003522	0.003612	-0.000697				45.178221	-88.222628	-176.436146
01018	14709762	9.812547	0.249207	0.182552				-0.005302	0.004161	-0.000659				45.156462	-88.222584	-176.413802
01019	14709812	9.815180	0.249276	0.180837				-0.003511	0.000955	-0.001705				45.160391	-88.222022	-176.418718
01020	14709862	9.817388	0.245270	0.177492				-0.001911	0.000274	-0.000085				45.160960	-88.222626	-176.417586
01021	14709912	9.809783	0.256704	0.192182				0.000153	0.003158	0.002746				45.122380	-88.222681	-176.379028
01022	14709962	9.821660	0.234546	0.202127				-0.004324	0.000293	-0.002108				45.135436	-88.222890	-176.391101
01023	14710012	9.824906	0.232429	0.182948				-0.000091	0.000605	0.003020				45.111617	-88.223427	-176.367334
01024	14710062	9.815763	0.243969	0.212163				-0.005927	-0.001344	0.002608				45.104576	-88.224483	-176.359446
01025	14710112	9.820317	0.232268	0.193112				-0.003966	0.003441	-0.000869				45.086553	-88.223630	-176.342562
01026	14710162	9.816634	0.240334	0.195210				-0.003949	0.000620	-0.003803				45.108490	-88.223601	-176.363492
01027	14710212	9.824906	0.251981	0.180974				-0.004742	-0.000618	-0.001592				45.121722	-88.223347	-176.378053
01028	14710262	9.830447	0.223153	0.191080				-0.001138	0.001965	-0.001331				45.120011	-88.223145	-176.374255
01029	14710312	9.817092	0.247853	0.182081				-0.000289	0.002796	-0.000012				45.101564	-88.222667	-176.355942
01030	14710362	9.814161	0.239612	0.172201				-0.004946	-0.000066	0.000175				45.101224	-88.224213	-176.355300
01031	14710412	9.836245	0.254753	0.191006				-0.007207	0.001667	-0.000357				45.090305	-88.224080	-176.346631
01032	14710462	9.822098	0.245481	0.187695				0.001666	0.000268	-0.003080				45.112294	-88.223454	-176.365449
01033	14710512	9.808908	0.247253	0.198832				-0.005855	0.000104	-0.002998				45.129452	-88.222848	-176.384302
01034	14710562	9.828546	0.241148	0.192257				-0.001614	0.001121	0.001007				45.117767	-88.223060	-176.370522
01035	14710612	9.827860	0.252287	0.203024				-0.000524	-0.000291	-0.003786				45.144166	-88.222242	-176.397011
01036	14710662	9.831628	0.226223	0.186039				-0.001105	0.002868	-0.004761				45.158548	-88.221530	-176.409531
01037	14710712	9.836555	0.246254	0.195830				-0.004172	0.003624	-0.003336				45.155483	-88.219852	-176.407486
01038	14710762	9.807929	0.251556	0.193771				-0.004720	-0.000066	-0.000823				45.161985	-88.220922	-176.413427
01039	14710812	9.806529	0.251090	0.190457				-0.005211	0.000155	-0.000013				45.159489	-88.220859	-176.412403
01040	14710862	9.816563	0.252243	0.182778				-0.001138	0.002396	0.001559				45.135949	-88.221137	-176.386745
01041	14710912	9.820497	0.245209	0.215501				-0.003922	0.000107	0.000367				45.131834	-88.221124	-176.383713
01042	14710962	9.827905	0.234005	0.194652				0.000140	0.000048	-0.001927				45.146675	-88.221032	-176.396004
01043	14711012	9.842983	0.226574	0.196158				-0.002223	0.004085	-0.000773				45.123988	-88.220266	-176.374088
01044	14711062	9.816078	0.236522	0.176674				-0.006372	-0.001711	-0.000441				45.138892	-88.221121	-176.388521
01045	14711112	9.825617	0.251234	0.183899				-0.004023	0.002079	-0.001965				45.136682	-88.220490	-176.387587
01046	14711162	9.822278	0.234118	0.179813				-0.004299	-0.000186	0.001071				45.132369	-88.221275	-176.382139
01047	14711212	9.810942	0.237613	0.196563				-0.001632	-0.002834	-0.003345				45.171932	-88.221372	-176.422331
01048	14711262	9.813100	0.247299	0.174853				-0.003918	0.001524	-0.005145				45.196926	-88.220730	-176.446200
01049	14711312	9.791665	0.240679	0.189758				-0.005855	0.000402	-0.000393				45.195193	-88.220513	-176.446104
01050	14711362	9.821750	0.233033	0.192561				-0.004172	0.001720	-0.001618				45.195361	-88.220602	-176.445297
01051	14711412	9.824754	0.231099	0.171459				-0.004867	0.001123	-0.003704				45.210829	-88.219506	-176.462086
01052	14711462	9.813426	0.240742	0.173607				-0.002500	-0.002513	0.000123				45.228325	-88.220566	-176.477916
01053	14711512	9.839903	0.226350	0.196000				-0.004563	-0.001330	-0.002335				45.250957	-88.220311	-176.501841
01054	14711562	9.831102	0.242671	0.199628				-0.000932	-0.000256	0.001092				45.247703	-88.221356	-176.496641
01055	14711612	9.809200	0.260044	0.202607				-0.001460	-0.001047	-0.002374				45.269447	-88.221121	-176.518838
01056	14711662	9.796774	0.263609	0.202688				-0.003511	0.000215	-0.000851				45.275172	-88.221392	-176.523201
01057	14711712	9.813457	0.231798	0.187563				-0.004113	0.001948	-0.000906				45.267133	-88.220813	-176.516341
01058	14711762	9.797228	0.243488	0.169108				-0.005567	-0.001825	-0.000151				45.281118	-88.221840	-176.529640
01059	14711812	9.807058	0.245080	0.193382				-0.002392	0.002498	0.001052				45.257187	-88.221589	-176.506404
01060	14711862	9.822056	0.229554	0.187530				-0.005077	0.000897	-0.001201				45.259979	-88.221855	-176.508375
01061	14711912	9.817605	0.243874	0.184622				-0.004484	-0.000777	-0.003937				45.289487	-88.221041	-176.539071
01062	14711962	9.815831	0.248586	0.193281				-0.000122	0.000270	-0.002404				45.305568	-88.221875	-176.553383
01063	14712012	9.823922	0.237321	0.177137				-0.003581	-0.000858	-0.001858				45.322504	-88.221263	-176.571086
01064	14712062	9.833879	0.239315	0.180698				-0.004611	-0.001944	-0.004073				45.362802	-88.221689	-176.610578
01065	14712112	9.819529	0.240464	0.187721				-0.006388	-0.000294	-0.002068				45.376425	-88.221159	-176.625931
01066	14712162	9.835904	0.224212	0.192408				-0.003193	-0.001112	-0.002564				45.401848	-88.221609	-176.650048
01067	14712212	9.828303	0.233802	0.208592				-0.001362	0.000995	-0.001497				45.404731	-88.220965	-176.653231
01068	14712262	9.819385	0.245940	0.201727				-0.006736	0.003708	-0.003745				45.405047	-88.220370	-176.653369
01069	14712312	9.814509	0.238828	0.195020				-0.003368	0.003605	-0.001575				45.390620	-88.219386	-176.639941
01070	14712362	9.826163	0.233824	0.206398				-0.000827	0.000195	-0.002269				45.406286	-88.219464	-176.653520
01071	14712412	9.820133	0.236125	0.176261				-0.003209	-0.000495	-0.002079				45.422086	-88.219372	-176.670400
01072	14712462	9.795361	0.249895	0.188838				-0.001781	0.001923	-0.003762				45.436076	-88.218475	-176.682379
01073	14712512	9.810038	0.261860	0.215491				-0.002375	-0.002117	0.002724				45.431619	-88.219595	-176.678696
01074	14712562	9.791121	0.257051	0.205373				-0.003859	0.001181	0.000151				45.424706	-88.219853	-176.670452
01075	14712612	9.799902	0.254783	0.175923				-0.003293	0.002415	-0.001097				45.414950	-88.219092	-176.661600
01076	14712662	9.816242	0.241895	0.178193				-0.002184	0.000726	-0.000153				45.412952	-88.219776	-176.658093
01077	14712712	9.816619	0.242618	0.192095				-0.005563	0.001082	-0.001584				45.414567	-88.218994	-176.661140
01078	14712762	9.796433	0.254236	0.199135				-0.002449	-0.001064	-0.002146				45.437058	-88.219937	-176.682422
01079	14712812	9.820084	0.242876	0.171135				-0.002189	-0.002552	-0.003823				45.477653	-88.219938	-176.723837
01080	14712862	9.819143	0.253758	0.186067				-0.002058	0.001596	-0.003093				45.489769	-88.219099	-176.733898
01081	14712912	9.814201	0.244027	0.196195				-0.003862	0.004218	-0.000798				45.466431	-88.217817	-176.711479
01082	14712962	9.801412	0.257595	0.196034				-0.002605	0.002879	-0.000998				45.455223	-88.218017	-176.698947
01083	14713012	9.816683	0.261275	0.183232				-0.003135	-0.000585	0.000969				45.452121	-88.218235	-176.696676
01084	14713062	9.827888	0.234763	0.157286				-0.003030	0.002325	0.000151				45.437762	-88.218189	-176.680715
