// General information: 
//  MT Manager version: 2022.0.0 
//  XDA version: 2022.0.0 build 7085 rev 119802 built on 2022-11-08
// Device information: 
//  DeviceId: 037004D1
//  ProductCode: MTi-300-2A5G4
//  Firmware Version: 1.4.1
//  Hardware Version: 2.1.0
// Device settings: 
//  Filter Profile: general(39.16)
//  Option Flags: Orientation Smoother Disabled, Position/Velocity Smoother Disabled, Continuous Zero Rotation Update Disabled, AHS Disabled, ICC Disabled
// Coordinate system: ENU
PacketCounter	SampleTimeFine	Acc_X	Acc_Y	Acc_Z	AccHR_X	AccHR_Y	AccHR_Z	Gyr_X	Gyr_Y	Gyr_Z	GyrHR_X	GyrHR_Y	GyrHR_Z	Roll	Pitch	Yaw
00001	575024	-0.230578	9.807350	0.302021				0.000643	-0.001042	-0.003133				87.907159	1.701706	-41.335451
00002	575074	-0.237989	9.790912	0.315836				-0.002288	0.000593	-0.001094				87.908894	1.701069	-41.336090
00003	575124	-0.237040	9.796678	0.312273				-0.003554	-0.001661	0.000852				87.907866	1.700808	-41.336560
00004	575174	-0.239835	9.817168	0.319495				-0.006526	-0.000363	-0.004490				87.908393	1.701130	-41.337508
00005	575224	-0.238407	9.809308	0.307151				-0.000921	-0.001130	-0.000370				87.908119	1.701222	-41.337842
00006	575274	-0.272568	9.820184	0.328728				-0.003551	0.000853	-0.004938				87.909487	1.701681	-41.338433
00007	575324	-0.262617	9.803263	0.326213				-0.008973	-0.000991	-0.005546				87.906914	1.703259	-41.338774
00008	575374	-0.262212	9.817694	0.313631				-0.005896	-0.000063	-0.005063				87.907612	1.703748	-41.339653
00009	575424	-0.263474	9.808121	0.317870				-0.002673	0.000781	-0.001029				87.906857	1.704052	-41.339446
00010	575474	-0.278050	9.824653	0.326586				-0.004124	0.000040	-0.002246				87.908078	1.703730	-41.340257
00011	575524	-0.275962	9.814390	0.316484				-0.003776	0.001178	-0.002050				87.907011	1.704327	-41.339942
00012	575574	-0.275658	9.803794	0.327504				-0.002905	0.000932	-0.002084				87.908560	1.703970	-41.340480
00013	575624	-0.262001	9.812393	0.334476				-0.006450	0.001582	-0.002681				87.906729	1.704758	-41.340054
00014	575674	-0.274073	9.804708	0.330678				-0.004445	-0.002266	-0.004312				87.907815	1.704993	-41.341571
00015	575724	-0.267644	9.823338	0.312395				-0.001946	-0.000015	-0.001483				87.907263	1.705419	-41.341595
00016	575774	-0.250323	9.800388	0.322138				-0.004732	-0.000002	-0.000195				87.908313	1.704512	-41.342389
00017	575824	-0.249749	9.814877	0.321560				-0.007588	0.001209	-0.002010				87.906163	1.705102	-41.342071
00018	575874	-0.241259	9.811747	0.315880				-0.005644	-0.002098	-0.006168				87.906894	1.705874	-41.343520
00019	575924	-0.243590	9.815252	0.333122				-0.003955	-0.000986	0.002297				87.905753	1.705207	-41.343776
00020	575974	-0.234571	9.794222	0.319633				-0.003542	0.000825	-0.002954				87.907145	1.705095	-41.344376
00021	576024	-0.230663	9.799778	0.347385				-0.002556	-0.000899	-0.000177				87.906407	1.705141	-41.344631
00022	576074	-0.222540	9.803341	0.338064				-0.004455	0.000425	0.000802				87.907539	1.703942	-41.345318
00023	576124	-0.225674	9.810874	0.323586				-0.000955	0.000097	-0.000108				87.907265	1.703975	-41.345294
00024	576174	-0.231432	9.800946	0.316533				-0.004031	0.002337	-0.000186				87.908535	1.703077	-41.345429
00025	576224	-0.226256	9.798931	0.328503				-0.005165	-0.000596	-0.001708				87.907047	1.703561	-41.345618
00026	576274	-0.264328	9.812843	0.318451				-0.006197	-0.002459	-0.003283				87.907660	1.703502	-41.347188
00027	576324	-0.274543	9.834979	0.336702				-0.006860	-0.001293	0.002792				87.905685	1.702687	-41.347532
00028	576374	-0.253249	9.801676	0.329009				-0.000681	0.002458	-0.003205				87.907889	1.702648	-41.347653
00029	576424	-0.258064	9.793791	0.328601				-0.002851	0.000589	0.001955				87.907083	1.702096	-41.347463
00030	576474	-0.276380	9.820477	0.337309				-0.001501	0.002219	-0.000830				87.909064	1.701388	-41.347642
00031	576524	-0.278386	9.818981	0.324906				-0.003981	-0.001443	-0.000843				87.907915	1.701613	-41.348070
00032	576574	-0.277473	9.807455	0.334456				-0.002521	-0.001629	0.004447				87.909552	1.699339	-41.349292
00033	576624	-0.262333	9.802270	0.329358				-0.002597	0.000162	-0.003952				87.908809	1.700472	-41.349286
00034	576674	-0.244479	9.793675	0.331656				-0.002792	-0.000448	0.000537				87.910415	1.699339	-41.350241
00035	576724	-0.264295	9.811464	0.331316				-0.003217	-0.001299	-0.000847				87.909482	1.699569	-41.350619
00036	576774	-0.270545	9.814948	0.330866				-0.003899	0.003118	-0.000947				87.910786	1.698893	-41.350533
00037	576824	-0.247421	9.810761	0.344473				-0.006872	0.002031	0.000175				87.908824	1.698866	-41.349947
00038	576874	-0.227525	9.789833	0.317509				-0.005008	0.000510	-0.001864				87.909784	1.698423	-41.350641
00039	576924	-0.234968	9.812450	0.321541				-0.002094	0.000723	-0.000098				87.909193	1.698461	-41.350439
00040	576974	-0.232452	9.802649	0.344504				-0.002050	0.002076	-0.003690				87.911014	1.698553	-41.350704
00041	577024	-0.230117	9.788610	0.317938				-0.002941	0.001256	0.000191				87.910173	1.698511	-41.350340
00042	577074	-0.235602	9.810231	0.311526				-0.003749	0.000144	-0.001318				87.911487	1.697897	-41.351130
00043	577124	-0.246520	9.802203	0.315556				-0.001574	-0.002924	-0.003200				87.911009	1.698783	-41.352000
00044	577174	-0.240688	9.791059	0.319426				-0.003987	-0.000475	-0.001970				87.912251	1.698356	-41.352958
00045	577224	-0.228906	9.804019	0.304107				-0.005143	0.000633	-0.003789				87.910783	1.699446	-41.352823
00046	577274	-0.256394	9.822601	0.338563				-0.000167	0.001729	-0.000679				87.913142	1.698677	-41.353187
00047	577324	-0.252526	9.807254	0.321414				-0.003764	-0.000241	-0.000806				87.912061	1.698902	-41.353268
00048	577374	-0.277936	9.834450	0.337395				-0.004153	0.000071	-0.001764				87.913249	1.698422	-41.354072
00049	577424	-0.270010	9.814636	0.321268				-0.003823	0.001594	-0.002817				87.912160	1.699242	-41.353642
00050	577474	-0.272099	9.821826	0.329903				-0.003042	-0.000880	-0.002063				87.913676	1.698833	-41.354741
00051	577524	-0.269003	9.810511	0.312393				-0.005979	0.001912	-0.002936				87.911980	1.699692	-41.354226
00052	577574	-0.281958	9.814990	0.319173				-0.002250	0.001429	-0.002594				87.913746	1.699467	-41.354656
00053	577624	-0.280806	9.818642	0.329456				-0.002945	0.001357	-0.000893				87.912915	1.699736	-41.354278
00054	577674	-0.285829	9.815406	0.319866				-0.000984	-0.001363	-0.004638				87.914998	1.700052	-41.355520
00055	577724	-0.282721	9.818078	0.318034				-0.004400	0.000418	-0.004263				87.913738	1.701272	-41.355445
00056	577774	-0.270241	9.809874	0.322016				-0.006083	0.000068	-0.002948				87.914384	1.701138	-41.356253
00057	577824	-0.249459	9.779390	0.346220				-0.006425	0.004110	-0.000104				87.912580	1.701211	-41.355081
00058	577874	-0.260856	9.818724	0.325036				-0.003130	0.000896	-0.002852				87.914083	1.701050	-41.355660
00059	577924	-0.247379	9.795555	0.330489				-0.004305	0.001782	-0.002050				87.912862	1.701656	-41.355171
00060	577974	-0.239027	9.809491	0.325907				-0.003804	0.004215	-0.000754				87.914199	1.700926	-41.354768
00061	578024	-0.228926	9.816633	0.332341				-0.003363	-0.001826	-0.002135				87.913222	1.701520	-41.355318
00062	578074	-0.235822	9.812101	0.312870				-0.000966	-0.000582	-0.000492				87.915320	1.700657	-41.356289
00063	578124	-0.234119	9.820539	0.320882				-0.003976	0.001534	0.000325				87.914191	1.700581	-41.355839
00064	578174	-0.244693	9.811861	0.320988				-0.006452	0.001875	0.000143				87.914770	1.699563	-41.356109
00065	578224	-0.236228	9.800560	0.322555				-0.005817	0.003150	-0.000048				87.913118	1.699608	-41.355209
00066	578274	-0.249657	9.822918	0.323291				-0.003351	0.000828	-0.001731				87.914549	1.699120	-41.355779
00067	578324	-0.238061	9.812411	0.321454				-0.006331	-0.002033	-0.000457				87.912721	1.699231	-41.356364
00068	578374	-0.251583	9.791372	0.306186				-0.008916	-0.000564	-0.001853				87.912540	1.698754	-41.357374
00069	578424	-0.261856	9.802721	0.315725				-0.004318	0.000338	0.003111				87.911305	1.697866	-41.357256
00070	578474	-0.275942	9.838701	0.324634				-0.002681	-0.000896	0.001596				87.912925	1.696404	-41.358305
00071	578524	-0.257793	9.810425	0.311351				-0.003326	-0.000855	-0.001001				87.911971	1.696681	-41.358562
00072	578574	-0.270354	9.807207	0.310051				-0.003492	0.001216	-0.001184				87.913377	1.696039	-41.359043
00073	578624	-0.275869	9.804551	0.323829				-0.008240	-0.001778	-0.003239				87.911005	1.696945	-41.359586
00074	578674	-0.280128	9.811108	0.310570				-0.005607	0.001504	-0.000886				87.911787	1.696223	-41.359974
00075	578724	-0.260539	9.801654	0.324636				-0.006598	0.001457	-0.000694				87.909903	1.696437	-41.359562
00076	578774	-0.262100	9.816647	0.319866				-0.006925	-0.001165	0.002794				87.910320	1.694630	-41.360698
00077	578824	-0.269286	9.831311	0.332740				-0.003100	-0.000715	0.000888				87.909424	1.694368	-41.360888
00078	578874	-0.272520	9.833939	0.313399				-0.004618	-0.000384	0.001506				87.910485	1.692934	-41.361820
00079	578924	-0.252209	9.816056	0.320187				-0.003017	-0.002953	-0.003932				87.909584	1.694029	-41.362705
00080	578974	-0.264269	9.819814	0.312904				-0.003936	0.000238	-0.000992				87.910854	1.693316	-41.363461
00081	579024	-0.246761	9.809040	0.317843				-0.005305	0.003029	-0.001170				87.909354	1.693681	-41.362601
00082	579074	-0.258469	9.825284	0.332196				-0.002062	0.001990	0.001996				87.911184	1.692133	-41.362833
00083	579124	-0.226802	9.812320	0.305984				-0.004940	0.001512	-0.002272				87.909775	1.692796	-41.362414
00084	579174	-0.223534	9.812421	0.317289				-0.006309	0.000292	-0.000255				87.910369	1.691878	-41.363124
00085	579224	-0.237867	9.812823	0.310604				-0.005011	0.002543	-0.003966				87.908948	1.693041	-41.362438
00086	579274	-0.238427	9.803226	0.317338				-0.006395	0.000905	-0.001985				87.909529	1.692613	-41.363024
00087	579324	-0.235688	9.793158	0.311268				-0.003579	0.000721	-0.004265				87.908498	1.693841	-41.362855
00088	579374	-0.245828	9.810254	0.317032				-0.002821	-0.000644	-0.000039				87.910094	1.692841	-41.363896
00089	579424	-0.262859	9.812858	0.319137				-0.005955	0.000041	-0.001954				87.908394	1.693407	-41.363903
00090	579474	-0.253616	9.798756	0.302202				-0.001331	0.000407	-0.005556				87.910392	1.693994	-41.364678
00091	579524	-0.249016	9.804080	0.330378				-0.007593	-0.000863	-0.002787				87.908205	1.694784	-41.364951
00092	579574	-0.278069	9.808746	0.327577				-0.006659	0.003358	-0.002187				87.908721	1.694432	-41.364824
00093	579624	-0.273046	9.817108	0.311995				-0.005002	0.001649	0.001132				87.907300	1.694123	-41.364343
00094	579674	-0.282971	9.817316	0.321318				-0.003023	0.001577	-0.002914				87.908845	1.693971	-41.364727
00095	579724	-0.283320	9.826281	0.324242				-0.004175	0.001424	-0.004547				87.907662	1.695287	-41.364362
00096	579774	-0.270547	9.813937	0.334812				-0.008422	0.000256	-0.001656				87.907646	1.694763	-41.365144
00097	579824	-0.248575	9.813656	0.324832				-0.005861	-0.000633	0.000799				87.905965	1.694524	-41.365318
00098	579874	-0.269821	9.804180	0.322454				-0.003529	-0.001203	0.001404				87.907312	1.693104	-41.366506
00099	579924	-0.263409	9.816937	0.331116				-0.005682	-0.000244	0.000316				87.905699	1.693013	-41.366577
00100	579974	-0.255038	9.808018	0.300781				-0.003014	0.002582	-0.001404				87.907242	1.692438	-41.366680
00101	580024	-0.262333	9.807069	0.341211				-0.008126	-0.000929	0.000516				87.904910	1.692277	-41.366941
00102	580074	-0.270399	9.813750	0.300993				-0.005630	0.000012	-0.002021				87.905672	1.691849	-41.367763
00103	580124	-0.246825	9.827881	0.326918				-0.004572	0.000260	-0.000417				87.904365	1.691973	-41.367693
00104	580174	-0.235081	9.806891	0.312506				-0.005671	-0.001636	-0.000364				87.905124	1.691056	-41.368984
00105	580224	-0.223708	9.794416	0.315725				-0.002076	0.001277	0.000895				87.904535	1.690814	-41.368602
00106	580274	-0.242644	9.831930	0.328797				-0.003730	0.002892	-0.001494				87.905891	1.690263	-41.368627
00107	580324	-0.237528	9.810040	0.322122				-0.007442	0.000823	0.000136				87.903770	1.690234	-41.368390
00108	580374	-0.253874	9.813402	0.337206				-0.002933	0.002073	0.000039				87.905325	1.689228	-41.368649
00109	580424	-0.248168	9.821110	0.318334				-0.006355	-0.001356	-0.000776				87.903500	1.689439	-41.369059
00110	580474	-0.263344	9.812881	0.332732				-0.001113	-0.000840	-0.000078				87.905568	1.688435	-41.370110
00111	580524	-0.251377	9.804722	0.348734				-0.005583	0.001233	-0.005764				87.903980	1.690096	-41.369821
00112	580574	-0.260486	9.817043	0.326298				-0.004623	0.000907	0.000040				87.905053	1.689091	-41.370386
00113	580624	-0.266577	9.814260	0.317340				-0.000431	-0.000052	0.001493				87.904935	1.688665	-41.370392
00114	580674	-0.256811	9.810986	0.306588				-0.003709	-0.001153	-0.003376				87.906236	1.688598	-41.371561
00115	580724	-0.267474	9.803007	0.323348				-0.002044	0.000207	-0.001096				87.905659	1.688916	-41.371517
00116	580774	-0.272772	9.813437	0.334712				-0.001837	0.000627	-0.002472				87.907511	1.688608	-41.372174
00117	580824	-0.274274	9.814610	0.319124				-0.004482	-0.003875	-0.000531				87.906199	1.688721	-41.373296
00118	580874	-0.271024	9.802979	0.322441				-0.001729	0.001374	-0.002059				87.908119	1.688321	-41.373742
00119	580924	-0.265185	9.816907	0.346872				-0.004114	0.000781	-0.002562				87.906939	1.689062	-41.373537
00120	580974	-0.271565	9.822776	0.330166				-0.003265	-0.000721	-0.000776				87.908406	1.688255	-41.374610
00121	581024	-0.252345	9.811502	0.322898				-0.004453	0.001557	-0.000247				87.907139	1.688341	-41.374169
00122	581074	-0.244979	9.810431	0.321412				-0.004580	0.002393	-0.001338				87.908233	1.687741	-41.374315
00123	581124	-0.236862	9.794058	0.313024				-0.004530	-0.001390	-0.001840				87.906921	1.688255	-41.374734
00124	581174	-0.261297	9.808991	0.309647				-0.001231	0.002903	-0.001568				87.908985	1.687723	-41.374744
00125	581224	-0.222132	9.798916	0.317710				-0.004765	0.003265	-0.000373				87.907635	1.687860	-41.373806
00126	581274	-0.243652	9.820574	0.326575				-0.001377	-0.000621	-0.000495				87.909644	1.686985	-41.374806
00127	581324	-0.220469	9.801438	0.324359				-0.003580	-0.001723	0.002005				87.908597	1.686391	-41.375280
00128	581374	-0.247552	9.809860	0.325292				-0.004923	0.001130	0.000133				87.909594	1.685351	-41.375786
00129	581424	-0.222823	9.812105	0.323210				-0.004905	0.001775	0.000454				87.908201	1.685241	-41.375272
00130	581474	-0.243509	9.829447	0.304606				-0.003693	0.000560	-0.003626				87.909527	1.685262	-41.375980
00131	581524	-0.245619	9.783289	0.311654				-0.006774	0.000472	-0.004226				87.907584	1.686472	-41.375894
00132	581574	-0.275486	9.816008	0.319658				-0.004053	-0.000185	-0.002053				87.908828	1.686041	-41.376781
00133	581624	-0.249111	9.823699	0.303974				-0.006525	-0.000975	-0.002217				87.906946	1.686665	-41.377084
00134	581674	-0.249333	9.809321	0.328643				-0.004477	0.002164	-0.001980				87.908086	1.686235	-41.377316
00135	581724	-0.270011	9.803899	0.309100				-0.006226	0.000817	0.000522				87.906305	1.686094	-41.377067
00136	581774	-0.270535	9.800559	0.326105				-0.004889	0.000192	0.000194				87.907305	1.685013	-41.377821
00137	581824	-0.280290	9.829567	0.329476				-0.003558	0.001438	-0.002527				87.906293	1.685751	-41.377435
00138	581874	-0.282560	9.825252	0.330587				-0.002578	0.001040	-0.000132				87.907977	1.684779	-41.377993
00139	581924	-0.261777	9.808374	0.318350				-0.003327	0.000282	-0.001094				87.907015	1.685094	-41.377917
00140	581974	-0.263823	9.801321	0.327946				-0.003780	-0.002530	0.002357				87.908309	1.683375	-41.379432
00141	582024	-0.258838	9.812840	0.338699				-0.003489	-0.000594	0.000566				87.907303	1.683208	-41.379596
00142	582074	-0.266961	9.816161	0.332304				-0.004156	-0.000569	0.002017				87.908498	1.681607	-41.380540
00143	582124	-0.248822	9.806863	0.303215				-0.003576	0.000148	-0.000644				87.907467	1.681795	-41.380495
00144	582174	-0.241290	9.798695	0.332122				-0.001083	0.001323	-0.000422				87.909563	1.680910	-41.380959
00145	582224	-0.243990	9.801606	0.309845				-0.003349	-0.001007	0.000243				87.908583	1.680828	-41.381234
00146	582274	-0.252487	9.814754	0.327484				-0.006706	0.003578	-0.003987				87.909098	1.680986	-41.381079
00147	582324	-0.229230	9.785609	0.298062				-0.004843	0.004781	-0.000363				87.907758	1.681142	-41.379715
00148	582374	-0.247159	9.816590	0.320183				-0.004002	0.000268	-0.001509				87.909012	1.680555	-41.380441
00149	582424	-0.231863	9.813601	0.311019				-0.002734	-0.001491	-0.003195				87.908223	1.681457	-41.380901
00150	582474	-0.231919	9.814520	0.327975				0.000164	0.001409	-0.000936				87.910657	1.680702	-41.381326
00151	582524	-0.232067	9.828584	0.323683				-0.001341	0.006722	0.000986				87.910328	1.680490	-41.379398
00152	582574	-0.254977	9.809346	0.306584				-0.003659	-0.000537	-0.003183				87.911675	1.680378	-41.380388
00153	582624	-0.249358	9.811713	0.327310				-0.001465	0.001895	-0.003945				87.911264	1.681523	-41.379885
00154	582674	-0.270745	9.836207	0.321719				-0.002582	0.001007	-0.001184				87.912940	1.680851	-41.380429
00155	582724	-0.267513	9.820331	0.322996				-0.005473	0.001080	-0.004004				87.911373	1.682008	-41.380157
00156	582774	-0.276022	9.804153	0.319137				-0.004542	0.000001	-0.001957				87.912471	1.681543	-41.380970
00157	582824	-0.299423	9.823287	0.320957				-0.004397	0.001586	-0.003390				87.911228	1.682534	-41.380552
00158	582874	-0.286992	9.811424	0.315505				-0.008584	-0.001452	0.001224				87.911137	1.681134	-41.381787
00159	582924	-0.271640	9.807676	0.324879				-0.004355	-0.000803	-0.001769				87.909870	1.681631	-41.382033
00160	582974	-0.286118	9.823493	0.318393				-0.001271	0.003127	-0.002648				87.911940	1.681398	-41.382009
00161	583024	-0.292415	9.819886	0.316561				-0.004027	0.002500	0.000786				87.910802	1.681200	-41.381291
00162	583074	-0.275234	9.826512	0.331316				-0.001932	-0.001605	-0.002840				87.912649	1.680971	-41.382585
00163	583124	-0.255976	9.790794	0.325021				-0.002639	0.000741	-0.003053				87.911888	1.681850	-41.382400
00164	583174	-0.249205	9.802357	0.318521				-0.004489	0.002357	-0.003263				87.913015	1.681794	-41.382557
00165	583224	-0.254542	9.818111	0.323365				-0.004821	0.003234	0.001652				87.911655	1.681351	-41.381615
00166	583274	-0.254170	9.809548	0.309648				-0.001865	0.002763	-0.001951				87.913572	1.680910	-41.381694
00167	583324	-0.232553	9.794559	0.315069				-0.004034	-0.000666	-0.001483				87.912399	1.681325	-41.381885
00168	583374	-0.256953	9.819728	0.324059				-0.003170	0.002617	0.000007				87.913895	1.680334	-41.381929
00169	583424	-0.242794	9.813112	0.318733				-0.003709	0.000276	0.000770				87.912833	1.680117	-41.381841
00170	583474	-0.244277	9.810215	0.320648				-0.003963	0.001110	-0.001375				87.914118	1.679490	-41.382354
00171	583524	-0.230955	9.798611	0.314620				-0.005393	-0.000369	-0.001704				87.912572	1.679972	-41.382479
00172	583574	-0.235149	9.814968	0.327754				-0.001967	0.001525	-0.004911				87.914396	1.680369	-41.382876
00173	583624	-0.256008	9.834962	0.321679				-0.004380	-0.000031	-0.002532				87.913149	1.681093	-41.382910
00174	583674	-0.244537	9.816227	0.315188				-0.004678	0.000352	-0.001860				87.914188	1.680604	-41.383658
00175	583724	-0.250821	9.796811	0.338720				-0.005934	0.000563	-0.000443				87.912485	1.680732	-41.383502
00176	583774	-0.266326	9.800324	0.344268				-0.002640	0.002417	-0.007178				87.914165	1.681787	-41.383713
00177	583824	-0.272668	9.821982	0.334949				-0.003117	0.000277	-0.005134				87.913270	1.683255	-41.383681
00178	583874	-0.266312	9.818438	0.323489				-0.007012	0.001214	-0.002556				87.913654	1.682969	-41.384168
00179	583924	-0.289747	9.825807	0.334839				-0.006638	0.002874	-0.001422				87.911770	1.683406	-41.383359
00180	583974	-0.272605	9.829574	0.318876				-0.002941	-0.001917	-0.002803				87.913301	1.683158	-41.384750
00181	584024	-0.285299	9.821275	0.308916				-0.004917	-0.000364	-0.003046				87.911874	1.684025	-41.384878
00182	584074	-0.263895	9.807957	0.312815				-0.003181	0.001968	0.000455				87.913395	1.682880	-41.385132
00183	584124	-0.260630	9.799399	0.332126				-0.007535	0.002725	-0.001809				87.911270	1.683427	-41.384377
00184	584174	-0.280831	9.819179	0.325178				-0.005429	-0.000307	-0.003334				87.912080	1.683347	-41.385289
00185	584224	-0.258909	9.816072	0.328868				-0.002140	0.000110	-0.001096				87.911461	1.683664	-41.385268
00186	584274	-0.250983	9.814148	0.321823				-0.001736	0.001570	-0.001798				87.913372	1.683161	-41.385636
00187	584324	-0.235886	9.805944	0.327376				-0.006833	0.001705	-0.001110				87.911425	1.683496	-41.385158
00188	584374	-0.236324	9.806024	0.322272				-0.001804	0.000762	-0.001165				87.913309	1.682809	-41.385772
00189	584424	-0.239358	9.820467	0.321103				-0.005454	0.000663	-0.001277				87.911748	1.683181	-41.385600
00190	584474	-0.243337	9.830559	0.325190				-0.001877	0.000885	-0.001996				87.913611	1.682730	-41.386154
00191	584524	-0.231321	9.826556	0.317687				-0.002683	0.001296	-0.000224				87.912850	1.682808	-41.385786
00192	584574	-0.271428	9.816083	0.318329				-0.003048	0.001449	-0.002018				87.914415	1.682368	-41.386236
00193	584624	-0.239474	9.811054	0.316532				-0.001872	0.001857	-0.001699				87.913900	1.682876	-41.385725
00194	584674	-0.259120	9.818470	0.327198				-0.003545	0.002186	-0.001761				87.915282	1.682367	-41.385928
00195	584724	-0.229106	9.801764	0.311474				-0.003047	0.000347	-0.002991				87.914418	1.683228	-41.385862
00196	584774	-0.250730	9.798233	0.308024				-0.003973	0.000202	-0.002659				87.915659	1.682952	-41.386654
00197	584824	-0.282925	9.841551	0.318691				-0.002624	-0.001843	-0.001361				87.914898	1.683324	-41.387196
00198	584874	-0.284527	9.801621	0.322415				-0.008376	0.000539	-0.005599				87.914880	1.683894	-41.387902
00199	584924	-0.271202	9.815557	0.321910				-0.002456	-0.001997	-0.001202				87.914164	1.684214	-41.388485
00200	584974	-0.277844	9.815198	0.324524				-0.006954	0.000673	-0.000311				87.914561	1.683279	-41.389104
00201	585024	-0.285472	9.823709	0.335468				-0.003282	-0.002275	-0.002614				87.913595	1.684006	-41.389778
00202	585074	-0.263340	9.806686	0.334241				-0.006136	-0.002193	-0.000844				87.914226	1.683187	-41.391212
00203	585124	-0.261460	9.776769	0.322823				-0.001276	0.002126	-0.002757				87.913882	1.683998	-41.390632
00204	585174	-0.272371	9.803075	0.330639				-0.003563	-0.001601	-0.003508				87.915233	1.683959	-41.391935
00205	585224	-0.263904	9.820377	0.322756				-0.006182	0.000457	-0.001533				87.913464	1.684402	-41.391821
00206	585274	-0.252933	9.819747	0.310939				-0.006682	-0.000335	-0.004071				87.913938	1.684525	-41.392755
00207	585324	-0.236728	9.802481	0.320368				-0.003351	0.000989	-0.002407				87.912985	1.685224	-41.392495
00208	585374	-0.249468	9.814227	0.317872				-0.005719	0.002049	-0.000693				87.913771	1.684411	-41.392709
00209	585424	-0.258250	9.816619	0.325251				-0.003688	0.004307	-0.005273				87.912741	1.685961	-41.391533
00210	585474	-0.229121	9.805808	0.311017				-0.005603	0.002142	-0.003902				87.913538	1.686066	-41.391789
00211	585524	-0.226946	9.816905	0.316090				-0.006900	0.000666	-0.003137				87.911558	1.686967	-41.391622
00212	585574	-0.227470	9.806232	0.315389				-0.006698	-0.001685	-0.001031				87.912039	1.686215	-41.392920
00213	585624	-0.236110	9.789261	0.316781				-0.003414	0.001861	-0.001154				87.911068	1.686563	-41.392395
00214	585674	-0.239538	9.806553	0.331357				-0.000135	0.001693	-0.002024				87.913445	1.686124	-41.392740
00215	585724	-0.262019	9.820272	0.315474				-0.003089	-0.001432	-0.003925				87.912556	1.687235	-41.393197
00216	585774	-0.237086	9.817878	0.337266				0.000674	-0.000013	-0.004410				87.915121	1.687449	-41.394012
00217	585824	-0.241545	9.810136	0.328052				-0.004166	0.002895	0.003410				87.913950	1.686497	-41.393146
00218	585874	-0.274205	9.812425	0.338054				-0.002388	-0.000291	-0.004850				87.915653	1.686846	-41.394104
00219	585924	-0.281596	9.815728	0.333075				-0.003597	0.000597	-0.002951				87.914633	1.687699	-41.393970
00220	585974	-0.263274	9.799111	0.333609				-0.001747	-0.000180	-0.002863				87.916524	1.687480	-41.394860
00221	586024	-0.273739	9.822503	0.331015				-0.002129	-0.001249	-0.001678				87.915906	1.687949	-41.395237
00222	586074	-0.270150	9.815901	0.315664				-0.000211	0.003380	0.001611				87.918260	1.686483	-41.395045
00223	586124	-0.293619	9.818849	0.320913				-0.003600	-0.002340	-0.001327				87.917207	1.686840	-41.395728
00224	586174	-0.262244	9.799766	0.322531				-0.005488	0.001695	-0.002845				87.918045	1.686633	-41.396081
00225	586224	-0.273250	9.803574	0.328016				-0.005323	0.001542	-0.000951				87.916535	1.686924	-41.395653
00226	586274	-0.270420	9.827657	0.322307				-0.006300	0.001101	-0.001656				87.917141	1.686371	-41.396136
00227	586324	-0.259698	9.813736	0.341582				-0.004587	0.001682	-0.000537				87.915832	1.686543	-41.395660
00228	586374	-0.247895	9.801138	0.353302				-0.004594	-0.002262	-0.000496				87.916896	1.685623	-41.397131
00229	586424	-0.251431	9.816782	0.319391				-0.007020	0.002673	0.000470				87.914906	1.685517	-41.396359
00230	586474	-0.264508	9.832584	0.315045				-0.005638	-0.002964	-0.003155				87.915675	1.685347	-41.398046
00231	586524	-0.246099	9.811233	0.314601				-0.000143	0.001756	-0.002763				87.915653	1.686157	-41.397578
00232	586574	-0.239403	9.808103	0.322961				-0.000298	0.000888	0.000086				87.917965	1.685103	-41.398098
00233	586624	-0.244191	9.808473	0.326195				-0.003916	0.000889	0.000287				87.916852	1.685032	-41.397841
00234	586674	-0.236189	9.809289	0.341311				-0.005463	0.001185	0.002059				87.917685	1.683415	-41.398294
00235	586724	-0.236789	9.806374	0.314052				-0.001030	0.001485	-0.002184				87.917408	1.684057	-41.397899
00236	586774	-0.244701	9.801399	0.323078				-0.003761	0.000558	-0.004236				87.918721	1.684227	-41.398651
00237	586824	-0.248494	9.819901	0.319949				-0.002748	-0.001205	-0.004730				87.917915	1.685566	-41.399035
00238	586874	-0.261425	9.802362	0.339321				-0.006927	-0.000299	-0.000832				87.918318	1.684762	-41.399927
00239	586924	-0.257636	9.807281	0.331112				-0.006130	-0.002617	-0.003698				87.916540	1.685794	-41.400712
00240	586974	-0.262969	9.812608	0.334922				-0.003301	-0.000688	-0.002413				87.917986	1.685431	-41.401764
00241	587024	-0.278156	9.810908	0.325236				-0.006312	-0.001778	-0.002892				87.916154	1.686241	-41.402299
00242	587074	-0.277777	9.821536	0.328718				-0.004224	-0.000903	-0.003503				87.917339	1.686189	-41.403375
00243	587124	-0.279419	9.808460	0.314148				-0.004264	0.003561	-0.001808				87.916146	1.686741	-41.402381
00244	587174	-0.283987	9.807559	0.322757				-0.001675	0.002702	-0.000988				87.918104	1.686011	-41.402413
00245	587224	-0.292844	9.811393	0.312489				-0.002483	-0.001259	-0.003957				87.917379	1.687130	-41.402815
00246	587274	-0.270905	9.823993	0.328701				-0.004872	0.000481	-0.000894				87.918371	1.686354	-41.403460
00247	587324	-0.251369	9.803341	0.330287				-0.003702	-0.002148	-0.000371				87.917292	1.686437	-41.404085
00248	587374	-0.279511	9.829962	0.319180				-0.003338	-0.000563	-0.003565				87.918723	1.686411	-41.405096
00249	587424	-0.270034	9.806710	0.311877				-0.001944	0.001179	0.000606				87.918182	1.686250	-41.404758
00250	587474	-0.260583	9.825275	0.315371				0.000314	-0.000597	-0.002676				87.920645	1.685969	-41.405733
00251	587524	-0.247433	9.809206	0.322181				-0.005087	0.002023	-0.003456				87.919206	1.686979	-41.405187
00252	587574	-0.235599	9.824767	0.322293				-0.003617	0.002510	-0.000858				87.920605	1.686208	-41.405303
00253	587624	-0.229665	9.822495	0.336101				-0.002448	0.000007	-0.000552				87.919903	1.686371	-41.405296
00254	587674	-0.234951	9.816842	0.313556				-0.001854	-0.000695	0.000370				87.921758	1.685214	-41.406302
00255	587724	-0.248934	9.830747	0.339322				-0.001031	-0.002719	-0.003009				87.921438	1.686048	-41.407116
00256	587774	-0.242451	9.813957	0.325609				-0.002454	-0.000128	-0.003153				87.923131	1.685902	-41.407985
00257	587824	-0.262128	9.801895	0.307568				-0.002573	-0.001449	-0.001811				87.922375	1.686400	-41.408412
00258	587874	-0.259711	9.821802	0.325956				-0.000495	-0.001451	-0.003038				87.924617	1.686212	-41.409649
00259	587924	-0.264108	9.816373	0.320990				-0.003547	0.000048	-0.003021				87.923602	1.687077	-41.409666
00260	587974	-0.249094	9.818440	0.306749				-0.002729	-0.004885	-0.004200				87.925166	1.687178	-41.411937
00261	588024	-0.276389	9.820743	0.335428				-0.002644	-0.000998	0.000178				87.924394	1.687121	-41.412215
00262	588074	-0.269860	9.820075	0.322300				-0.004988	0.003292	-0.001391				87.925405	1.686515	-41.412062
00263	588124	-0.274315	9.802352	0.314062				-0.001363	-0.001974	0.000049				87.924993	1.686476	-41.412626
00264	588174	-0.279763	9.817418	0.317475				-0.002884	0.001487	-0.000510				87.926583	1.685590	-41.412998
00265	588224	-0.274438	9.844923	0.322164				-0.008082	-0.000259	-0.001113				87.924271	1.685908	-41.413081
00266	588274	-0.274368	9.800604	0.320089				-0.004061	0.001109	-0.002016				87.925488	1.685450	-41.413584
00267	588324	-0.276917	9.815904	0.325929				-0.005183	-0.003821	0.000561				87.923975	1.685249	-41.414677
00268	588374	-0.277731	9.823185	0.314037				-0.001144	-0.004143	-0.002339				87.926007	1.684825	-41.416656
00269	588424	-0.266212	9.810692	0.302581				-0.003860	0.003184	0.000563				87.924923	1.684696	-41.415736
00270	588474	-0.252625	9.817634	0.309825				-0.000905	0.000551	-0.001743				87.927065	1.684159	-41.416368
00271	588524	-0.219050	9.795189	0.331131				-0.005604	0.001572	0.001323				87.925460	1.683794	-41.415904
00272	588574	-0.237054	9.813601	0.306803				-0.006212	0.000194	-0.001345				87.926099	1.683139	-41.416692
00273	588624	-0.246890	9.814648	0.323093				-0.007058	-0.000237	-0.001825				87.924083	1.683658	-41.416782
00274	588674	-0.251383	9.828461	0.316565				-0.002576	-0.000420	-0.002736				87.925720	1.683389	-41.417748
00275	588724	-0.236227	9.822108	0.309527				-0.001561	0.000953	-0.003632				87.925288	1.684442	-41.417516
00276	588774	-0.227906	9.807202	0.314150				-0.006100	0.002016	0.000335				87.925948	1.683318	-41.417747
00277	588824	-0.238060	9.807160	0.324237				-0.005269	-0.000144	-0.001928				87.924433	1.683866	-41.417808
00278	588874	-0.230708	9.792562	0.322933				-0.001378	-0.001787	-0.001498				87.926416	1.683228	-41.419106
00279	588924	-0.255635	9.813479	0.330830				-0.006247	0.003457	-0.003925				87.924651	1.684392	-41.418149
00280	588974	-0.255174	9.798584	0.343511				-0.005530	-0.000179	-0.002984				87.925454	1.684189	-41.419025
00281	589024	-0.250953	9.824830	0.306103				-0.003421	0.001120	-0.000770				87.924477	1.684419	-41.418708
00282	589074	-0.268663	9.808803	0.300349				-0.002746	0.000931	-0.003304				87.926105	1.684335	-41.419269
00283	589124	-0.266588	9.805150	0.323414				-0.005754	0.001010	-0.001755				87.924474	1.684851	-41.419002
00284	589174	-0.282051	9.830489	0.314153				-0.003240	0.001675	-0.000377				87.925946	1.683921	-41.419315
00285	589224	-0.264593	9.804056	0.319499				-0.001439	-0.002625	-0.000021				87.925506	1.683898	-41.420058
00286	589274	-0.286059	9.821399	0.315539				-0.001409	-0.002888	-0.002847				87.927467	1.683630	-41.421674
00287	589324	-0.268962	9.807418	0.328213				-0.002799	0.000975	0.001701				87.926668	1.683149	-41.421372
00288	589374	-0.288908	9.826027	0.320906				-0.003283	-0.003139	0.000493				87.928102	1.681928	-41.423047
00289	589424	-0.258851	9.802716	0.303016				-0.004362	-0.000518	-0.002572				87.926855	1.682661	-41.423226
00290	589474	-0.263803	9.804560	0.318124				-0.004587	-0.001884	-0.005848				87.927916	1.683257	-41.424579
00291	589524	-0.256830	9.810701	0.325099				-0.004887	0.003295	0.000436				87.926539	1.683165	-41.423625
00292	589574	-0.233445	9.790425	0.319876				-0.002285	-0.001053	0.002133				87.928276	1.681500	-41.424689
00293	589624	-0.235854	9.807711	0.320881				-0.004142	0.002821	-0.000501				87.927110	1.681673	-41.423886
00294	589674	-0.236689	9.808293	0.328310				-0.003268	-0.002954	-0.003005				87.928553	1.681453	-41.425549
00295	589724	-0.239496	9.822189	0.316820				-0.003796	0.002217	0.001609				87.927482	1.681013	-41.424901
00296	589774	-0.240377	9.809550	0.320672				-0.004419	-0.000740	-0.001065				87.928598	1.680259	-41.425920
00297	589824	-0.236133	9.796666	0.313934				-0.005449	-0.002602	-0.000078				87.927004	1.680251	-41.426658
00298	589874	-0.234621	9.799541	0.328597				-0.006111	0.001067	-0.001241				87.927669	1.679567	-41.427177
00299	589924	-0.240965	9.813393	0.317552				-0.006637	0.001465	-0.002805				87.925769	1.680389	-41.426783
00300	589974	-0.243455	9.798232	0.298622				-0.003690	0.001585	-0.000665				87.927153	1.679541	-41.427137
00301	590024	-0.248475	9.817801	0.317809				-0.003451	-0.000358	-0.005516				87.926149	1.681116	-41.427290
00302	590074	-0.256702	9.817253	0.315925				-0.004409	-0.001110	-0.002629				87.927260	1.680794	-41.428422
00303	590124	-0.257201	9.804045	0.310416				-0.002450	0.002837	-0.002901				87.926583	1.681651	-41.427639
00304	590174	-0.269175	9.799060	0.316374				-0.008530	0.002465	-0.004555				87.926557	1.681925	-41.427779
00305	590224	-0.258660	9.814152	0.330661				-0.007205	0.001165	-0.004154				87.924501	1.683125	-41.427485
00306	590274	-0.280600	9.821487	0.329886				-0.002712	-0.000654	0.000963				87.926112	1.681792	-41.428462
00307	590324	-0.278832	9.818099	0.320365				-0.004663	-0.000949	-0.000317				87.924777	1.681872	-41.428738
00308	590374	-0.267938	9.819782	0.327308				-0.005961	0.002746	-0.000778				87.925489	1.681079	-41.428756
00309	590424	-0.273858	9.812242	0.334706				-0.003403	-0.000411	-0.001349				87.924506	1.681457	-41.428878
00310	590474	-0.264850	9.819796	0.328954				-0.005063	-0.000341	0.000425				87.925465	1.680277	-41.429752
00311	590524	-0.246160	9.807081	0.338107				-0.002657	0.001478	-0.000346				87.924721	1.680392	-41.429335
00312	590574	-0.233469	9.806484	0.324947				-0.004683	0.001569	-0.001592				87.925768	1.679807	-41.429653
00313	590624	-0.236414	9.806587	0.331794				-0.000632	-0.001046	-0.001713				87.925580	1.680283	-41.429971
00314	590674	-0.236853	9.796975	0.323725				-0.002860	-0.001072	0.002307				87.927140	1.678550	-41.431021
00315	590724	-0.238214	9.801553	0.318059				-0.007033	0.001847	-0.002289				87.925143	1.679226	-41.430522
00316	590774	-0.242727	9.807758	0.311833				-0.005205	0.000885	-0.001048				87.926052	1.678483	-41.431085
00317	590824	-0.226971	9.799262	0.337866				-0.005563	-0.002802	0.002173				87.924443	1.677832	-41.431865
00318	590874	-0.221299	9.810616	0.312863				-0.004101	-0.000719	-0.001222				87.925643	1.677119	-41.432870
00319	590924	-0.258299	9.827902	0.315615				-0.009956	0.001121	-0.001930				87.922815	1.677682	-41.432572
00320	590974	-0.233562	9.815454	0.312572				-0.007835	-0.002305	-0.003339				87.922950	1.677552	-41.434066
00321	591024	-0.255898	9.803683	0.319482				-0.004657	0.002629	-0.004857				87.921632	1.678974	-41.433361
00322	591074	-0.252281	9.811350	0.317804				-0.003673	-0.001866	0.000221				87.922956	1.677823	-41.434694
00323	591124	-0.270570	9.813418	0.322556				-0.006913	0.002041	-0.003890				87.920994	1.678958	-41.434157
00324	591174	-0.250687	9.810070	0.325033				-0.006150	0.000544	0.000233				87.921644	1.677838	-41.434802
00325	591224	-0.268416	9.816355	0.333455				-0.001534	-0.001699	-0.000168				87.921184	1.677868	-41.435287
00326	591274	-0.286004	9.818731	0.319155				-0.002868	-0.004052	0.000145				87.922720	1.676718	-41.437229
00327	591324	-0.276200	9.812546	0.297533				-0.003774	-0.001768	-0.000166				87.921615	1.676748	-41.437732
00328	591374	-0.268618	9.804964	0.302778				-0.001883	0.002199	-0.002009				87.923523	1.676285	-41.437896
00329	591424	-0.284844	9.809896	0.339795				-0.003909	0.001585	-0.000882				87.922407	1.676549	-41.437453
00330	591474	-0.274114	9.811061	0.303485				-0.002220	0.002780	-0.001301				87.924184	1.675899	-41.437458
00331	591524	-0.283322	9.834771	0.327520				-0.001629	0.002600	0.001458				87.923736	1.675508	-41.436691
00332	591574	-0.267328	9.816054	0.308064				-0.003381	0.003047	-0.002161				87.925202	1.675097	-41.436617
00333	591624	-0.255820	9.818339	0.322661				-0.003777	0.002231	-0.001427				87.924128	1.675525	-41.435985
00334	591674	-0.255270	9.816767	0.317802				-0.003397	-0.000737	-0.002699				87.925545	1.675239	-41.437030
00335	591724	-0.277438	9.825395	0.324863				-0.002999	-0.002416	-0.005366				87.924662	1.676750	-41.437777
00336	591774	-0.251698	9.817004	0.320276				-0.003383	0.000137	-0.000444				87.926096	1.675825	-41.438512
00337	591824	-0.245442	9.804152	0.328119				-0.003808	0.001362	-0.000215				87.925028	1.675906	-41.438127
00338	591874	-0.232516	9.808923	0.321583				-0.004852	0.000016	0.000615				87.926036	1.674657	-41.438901
00339	591924	-0.246131	9.823389	0.326185				-0.005824	0.003325	-0.001930				87.924395	1.675242	-41.437969
00340	591974	-0.239529	9.818104	0.320446				-0.005925	-0.000617	-0.000219				87.925084	1.674248	-41.438927
00341	592024	-0.244476	9.807050	0.325984				-0.006121	0.001381	-0.002356				87.923344	1.674937	-41.438554
00342	592074	-0.254886	9.808384	0.338786				-0.006007	0.000634	-0.004829				87.924021	1.675258	-41.439182
00343	592124	-0.237292	9.801178	0.327790				-0.002928	0.002859	-0.002295				87.923204	1.675944	-41.438394
00344	592174	-0.253831	9.812559	0.314735				-0.004286	-0.002077	-0.003181				87.924352	1.675777	-41.439795
00345	592224	-0.251103	9.815558	0.306891				-0.006584	-0.002181	-0.001381				87.922443	1.676149	-41.440429
00346	592274	-0.283993	9.822734	0.292143				-0.005773	-0.000261	-0.000407				87.923187	1.675194	-41.441275
00347	592324	-0.283449	9.803013	0.341204				-0.001109	0.002415	0.002126				87.922882	1.674606	-41.440552
00348	592374	-0.274904	9.804854	0.320396				-0.006295	0.001931	-0.001997				87.923493	1.674136	-41.440791
00349	592424	-0.287136	9.816530	0.307225				-0.002416	0.000603	-0.003616				87.922806	1.675179	-41.440654
00350	592474	-0.275503	9.802918	0.322713				-0.002182	0.002620	-0.000399				87.924607	1.674263	-41.440659
00351	592524	-0.267804	9.783649	0.332365				-0.006012	-0.002074	-0.001666				87.922873	1.674721	-41.441267
00352	592574	-0.267788	9.818945	0.335645				-0.004122	0.001027	-0.001883				87.924087	1.674210	-41.441784
00353	592624	-0.241944	9.805122	0.329985				-0.002331	-0.001513	0.003329				87.923406	1.673242	-41.442177
00354	592674	-0.256696	9.810590	0.301413				-0.005674	0.003853	0.000767				87.924197	1.672001	-41.441861
00355	592724	-0.253526	9.807108	0.330287				-0.005639	0.005656	-0.001341				87.922616	1.672436	-41.440254
00356	592774	-0.255708	9.818689	0.300322				-0.003190	0.003988	-0.002639				87.924151	1.672177	-41.439923
00357	592824	-0.237487	9.808445	0.318137				-0.001162	-0.000209	-0.000291				87.923822	1.672256	-41.439991
00358	592874	-0.229187	9.813643	0.310083				-0.004019	-0.001034	0.000192				87.925038	1.671130	-41.441037
00359	592924	-0.233019	9.811703	0.325634				-0.004786	-0.001983	0.002176				87.923649	1.670483	-41.441579
00360	592974	-0.227962	9.822033	0.321303				-0.002292	0.002033	-0.001147				87.925402	1.669772	-41.441812
00361	593024	-0.257015	9.825611	0.312149				-0.004239	-0.000428	-0.003396				87.924196	1.670739	-41.441973
00362	593074	-0.259421	9.831243	0.313860				-0.004669	0.001317	-0.000435				87.925269	1.669812	-41.442372
00363	593124	-0.244928	9.794353	0.318233				-0.003687	-0.000482	0.000001				87.924202	1.669801	-41.442512
00364	593174	-0.249127	9.804317	0.314619				-0.000395	-0.000165	-0.000262				87.926457	1.668810	-41.443315
00365	593224	-0.246339	9.807148	0.318058				-0.004911	0.005896	-0.001983				87.925098	1.669436	-41.441650
00366	593274	-0.266653	9.810255	0.315716				-0.003134	0.004245	-0.003792				87.926650	1.669513	-41.441257
00367	593324	-0.275172	9.806499	0.321604				-0.006004	-0.002235	-0.000994				87.924918	1.669769	-41.441907
00368	593374	-0.280967	9.812706	0.314352				-0.002233	0.002062	-0.002941				87.926689	1.669571	-41.442091
00369	593424	-0.278756	9.809377	0.316693				-0.002027	0.000612	-0.002048				87.926113	1.670162	-41.441936
00370	593474	-0.278136	9.818728	0.326137				-0.004832	0.005674	0.000747				87.927159	1.668937	-41.441078
00371	593524	-0.291796	9.815923	0.343218				-0.005897	-0.001389	0.000551				87.925448	1.668763	-41.441464
00372	593574	-0.296360	9.823461	0.327403				-0.003550	0.001366	-0.000628				87.926848	1.667900	-41.441889
00373	593624	-0.286774	9.826920	0.325871				-0.002915	0.002805	0.001688				87.926029	1.667447	-41.441068
00374	593674	-0.274079	9.793880	0.325103				-0.003338	0.000661	-0.000183				87.927489	1.666440	-41.441644
00375	593724	-0.251096	9.787236	0.313255				-0.003989	0.006106	-0.002148				87.926406	1.667118	-41.439918
00376	593774	-0.240862	9.800596	0.332144				-0.003067	0.001084	-0.000992				87.927932	1.666359	-41.440396
00377	593824	-0.249112	9.808992	0.303677				-0.005016	0.000852	-0.001912				87.926508	1.666912	-41.440180
00378	593874	-0.239845	9.798795	0.326669				-0.004642	-0.000629	0.000159				87.927567	1.665803	-41.441112
00379	593924	-0.252868	9.823462	0.331507				-0.005090	0.001036	-0.006019				87.926105	1.667540	-41.440870
00380	593974	-0.230808	9.807450	0.326380				-0.004511	-0.002849	0.000888				87.927181	1.666197	-41.442422
00381	594024	-0.238154	9.816328	0.328935				-0.003351	-0.000792	0.000960				87.926222	1.665914	-41.442638
00382	594074	-0.242267	9.817067	0.324051				-0.005383	0.000259	-0.004613				87.927073	1.666173	-41.443390
00383	594124	-0.241745	9.817049	0.341020				-0.004048	0.002413	-0.005884				87.925926	1.667884	-41.442759
00384	594174	-0.260537	9.840790	0.309095				-0.007169	0.002136	-0.003313				87.926301	1.667796	-41.442951
00385	594224	-0.245414	9.824335	0.311805				-0.004099	0.001154	-0.004580				87.925144	1.669120	-41.442673
00386	594274	-0.242913	9.815083	0.329080				-0.005755	-0.001068	-0.001983				87.925879	1.668612	-41.443754
00387	594324	-0.258306	9.812461	0.318037				-0.002347	-0.000234	-0.001414				87.925199	1.669013	-41.443829
00388	594374	-0.272274	9.806415	0.313916				-0.007004	-0.003227	-0.002088				87.925560	1.668512	-41.445519
00389	594424	-0.263532	9.803178	0.331085				-0.002759	-0.000659	-0.002601				87.924758	1.669249	-41.445725
00390	594474	-0.271559	9.808422	0.322718				-0.004991	0.002538	0.000245				87.925737	1.668137	-41.445747
00391	594524	-0.281759	9.806239	0.317700				-0.003056	0.001954	0.000527				87.924877	1.668010	-41.445174
00392	594574	-0.282389	9.817979	0.309594				-0.002901	-0.000077	-0.001246				87.926454	1.667300	-41.445976
00393	594624	-0.266683	9.804181	0.340246				-0.004674	0.001373	-0.001621				87.925121	1.667778	-41.445599
00394	594674	-0.270310	9.814856	0.337500				-0.003161	0.003507	0.000149				87.926654	1.666707	-41.445363
00395	594724	-0.277047	9.813096	0.322709				-0.001068	0.001287	0.003148				87.926351	1.665819	-41.444950
00396	594774	-0.248598	9.810994	0.328563				-0.003062	-0.000023	-0.002372				87.927875	1.665438	-41.445742
00397	594824	-0.260714	9.815433	0.307581				-0.006766	0.001463	-0.003028				87.925949	1.666322	-41.445355
00398	594874	-0.254251	9.820507	0.322161				-0.004461	0.000031	0.003152				87.927068	1.664354	-41.446072
00399	594924	-0.226190	9.793914	0.330582				-0.001773	-0.000250	0.000410				87.926547	1.664232	-41.446128
00400	594974	-0.247774	9.820846	0.320614				-0.002045	0.000225	-0.001699				87.928369	1.663663	-41.446858
00401	595024	-0.238682	9.816819	0.328308				-0.004468	0.000598	-0.004996				87.927081	1.665098	-41.446738
00402	595074	-0.237401	9.803488	0.316299				-0.002006	-0.002002	0.000595				87.928875	1.663850	-41.448057
00403	595124	-0.236211	9.815004	0.308891				-0.004701	0.002854	-0.005018				87.927555	1.665316	-41.447290
00404	595174	-0.247716	9.810103	0.309430				-0.005516	-0.000613	-0.002081				87.928380	1.664837	-41.448258
00405	595224	-0.238069	9.804206	0.315627				-0.003165	-0.002422	-0.007457				87.927443	1.666945	-41.449025
00406	595274	-0.258723	9.810242	0.322858				-0.003117	-0.002278	0.000439				87.928923	1.665730	-41.450416
00407	595324	-0.265484	9.820731	0.313764				-0.002065	0.001875	-0.000983				87.928348	1.666034	-41.449888
00408	595374	-0.255818	9.805830	0.334401				-0.003098	0.002912	-0.005600				87.929892	1.666598	-41.449903
00409	595424	-0.248076	9.811606	0.319811				-0.004938	0.002632	-0.002033				87.928496	1.667207	-41.449168
00410	595474	-0.283826	9.819284	0.316416				0.000320	0.001527	-0.001056				87.931010	1.666464	-41.449518
00411	595524	-0.274637	9.797400	0.327253				-0.003771	0.001036	-0.002013				87.929941	1.667046	-41.449249
00412	595574	-0.289074	9.805770	0.311410				-0.006700	0.002639	-0.000227				87.930430	1.666077	-41.449255
00413	595624	-0.276982	9.795903	0.330180				-0.003727	-0.003424	-0.001618				87.929338	1.666501	-41.450255
00414	595674	-0.265526	9.813028	0.336779				-0.002415	0.003035	0.000019				87.931061	1.665469	-41.450147
00415	595724	-0.259167	9.808740	0.327401				-0.001957	0.002953	0.001526				87.930525	1.665059	-41.449284
00416	595774	-0.233681	9.799793	0.328339				-0.004826	0.001985	-0.002390				87.931560	1.664707	-41.449466
00417	595824	-0.275452	9.810938	0.310119				-0.005856	0.004096	-0.003527				87.929916	1.665757	-41.448324
00418	595874	-0.238556	9.788714	0.319323				0.000224	0.001197	-0.003631				87.932388	1.665746	-41.448799
00419	595924	-0.242815	9.798088	0.323544				-0.003774	0.000492	0.003114				87.931318	1.664861	-41.448632
00420	595974	-0.216910	9.781007	0.345163				-0.002564	0.000312	-0.002504				87.932982	1.664515	-41.449322
00421	596024	-0.252608	9.821573	0.315574				-0.001685	0.002275	0.001036				87.932510	1.664243	-41.448655
00422	596074	-0.231897	9.816469	0.325346				-0.003193	-0.000796	0.000668				87.933983	1.662977	-41.449652
00423	596124	-0.224720	9.811097	0.325461				-0.006817	0.002309	-0.000845				87.932061	1.663243	-41.449001
00424	596174	-0.238316	9.808723	0.329820				-0.006790	0.003506	-0.001574				87.932540	1.662661	-41.448771
00425	596224	-0.235863	9.805882	0.316022				-0.002705	0.000666	-0.002337				87.931767	1.663339	-41.448602
00426	596274	-0.251963	9.804222	0.303212				-0.004564	-0.000504	-0.004521				87.932835	1.663550	-41.449557
00427	596324	-0.255520	9.804491	0.313978				-0.002292	0.000966	-0.001504				87.932174	1.663989	-41.449291
00428	596374	-0.264455	9.809544	0.317420				-0.007048	-0.000574	-0.000629				87.932560	1.663091	-41.450214
00429	596424	-0.248472	9.783274	0.325958				-0.002490	0.000026	-0.002216				87.931838	1.663723	-41.450221
00430	596474	-0.268099	9.815193	0.317409				-0.003032	0.000917	-0.003520				87.933377	1.663680	-41.450779
00431	596524	-0.273793	9.808696	0.333885				-0.006832	0.000791	0.000402				87.931422	1.663572	-41.450545
00432	596574	-0.292948	9.817265	0.332110				-0.001185	-0.000499	-0.000224				87.933481	1.662562	-41.451450
00433	596624	-0.277948	9.804149	0.317968				-0.004644	0.002511	-0.000494				87.932185	1.662732	-41.450740
00434	596674	-0.270898	9.820995	0.323272				-0.007194	0.002781	-0.004011				87.932538	1.662841	-41.450716
00435	596724	-0.269793	9.803076	0.316922				-0.003341	0.007190	0.000458				87.931640	1.662786	-41.448641
00436	596774	-0.273619	9.814069	0.324016				-0.006719	0.002115	-0.001613				87.932132	1.662207	-41.448814
00437	596824	-0.275317	9.817759	0.329648				-0.005186	0.002664	0.001272				87.930665	1.661872	-41.448030
00438	596874	-0.271453	9.813630	0.323670				-0.003606	-0.003326	-0.002902				87.932015	1.661603	-41.449770
00439	596924	-0.262410	9.821838	0.321259				-0.004196	0.002615	0.000341				87.930830	1.661532	-41.449016
00440	596974	-0.234411	9.836796	0.328169				-0.000998	0.001469	-0.003621				87.932946	1.661525	-41.449345
00441	597024	-0.252277	9.807343	0.315263				-0.006369	-0.002920	-0.000809				87.931092	1.661729	-41.450184
00442	597074	-0.244993	9.819004	0.303450				-0.005623	-0.000294	-0.002015				87.931895	1.661235	-41.451065
00443	597124	-0.235935	9.815569	0.318731				-0.005488	0.004016	0.000091				87.930353	1.661255	-41.449914
00444	597174	-0.227651	9.792211	0.316964				-0.002579	-0.001370	-0.003701				87.931981	1.661233	-41.451082
00445	597224	-0.247412	9.815784	0.326861				-0.001867	-0.000387	-0.001513				87.931446	1.661665	-41.451210
00446	597274	-0.226025	9.817840	0.318167				-0.003183	0.001658	-0.003228				87.932957	1.661541	-41.451528
00447	597324	-0.239359	9.814578	0.333856				-0.005083	0.002214	-0.000913				87.931520	1.661827	-41.450897
00448	597374	-0.232019	9.801385	0.318627				-0.003941	-0.001815	-0.002731				87.932766	1.661518	-41.452207
00449	597424	-0.242708	9.796515	0.333660				-0.006513	0.001734	-0.001426				87.930922	1.661943	-41.451728
00450	597474	-0.265197	9.805751	0.332006				-0.002185	0.000744	0.000067				87.932684	1.660865	-41.452231
00451	597524	-0.244078	9.794782	0.321828				-0.002901	0.002924	-0.002294				87.931887	1.661552	-41.451422
00452	597574	-0.274926	9.829693	0.309524				-0.003602	0.000942	-0.001402				87.933249	1.660895	-41.451896
00453	597624	-0.244173	9.797540	0.327628				-0.004102	-0.000747	-0.003145				87.932049	1.661785	-41.452133
00454	597674	-0.261840	9.787831	0.327241				-0.005038	-0.002442	-0.000711				87.933008	1.660892	-41.453583
00455	597724	-0.261448	9.809152	0.329836				-0.001902	-0.002423	-0.003095				87.932448	1.661757	-41.454312
00456	597774	-0.275524	9.812943	0.318670				-0.003966	-0.000005	-0.003618				87.933697	1.661726	-41.455075
00457	597824	-0.263384	9.804671	0.326783				-0.004693	-0.003241	0.000404				87.932337	1.661574	-41.456001
00458	597874	-0.269510	9.812435	0.325724				0.000093	0.000652	0.000130				87.934771	1.660481	-41.456552
00459	597924	-0.267660	9.818660	0.323427				-0.001723	0.002268	-0.001367				87.934299	1.660896	-41.455921
00460	597974	-0.258208	9.802567	0.313630				-0.006831	0.000296	-0.005567				87.934741	1.661422	-41.456621
00461	598024	-0.246140	9.799965	0.306995				-0.003543	0.001078	0.000391				87.933736	1.661320	-41.456311
00462	598074	-0.244483	9.800681	0.307743				-0.003782	0.002526	-0.001202				87.935066	1.660623	-41.456333
00463	598124	-0.258191	9.814114	0.302777				-0.004593	0.000732	-0.001270				87.933763	1.660996	-41.456146
00464	598174	-0.245672	9.806955	0.284415				-0.000683	-0.002564	-0.002807				87.935937	1.660700	-41.457624
00465	598224	-0.241657	9.812656	0.318288				-0.005069	0.000431	-0.002269				87.934497	1.661356	-41.457523
00466	598274	-0.252513	9.826253	0.320200				-0.002477	0.001802	-0.001623				87.936191	1.660777	-41.457774
00467	598324	-0.245727	9.811917	0.316894				-0.006193	-0.002763	-0.004303				87.934398	1.661982	-41.458611
00468	598374	-0.227841	9.814338	0.312843				-0.009505	-0.001006	-0.002300				87.934064	1.661566	-41.459626
00469	598424	-0.251865	9.811141	0.315930				-0.004690	0.002895	-0.001710				87.932753	1.662090	-41.458821
00470	598474	-0.240356	9.801976	0.319681				-0.003593	0.001524	-0.002010				87.934120	1.661605	-41.459142
00471	598524	-0.258573	9.812623	0.322206				-0.005177	-0.001156	-0.002823				87.932628	1.662398	-41.459506
00472	598574	-0.273200	9.821028	0.319412				-0.005415	0.003526	-0.003659				87.933515	1.662416	-41.459265
00473	598624	-0.247856	9.788170	0.332440				-0.004146	0.001773	-0.001752				87.932348	1.662935	-41.458780
00474	598674	-0.277683	9.812424	0.335413				-0.004101	0.001581	-0.000625				87.933571	1.662057	-41.459058
00475	598724	-0.284657	9.820204	0.332540				-0.001454	0.001013	-0.000829				87.933161	1.662302	-41.458773
00476	598774	-0.277345	9.792231	0.321838				-0.004990	0.001111	-0.002425				87.934138	1.661946	-41.459184
00477	598824	-0.272099	9.794417	0.307562				-0.002652	0.001055	-0.002593				87.933381	1.662699	-41.458900
00478	598874	-0.279905	9.822676	0.330098				0.000115	0.002042	-0.000121				87.935829	1.661682	-41.459055
00479	598924	-0.264294	9.806817	0.324866				-0.004340	-0.000269	-0.003556				87.934589	1.662700	-41.459175
00480	598974	-0.254593	9.796629	0.316667				-0.005654	0.001111	0.002068				87.935367	1.661055	-41.459591
00481	599024	-0.263455	9.816467	0.331026				-0.003562	-0.002616	-0.002222				87.934326	1.661662	-41.460363
00482	599074	-0.267689	9.811705	0.328234				-0.006297	0.002994	-0.002410				87.934956	1.661310	-41.460237
00483	599124	-0.256970	9.809572	0.305662				-0.004201	0.000645	-0.000538				87.933758	1.661475	-41.460065
00484	599174	-0.244319	9.822324	0.320145				-0.002263	-0.000678	0.001857				87.935496	1.659869	-41.460965
00485	599224	-0.237574	9.796152	0.314829				-0.001580	0.002082	0.001355				87.935060	1.659502	-41.460356
00486	599274	-0.221426	9.785357	0.304735				-0.005899	0.000773	0.000171				87.935776	1.658388	-41.460880
00487	599324	-0.236517	9.825640	0.311195				-0.002922	0.002529	-0.003836				87.934955	1.659513	-41.460194
00488	599374	-0.241546	9.828277	0.321089				-0.002876	-0.000820	-0.000582				87.936531	1.658608	-41.461159
00489	599424	-0.237520	9.811963	0.335912				-0.004350	-0.002020	-0.003666				87.935262	1.659636	-41.461777
00490	599474	-0.243264	9.808044	0.323537				-0.003634	0.003981	-0.001995				87.936646	1.659174	-41.461387
00491	599524	-0.252856	9.812362	0.312775				-0.001074	-0.001247	-0.002258				87.936328	1.659804	-41.461774
00492	599574	-0.259867	9.821087	0.326031				-0.003307	0.000790	0.000520				87.937780	1.658602	-41.462261
00493	599624	-0.257116	9.816552	0.315020				-0.006110	0.000352	0.000878				87.936046	1.658360	-41.462157
00494	599674	-0.257041	9.812977	0.315970				-0.005616	0.000877	-0.000789				87.936817	1.657516	-41.462613
00495	599724	-0.283381	9.817909	0.328604				0.001331	0.001001	0.000159				87.937199	1.657480	-41.462321
00496	599774	-0.266063	9.813163	0.311643				-0.003736	0.000302	0.002248				87.938530	1.655769	-41.462938
00497	599824	-0.288496	9.788575	0.319384				-0.001716	0.001946	-0.000953				87.938050	1.656065	-41.462390
00498	599874	-0.273330	9.828175	0.317382				-0.002289	-0.000434	-0.004773				87.939793	1.656357	-41.463310
00499	599924	-0.286057	9.830232	0.312004				-0.004012	-0.001490	-0.001175				87.938630	1.656682	-41.463748
00500	599974	-0.266152	9.813729	0.321209				-0.001959	0.003717	-0.001025				87.940487	1.655945	-41.463411
00501	600024	-0.261858	9.807100	0.339712				-0.005928	-0.002656	0.000135				87.938777	1.655884	-41.464185
00502	600074	-0.251393	9.829256	0.341516				-0.002670	0.000191	0.003350				87.940405	1.653856	-41.464812
00503	600124	-0.245123	9.798967	0.326644				-0.003195	0.003111	-0.002117				87.939515	1.654492	-41.463943
00504	600174	-0.245895	9.796210	0.319685				-0.004348	-0.000650	0.001492				87.940669	1.652994	-41.464838
00505	600224	-0.230696	9.801380	0.319780				-0.000446	0.001550	0.001711				87.940550	1.652521	-41.464372
00506	600274	-0.247162	9.817212	0.325881				-0.001636	0.001696	0.001589				87.942487	1.651012	-41.464588
00507	600324	-0.244280	9.814704	0.322167				-0.005638	0.000356	-0.000843				87.940869	1.651259	-41.464492
00508	600374	-0.234752	9.809673	0.317514				-0.005151	0.002071	-0.003757				87.941803	1.651288	-41.464638
00509	600424	-0.238425	9.802866	0.325348				0.000547	-0.002963	-0.001391				87.941927	1.651658	-41.465494
00510	600474	-0.249262	9.823928	0.319336				-0.006480	-0.000040	0.002845				87.942470	1.649771	-41.466235
00511	600524	-0.244254	9.818492	0.306833				-0.006150	0.001445	-0.000835				87.940715	1.650027	-41.465825
00512	600574	-0.252073	9.818007	0.301773				-0.004032	-0.000940	-0.001495				87.941962	1.649374	-41.466822
00513	600624	-0.261487	9.836113	0.335084				-0.005346	-0.002738	0.000843				87.940412	1.649104	-41.467608
00514	600674	-0.273371	9.819742	0.325199				-0.006771	-0.000211	0.000118				87.940878	1.648003	-41.468399
00515	600724	-0.258733	9.807589	0.325576				-0.005914	0.003167	-0.000473				87.939209	1.648172	-41.467501
00516	600774	-0.265618	9.805750	0.316007				-0.004850	0.002693	-0.003013				87.940227	1.647996	-41.467477
00517	600824	-0.272589	9.802943	0.292368				-0.006542	-0.001636	-0.002230				87.938343	1.648615	-41.467968
00518	600874	-0.272686	9.822843	0.324946				-0.004519	0.000574	0.000954				87.939427	1.647273	-41.468493
00519	600924	-0.276778	9.826515	0.314291				-0.002537	0.000472	-0.000940				87.938693	1.647549	-41.468353
00520	600974	-0.255159	9.785745	0.329833				-0.003175	-0.000640	-0.002553				87.940181	1.647211	-41.469273
00521	601024	-0.272026	9.824335	0.321256				-0.004032	0.003392	-0.000926				87.939060	1.647512	-41.468312
00522	601074	-0.274142	9.808364	0.309038				-0.001195	-0.000470	-0.001850				87.941131	1.646975	-41.469204
00523	601124	-0.271737	9.812510	0.303397				-0.006461	0.001249	0.000415				87.939288	1.646870	-41.468845
00524	601174	-0.251621	9.812742	0.320268				-0.006290	0.000861	0.000706				87.939896	1.645610	-41.469285
00525	601224	-0.258927	9.821839	0.308972				-0.001547	-0.000613	-0.004610				87.939438	1.646924	-41.469511
00526	601274	-0.241801	9.803511	0.326746				-0.007642	-0.002462	-0.003162				87.939638	1.646744	-41.470950
00527	601324	-0.247798	9.804639	0.294758				-0.001730	-0.000577	-0.000311				87.939124	1.646821	-41.471109
00528	601374	-0.253394	9.821155	0.311676				-0.004870	0.001174	-0.004207				87.940152	1.646975	-41.471548
00529	601424	-0.241140	9.798069	0.310880				-0.006373	-0.000687	-0.000110				87.938318	1.646995	-41.471745
00530	601474	-0.261370	9.819345	0.314482				-0.000209	0.001073	0.001396				87.940664	1.645539	-41.472139
00531	601524	-0.253574	9.817760	0.300813				-0.004648	-0.000894	-0.004476				87.939323	1.646810	-41.472443
00532	601574	-0.239962	9.797071	0.315159				-0.005749	-0.000031	0.000308				87.940080	1.645659	-41.473157
00533	601624	-0.240321	9.822643	0.318018				-0.004026	-0.000003	-0.001590				87.938931	1.646113	-41.473180
00534	601674	-0.245031	9.812619	0.317822				-0.007104	0.000067	-0.001672				87.939277	1.645525	-41.473871
00535	601724	-0.256099	9.781747	0.326792				-0.005463	-0.001357	-0.003129				87.937694	1.646409	-41.474288
00536	601774	-0.262810	9.807298	0.310441				-0.003547	-0.000259	-0.003637				87.939070	1.646378	-41.475084
00537	601824	-0.261035	9.803427	0.316705				-0.003747	0.000230	-0.001614				87.937988	1.646844	-41.475032
00538	601874	-0.261378	9.795187	0.312165				-0.004585	0.001374	-0.002508				87.939097	1.646503	-41.475389
00539	601924	-0.261043	9.813818	0.335174				-0.006859	0.000754	0.000031				87.937146	1.646503	-41.475171
00540	601974	-0.269041	9.811760	0.323972				-0.005950	0.000126	-0.001261				87.937839	1.645798	-41.475873
00541	602024	-0.272924	9.800232	0.329843				-0.002929	0.001892	-0.000773				87.937020	1.646035	-41.475346
00542	602074	-0.263303	9.804387	0.329599				-0.001685	0.001749	-0.003120				87.938934	1.645887	-41.475578
00543	602124	-0.258112	9.784948	0.317585				-0.003749	0.002689	0.001412				87.937881	1.645511	-41.474795
00544	602174	-0.256273	9.810353	0.317574				-0.002425	0.002327	0.001505				87.939629	1.644040	-41.474855
00545	602224	-0.258952	9.805214	0.325827				-0.005639	-0.001678	-0.000080				87.938006	1.644051	-41.475341
00546	602274	-0.241384	9.811883	0.306796				-0.005867	-0.000686	-0.003675				87.938707	1.644021	-41.476324
00547	602324	-0.249842	9.812202	0.310270				-0.008417	0.000180	0.000479				87.936295	1.643882	-41.476268
00548	602374	-0.234166	9.804770	0.328238				-0.004084	0.001966	-0.000134				87.937555	1.642884	-41.476421
00549	602424	-0.240020	9.808206	0.331599				-0.002202	0.002257	-0.000972				87.936925	1.643181	-41.475773
00550	602474	-0.241481	9.801928	0.322037				-0.002100	0.002040	0.000538				87.938734	1.641987	-41.475892
00551	602524	-0.257771	9.828509	0.323345				-0.002713	0.001282	0.001210				87.937964	1.641654	-41.475504
00552	602574	-0.229197	9.807442	0.328288				-0.005532	0.000067	-0.001260				87.938788	1.640949	-41.476224
00553	602624	-0.257513	9.805228	0.325827				-0.006143	0.000250	0.000953				87.937023	1.640680	-41.476139
00554	602674	-0.254934	9.808710	0.317436				-0.007226	-0.000355	-0.002988				87.937354	1.640464	-41.476977
00555	602724	-0.254103	9.819328	0.321923				-0.005786	0.000900	-0.001576				87.935714	1.640921	-41.476741
00556	602774	-0.268229	9.800742	0.331017				-0.000498	0.002001	-0.000235				87.937986	1.639956	-41.476892
00557	602824	-0.254828	9.803988	0.316127				-0.002994	0.001924	-0.001611				87.937146	1.640435	-41.476359
00558	602874	-0.284830	9.816270	0.326412				-0.005642	-0.000551	-0.000940				87.937913	1.639629	-41.477207
00559	602924	-0.262827	9.786081	0.316898				-0.003687	-0.004014	-0.004687				87.936816	1.640930	-41.478398
00560	602974	-0.288035	9.813213	0.306239				-0.003658	-0.001648	-0.002424				87.938162	1.640552	-41.479599
00561	603024	-0.272568	9.819619	0.318604				-0.002158	0.001099	0.002172				87.937553	1.639943	-41.479263
00562	603074	-0.272705	9.832754	0.328572				-0.009228	0.002423	-0.003130				87.937316	1.639798	-41.479314
00563	603124	-0.282356	9.819352	0.312755				-0.005552	-0.001187	0.000595				87.935705	1.639615	-41.479643
00564	603174	-0.257707	9.797473	0.305388				-0.004005	0.001750	0.002338				87.936993	1.637903	-41.479800
00565	603224	-0.256930	9.811341	0.329853				-0.004742	0.001470	-0.001703				87.935642	1.638405	-41.479394
00566	603274	-0.249682	9.811025	0.310012				-0.007662	-0.000291	0.001149				87.935849	1.637006	-41.480189
00567	603324	-0.277451	9.825398	0.309588				-0.005080	-0.001222	-0.002165				87.934385	1.637609	-41.480565
00568	603374	-0.250688	9.817197	0.324313				-0.004517	0.000702	0.001401				87.935499	1.636163	-41.481038
00569	603424	-0.242330	9.811600	0.324476				-0.003466	0.000816	0.000244				87.934509	1.636104	-41.480798
00570	603474	-0.248940	9.804861	0.325653				-0.001729	0.000489	0.000235				87.936428	1.634974	-41.481349
00571	603524	-0.237871	9.814229	0.327570				-0.004096	0.000286	-0.000402				87.935253	1.635092	-41.481269
00572	603574	-0.247606	9.791305	0.329251				-0.003602	-0.000158	-0.000785				87.936619	1.634255	-41.481979
00573	603624	-0.269887	9.826281	0.319647				-0.005685	0.003974	-0.001237				87.935035	1.634652	-41.480857
00574	603674	-0.238943	9.812336	0.310480				-0.008371	0.001763	-0.001150				87.935054	1.633938	-41.481033
00575	603724	-0.253680	9.828258	0.296924				-0.002237	0.001150	-0.003448				87.934415	1.634939	-41.480739
00576	603774	-0.252377	9.812598	0.313571				-0.005195	0.002459	-0.003559				87.935349	1.634924	-41.480778
00577	603824	-0.267482	9.820458	0.314797				-0.005343	-0.004201	-0.002726				87.933787	1.635661	-41.482013
00578	603874	-0.258210	9.803970	0.314070				-0.006266	0.000893	-0.000936				87.934392	1.634877	-41.482459
00579	603924	-0.272229	9.819966	0.326809				-0.002305	-0.000686	0.000365				87.933730	1.634762	-41.482657
00580	603974	-0.274897	9.803358	0.325550				-0.004132	0.000252	-0.002608				87.934937	1.634450	-41.483281
00581	604024	-0.257113	9.811839	0.312551				-0.001302	0.000882	-0.003128				87.934560	1.635350	-41.483056
00582	604074	-0.279416	9.819824	0.331312				-0.001816	-0.000966	-0.001243				87.936446	1.634626	-41.484043
00583	604124	-0.243610	9.802807	0.324938				-0.000415	0.000547	0.001420				87.936319	1.634221	-41.483866
00584	604174	-0.266411	9.815469	0.315685				-0.002290	0.003002	-0.000836				87.938094	1.633442	-41.483697
00585	604224	-0.261273	9.810833	0.344161				-0.000576	-0.001786	-0.001605				87.937925	1.633889	-41.484227
00586	604274	-0.254709	9.808949	0.317357				-0.003755	0.002586	-0.001797				87.939271	1.633367	-41.484197
00587	604324	-0.247912	9.817589	0.331845				-0.000836	-0.002531	0.000445				87.939018	1.633214	-41.484921
00588	604374	-0.269144	9.823503	0.330995				-0.009515	0.001550	0.000653				87.938704	1.631987	-41.485151
00589	604424	-0.241038	9.803065	0.325156				-0.001566	-0.001667	0.001925				87.938247	1.631421	-41.485616
00590	604474	-0.235067	9.797858	0.298276				-0.001419	-0.000279	0.000200				87.940230	1.630296	-41.486349
00591	604524	-0.238338	9.810264	0.322310				-0.004198	0.000152	-0.003162				87.939030	1.631202	-41.486346
00592	604574	-0.237104	9.797535	0.318215				-0.004429	0.001705	0.000537				87.940178	1.630001	-41.486532
00593	604624	-0.249118	9.797764	0.324798				-0.005269	0.001814	-0.002410				87.938687	1.630712	-41.486041
00594	604674	-0.235827	9.809971	0.312341				-0.000949	0.000018	-0.000728				87.940817	1.629866	-41.486738
00595	604724	-0.244360	9.817793	0.321517				0.000665	0.000529	-0.002177				87.941003	1.630490	-41.486603
00596	604774	-0.237139	9.792559	0.333158				-0.005869	-0.001454	0.000940				87.941720	1.629146	-41.487688
00597	604824	-0.241131	9.829402	0.309653				-0.005845	-0.002431	-0.002334				87.940028	1.629789	-41.488402
00598	604874	-0.257378	9.824459	0.325015				-0.003731	0.000612	-0.003792				87.941356	1.629823	-41.488940
00599	604924	-0.263440	9.805627	0.310322				-0.007239	-0.000807	-0.002991				87.939273	1.630675	-41.489205
00600	604974	-0.249603	9.816121	0.334005				-0.001504	0.000429	-0.000180				87.941257	1.629664	-41.489727
00601	605024	-0.261991	9.798559	0.324157				-0.006230	0.000664	-0.003532				87.939474	1.630683	-41.489580
00602	605074	-0.269685	9.822585	0.328927				-0.005221	0.000232	-0.002671				87.940379	1.630396	-41.490228
00603	605124	-0.273589	9.830596	0.329401				-0.002573	-0.000431	-0.001558				87.939636	1.630840	-41.490366
00604	605174	-0.276018	9.819671	0.327822				-0.005531	0.006765	0.003782				87.940499	1.628757	-41.489084
00605	605224	-0.274231	9.808008	0.316583				-0.007093	-0.001420	-0.003380				87.938463	1.629707	-41.489529
00606	605274	-0.271352	9.819163	0.303070				-0.003224	-0.000954	0.000237				87.939933	1.628578	-41.490474
00607	605324	-0.258891	9.810004	0.307092				-0.004374	-0.001044	0.000719				87.938676	1.628362	-41.490764
00608	605374	-0.241273	9.797750	0.331495				-0.004516	0.001444	-0.000712				87.939779	1.627521	-41.491025
00609	605424	-0.250650	9.798961	0.307012				-0.002763	0.002831	0.000288				87.939019	1.627470	-41.490213
00610	605474	-0.258277	9.804669	0.330981				-0.000991	0.000045	-0.003005				87.941115	1.627269	-41.490887
00611	605524	-0.238277	9.806924	0.323731				-0.003970	0.002351	-0.001995				87.940006	1.627862	-41.490238
00612	605574	-0.245833	9.811137	0.305556				-0.003172	-0.001766	-0.000928				87.941473	1.627051	-41.491426
00613	605624	-0.239468	9.810017	0.306301				-0.005615	-0.001490	-0.002231				87.939848	1.627669	-41.491871
00614	605674	-0.246740	9.843452	0.316887				-0.005180	0.001041	-0.002763				87.940797	1.627421	-41.492306
00615	605724	-0.219001	9.799497	0.313135				-0.003906	-0.003817	-0.000007				87.939647	1.627383	-41.493401
00616	605774	-0.233983	9.813929	0.334355				-0.007662	-0.002953	-0.005316				87.939825	1.627817	-41.494964
00617	605824	-0.240854	9.816447	0.304064				-0.001714	-0.003360	-0.001740				87.939319	1.628281	-41.495949
00618	605874	-0.226822	9.798595	0.334967				-0.005874	-0.002561	-0.002366				87.940024	1.627871	-41.497381
00619	605924	-0.249291	9.816055	0.322422				-0.006440	0.000573	0.001343				87.938185	1.627487	-41.497207
00620	605974	-0.267719	9.819997	0.328942				-0.005513	-0.000483	-0.000206				87.938981	1.626485	-41.498010
00621	606024	-0.280359	9.822000	0.342923				-0.004354	0.002780	0.003243				87.937754	1.625584	-41.497180
00622	606074	-0.268611	9.802241	0.326527				-0.002984	0.001926	0.002468				87.939302	1.623834	-41.497267
00623	606124	-0.266007	9.813277	0.319548				-0.002921	0.000092	0.005025				87.938463	1.622397	-41.497188
00624	606174	-0.260532	9.806542	0.315243				-0.003642	0.001333	0.001436				87.939848	1.620943	-41.497445
00625	606224	-0.275181	9.836543	0.311142				-0.001938	-0.001195	-0.000794				87.939270	1.621154	-41.497788
00626	606274	-0.261413	9.812459	0.330637				-0.005507	-0.001638	0.001680				87.940086	1.619600	-41.498933
00627	606324	-0.269533	9.821307	0.303686				-0.001484	-0.002318	-0.000736				87.939648	1.619786	-41.499605
00628	606374	-0.243391	9.794150	0.301709				-0.003044	0.001565	0.000667				87.941210	1.618560	-41.499830
00629	606424	-0.239419	9.811444	0.321516				-0.000815	0.001159	0.002168				87.940985	1.617948	-41.499481
00630	606474	-0.250891	9.829405	0.317147				-0.004017	-0.000294	-0.001429				87.942230	1.617303	-41.500258
00631	606524	-0.256256	9.816878	0.325238				-0.002030	0.000744	-0.000979				87.941645	1.617593	-41.500047
00632	606574	-0.247422	9.819174	0.321843				-0.003189	0.002148	-0.000455				87.943175	1.616682	-41.500102
00633	606624	-0.233375	9.810045	0.340488				-0.000811	0.002900	-0.000108				87.942981	1.616746	-41.499285
00634	606674	-0.237777	9.805164	0.330231				-0.005551	-0.000189	0.000664				87.943771	1.615494	-41.499980
00635	606724	-0.245070	9.830747	0.327109				-0.001111	-0.002086	-0.002150				87.943435	1.616087	-41.500600
00636	606774	-0.235281	9.814187	0.316556				-0.005350	0.002328	-0.002342				87.944331	1.615729	-41.500649
00637	606824	-0.253536	9.807642	0.326371				-0.007580	-0.000267	-0.004149				87.942155	1.616915	-41.500769
00638	606874	-0.252837	9.801845	0.318050				-0.004818	0.004194	0.001995				87.943200	1.615323	-41.500220
00639	606924	-0.255432	9.801733	0.338919				-0.003549	0.001103	-0.002255				87.942192	1.615979	-41.499933
00640	606974	-0.263999	9.801382	0.324148				-0.004415	-0.002150	-0.004229				87.943299	1.616112	-41.501193
00641	607024	-0.232432	9.803802	0.315090				-0.003322	0.000173	0.000013				87.942356	1.616112	-41.501149
00642	607074	-0.248736	9.807485	0.324954				-0.002711	-0.001173	-0.001503				87.943981	1.615474	-41.502174
00643	607124	-0.255200	9.813855	0.306588				-0.004268	-0.001599	-0.002493				87.942749	1.616170	-41.502664
00644	607174	-0.268166	9.817160	0.327955				-0.003043	-0.000699	-0.002071				87.944258	1.615699	-41.503541
00645	607224	-0.270633	9.816209	0.341848				-0.009941	0.000829	-0.001214				87.941418	1.616053	-41.503314
00646	607274	-0.259965	9.813826	0.335592				-0.004722	0.001155	0.002655				87.942476	1.614243	-41.503620
00647	607324	-0.267228	9.821276	0.323209				-0.004617	-0.000434	0.000562				87.941163	1.614081	-41.503738
00648	607374	-0.265278	9.819785	0.328988				-0.006040	0.000387	0.002947				87.941817	1.612182	-41.504264
00649	607424	-0.273720	9.826209	0.321373				-0.007086	0.001717	-0.001182				87.939798	1.612542	-41.503784
00650	607474	-0.258942	9.824591	0.315258				-0.006990	0.001524	-0.003687				87.940220	1.612555	-41.504057
00651	607524	-0.248072	9.821185	0.329273				-0.002491	-0.002243	-0.003271				87.939486	1.613465	-41.504729
00652	607574	-0.250582	9.808307	0.316055				-0.001051	-0.001889	-0.000287				87.941579	1.612477	-41.505915
00653	607624	-0.256684	9.823466	0.312669				-0.008088	-0.000010	-0.000130				87.939262	1.612514	-41.505918
00654	607674	-0.239213	9.798853	0.307685				-0.001582	0.002853	-0.001191				87.941222	1.611832	-41.505741
00655	607724	-0.225198	9.802381	0.305676				-0.004055	0.000998	-0.000520				87.940067	1.611993	-41.505465
00656	607774	-0.251210	9.823217	0.302732				-0.003795	-0.000290	-0.001911				87.941360	1.611469	-41.506239
00657	607824	-0.257000	9.810848	0.300361				-0.004707	0.003279	-0.003521				87.940041	1.612509	-41.505338
00658	607874	-0.223421	9.794693	0.344507				-0.003217	-0.000152	-0.000567				87.941526	1.611621	-41.506046
00659	607924	-0.240556	9.829428	0.308210				-0.006144	0.000348	0.000411				87.939770	1.611508	-41.505944
00660	607974	-0.252853	9.806795	0.320376				0.000412	-0.001971	-0.005266				87.942271	1.611929	-41.507221
00661	608024	-0.261078	9.823556	0.318770				-0.002611	0.001931	-0.001802				87.941534	1.612466	-41.506686
00662	608074	-0.246533	9.784315	0.321865				-0.002651	0.001085	-0.001231				87.943194	1.611778	-41.507106
00663	608124	-0.264046	9.810849	0.325302				-0.003353	-0.000155	-0.001780				87.942219	1.612284	-41.507161
00664	608174	-0.263353	9.823092	0.332018				-0.003962	0.002999	-0.003751				87.943484	1.612334	-41.506977
00665	608224	-0.276778	9.812502	0.315279				-0.001986	0.000456	0.000213				87.942911	1.612276	-41.506843
00666	608274	-0.261374	9.807886	0.319573				-0.004169	-0.002786	-0.001889				87.944111	1.611729	-41.508314
00667	608324	-0.271989	9.824024	0.310742				-0.005034	0.002527	-0.003365				87.942693	1.612721	-41.507628
00668	608374	-0.276831	9.822657	0.318428				-0.003640	0.002972	-0.004233				87.944059	1.612905	-41.507458
00669	608424	-0.269349	9.826000	0.306963				-0.007001	0.002017	-0.000635				87.942064	1.613109	-41.506886
00670	608474	-0.251662	9.803285	0.333838				-0.001831	0.000583	-0.001302				87.943956	1.612432	-41.507393
00671	608524	-0.265580	9.798748	0.324091				-0.001616	-0.000288	-0.002075				87.943494	1.613021	-41.507503
00672	608574	-0.250862	9.804700	0.319445				-0.001898	0.001687	-0.000524				87.945378	1.612144	-41.507685
00673	608624	-0.244097	9.796390	0.309569				-0.003039	-0.001224	-0.005186				87.944500	1.613620	-41.508089
00674	608674	-0.250497	9.816648	0.313715				-0.001177	0.001853	-0.004372				87.946555	1.613829	-41.508263
00675	608724	-0.242227	9.805455	0.307772				-0.005928	-0.002789	-0.001854				87.944826	1.614327	-41.509077
00676	608774	-0.247904	9.808911	0.341343				-0.006213	0.001249	-0.001672				87.945478	1.613770	-41.509380
00677	608824	-0.236002	9.797864	0.328510				-0.003353	-0.000022	-0.001365				87.944511	1.614164	-41.509394
00678	608874	-0.246840	9.817492	0.308119				-0.001435	-0.000925	-0.000699				87.946490	1.613303	-41.510300
00679	608924	-0.245387	9.809730	0.320700				-0.005051	0.003311	0.000106				87.945073	1.613309	-41.509346
00680	608974	-0.243594	9.811828	0.324718				-0.002738	-0.000244	-0.002749				87.946678	1.613034	-41.510069
00681	609024	-0.237846	9.810964	0.323550				-0.003160	0.004051	-0.001310				87.945809	1.613450	-41.508916
00682	609074	-0.245961	9.813776	0.319236				-0.005038	0.002789	-0.000831				87.946789	1.612664	-41.508781
00683	609124	-0.252622	9.804167	0.337289				-0.005870	0.000445	-0.003119				87.945116	1.613564	-41.508684
00684	609174	-0.282599	9.811790	0.326165				-0.003155	0.000916	-0.000619				87.946608	1.612691	-41.509074
00685	609224	-0.266904	9.794483	0.322915				-0.004265	-0.000461	-0.000399				87.945370	1.612801	-41.509205
00686	609274	-0.262338	9.809835	0.315497				-0.003371	-0.000609	-0.002715				87.946816	1.612518	-41.510050
00687	609324	-0.276124	9.817643	0.321338				-0.004844	0.002025	0.003114				87.945448	1.611646	-41.509441
00688	609374	-0.260997	9.811790	0.327942				-0.004974	-0.001639	-0.002872				87.946411	1.611402	-41.510582
00689	609424	-0.262570	9.815573	0.311938				-0.005811	-0.000198	-0.000042				87.944751	1.611409	-41.510648
00690	609474	-0.270833	9.808300	0.331381				-0.005032	0.000729	0.001567				87.945684	1.609912	-41.511020
00691	609524	-0.266843	9.817469	0.340154				-0.003135	0.002207	-0.002506				87.944801	1.610651	-41.510422
00692	609574	-0.268515	9.808070	0.317678				-0.004869	-0.000796	-0.002197				87.945791	1.610222	-41.511305
00693	609624	-0.259800	9.797023	0.317598				-0.002800	-0.001311	-0.001342				87.944968	1.610591	-41.511683
00694	609674	-0.274035	9.806863	0.314358				-0.004782	0.000396	-0.005336				87.946044	1.611073	-41.512303
00695	609724	-0.254981	9.814278	0.325330				-0.007106	-0.003029	-0.000308				87.943985	1.611129	-41.513174
00696	609774	-0.250871	9.812331	0.316356				-0.004156	-0.000844	0.000112				87.945181	1.610046	-41.514054
00697	609824	-0.231701	9.797424	0.314356				-0.002526	0.002119	-0.002640				87.944472	1.610825	-41.513474
00698	609874	-0.249429	9.810391	0.305071				-0.003325	0.003005	-0.004917				87.945924	1.611216	-41.513277
00699	609924	-0.232469	9.809212	0.334009				-0.003813	0.000188	-0.004491				87.944836	1.612505	-41.513275
00700	609974	-0.258074	9.819939	0.309700				-0.003739	0.000198	0.000101				87.946165	1.611425	-41.513854
00701	610024	-0.240917	9.801424	0.324197				-0.001774	0.000448	-0.004557				87.945654	1.612733	-41.513773
00702	610074	-0.257783	9.827863	0.319083				-0.004360	-0.000621	-0.001246				87.946789	1.612029	-41.514592
00703	610124	-0.252972	9.795835	0.292420				-0.004521	0.000402	-0.002175				87.945494	1.612660	-41.514492
00704	610174	-0.252586	9.811327	0.318601				-0.005335	0.001942	-0.001265				87.946380	1.611993	-41.514601
00705	610224	-0.254592	9.815079	0.320001				-0.004335	0.002636	-0.003444				87.945157	1.613002	-41.513882
00706	610274	-0.250162	9.813667	0.338675				-0.004365	-0.002795	-0.003857				87.946267	1.613027	-41.515326
00707	610324	-0.279813	9.824787	0.316286				-0.004361	0.000010	-0.007691				87.945010	1.615225	-41.515401
00708	610374	-0.271428	9.808807	0.328688				-0.003565	-0.003718	-0.003865				87.946387	1.615257	-41.517140
00709	610424	-0.264222	9.799910	0.342293				-0.002483	-0.000171	-0.001697				87.945678	1.615742	-41.517210
00710	610474	-0.259977	9.816226	0.318605				-0.004480	0.001410	-0.000051				87.946789	1.614718	-41.517443
00711	610524	-0.266778	9.801343	0.324371				-0.003897	0.000936	-0.002332				87.945690	1.615395	-41.517210
00712	610574	-0.273425	9.816764	0.319063				-0.001976	0.000866	-0.003330				87.947537	1.615318	-41.517608
00713	610624	-0.256412	9.812339	0.326738				-0.004379	-0.000013	-0.001850				87.946276	1.615845	-41.517627
00714	610674	-0.269690	9.812048	0.320069				-0.003990	-0.000905	0.001189				87.947521	1.614448	-41.518483
00715	610724	-0.250820	9.806957	0.311784				-0.003146	-0.000640	-0.002956				87.946604	1.615287	-41.518692
00716	610774	-0.223381	9.809439	0.326597				-0.007436	0.003391	-0.003114				87.946906	1.615170	-41.518373
00717	610824	-0.252516	9.815980	0.324815				-0.006261	-0.000634	-0.005253				87.945113	1.616674	-41.518610
00718	610874	-0.259855	9.804331	0.320527				-0.004412	0.000088	-0.001244				87.946246	1.615984	-41.519244
00719	610924	-0.241992	9.806636	0.324120				-0.006761	-0.000371	0.002125				87.944314	1.615376	-41.519334
00720	610974	-0.235524	9.797241	0.323476				-0.003844	0.001192	-0.001692				87.945605	1.614822	-41.519624
00721	611024	-0.242181	9.806934	0.319825				0.000554	-0.001788	0.002613				87.945750	1.614056	-41.520108
00722	611074	-0.223579	9.796086	0.315046				-0.003181	0.000555	-0.002084				87.947255	1.613613	-41.520598
00723	611124	-0.254838	9.816441	0.324346				-0.004996	-0.001736	-0.001673				87.945819	1.614076	-41.521113
00724	611174	-0.266859	9.814425	0.306137				-0.004821	-0.000182	-0.002659				87.946848	1.613789	-41.521831
00725	611224	-0.262008	9.803169	0.317374				-0.002250	-0.002562	-0.001165				87.946184	1.614100	-41.522574
00726	611274	-0.253782	9.820131	0.316214				-0.005926	-0.000484	0.001127				87.946884	1.612726	-41.523313
00727	611324	-0.252134	9.800395	0.351769				-0.000758	-0.000982	-0.001708				87.946660	1.613201	-41.523615
00728	611374	-0.287307	9.831261	0.305764				-0.003545	-0.002100	-0.002220				87.948008	1.612773	-41.524882
00729	611424	-0.283660	9.820548	0.326355				-0.001785	0.000004	-0.001608				87.947500	1.613231	-41.524895
00730	611474	-0.266910	9.810467	0.332782				-0.003379	0.000979	-0.000215				87.948928	1.612262	-41.525222
00731	611524	-0.256964	9.803824	0.309010				-0.003843	0.002491	0.000083				87.947856	1.612262	-41.524513
00732	611574	-0.271113	9.805716	0.329396				-0.001848	-0.003068	-0.000659				87.949692	1.611374	-41.526024
00733	611624	-0.282521	9.817698	0.327541				-0.004650	0.003602	-0.002220				87.948383	1.612043	-41.525020
00734	611674	-0.263611	9.803532	0.323393				-0.002989	0.000893	0.001258				87.949948	1.610655	-41.525396
00735	611724	-0.252835	9.815099	0.320049				-0.005252	0.001396	0.000143				87.948447	1.610629	-41.524990
00736	611774	-0.271531	9.809134	0.322716				-0.004054	-0.000969	0.002213				87.949659	1.608952	-41.525834
00737	611824	-0.245471	9.803996	0.307744				-0.004750	0.001697	0.000080				87.948308	1.608947	-41.525348
00738	611874	-0.241618	9.797391	0.323487				-0.001679	0.002146	0.003056				87.950265	1.607053	-41.525299
00739	611924	-0.245788	9.826290	0.323283				-0.003707	0.002334	-0.000053				87.949223	1.607095	-41.524628
00740	611974	-0.233447	9.807687	0.308587				-0.001127	-0.000601	-0.002867				87.951274	1.606859	-41.525420
00741	612024	-0.230152	9.812094	0.318146				-0.002982	0.001632	-0.000025				87.950437	1.606888	-41.524950
00742	612074	-0.238811	9.806874	0.341502				-0.004946	-0.000049	0.000454				87.951419	1.605714	-41.525578
00743	612124	-0.230842	9.806885	0.316797				-0.005289	-0.002714	-0.001611				87.949891	1.606148	-41.526374
00744	612174	-0.252516	9.822679	0.320944				-0.001990	-0.000615	-0.001900				87.951699	1.605647	-41.527196
00745	612224	-0.241760	9.792262	0.333384				-0.004555	0.002374	-0.003702				87.950415	1.606729	-41.526560
00746	612274	-0.254261	9.808902	0.320563				-0.006422	0.000732	-0.001976				87.950969	1.606257	-41.526986
00747	612324	-0.260344	9.813676	0.313896				0.000820	0.000993	0.002146				87.951214	1.605653	-41.526683
00748	612374	-0.247383	9.788329	0.322082				-0.002941	0.000983	-0.002018				87.952780	1.605202	-41.527022
00749	612424	-0.252620	9.809620	0.337289				-0.006010	-0.002142	-0.001798				87.951043	1.605695	-41.527659
00750	612474	-0.265195	9.804533	0.333949				-0.002606	-0.002241	-0.000428				87.952678	1.604753	-41.528954
00751	612524	-0.261662	9.808265	0.325505				-0.001463	-0.001124	-0.002829				87.952244	1.605550	-41.529307
00752	612574	-0.277632	9.811172	0.324479				-0.005627	0.001132	-0.001041				87.953048	1.604813	-41.529588
00753	612624	-0.271223	9.801598	0.319306				-0.004134	-0.000417	0.000386				87.951848	1.604691	-41.529697
00754	612674	-0.248609	9.795233	0.319967				-0.002971	-0.001252	-0.003726				87.953385	1.604716	-41.530735
00755	612724	-0.264799	9.818239	0.322279				-0.006548	0.002927	-0.000548				87.951528	1.604895	-41.529902
00756	612774	-0.265829	9.807937	0.328015				-0.006822	0.004967	0.004177				87.952017	1.602715	-41.529045
00757	612824	-0.246905	9.807530	0.323827				-0.004394	-0.000824	-0.003786				87.950761	1.603794	-41.529325
00758	612874	-0.261677	9.812693	0.315215				-0.002708	0.001661	-0.004287				87.952398	1.603999	-41.529530
00759	612924	-0.252688	9.818071	0.312260				-0.001745	0.000681	-0.002435				87.951899	1.604704	-41.529356
00760	612974	-0.237574	9.813492	0.313665				-0.002243	0.000352	-0.001030				87.953656	1.603968	-41.529858
00761	613024	-0.238725	9.804765	0.324726				-0.003405	0.001489	-0.003136				87.952692	1.604884	-41.529462
00762	613074	-0.238233	9.810327	0.318297				-0.006683	0.003082	-0.001352				87.953209	1.604267	-41.529201
00763	613124	-0.250200	9.806810	0.321145				-0.002834	0.000761	-0.001600				87.952407	1.604730	-41.529005
00764	613174	-0.243474	9.811934	0.317786				-0.004011	-0.000388	0.001509				87.953654	1.603254	-41.529679
00765	613224	-0.250558	9.809027	0.300527				-0.002789	0.001341	-0.002305				87.952865	1.603930	-41.529317
00766	613274	-0.254529	9.810974	0.324963				-0.001741	0.001653	-0.002558				87.954758	1.603628	-41.529456
00767	613324	-0.258255	9.813871	0.318503				-0.001614	0.002144	0.002160				87.954307	1.603034	-41.528813
00768	613374	-0.254777	9.813426	0.319329				-0.005723	0.001001	-0.001399				87.955092	1.602411	-41.529188
00769	613424	-0.255191	9.796887	0.314909				-0.002544	-0.001332	-0.000712				87.954347	1.602600	-41.529580
00770	613474	-0.266424	9.818997	0.317965				-0.006729	0.001340	-0.001551				87.954818	1.602018	-41.529802
00771	613524	-0.277301	9.807833	0.325250				0.000007	0.000034	-0.001443				87.954821	1.602430	-41.529811
00772	613574	-0.255613	9.807837	0.312313				-0.003836	0.000966	-0.003263				87.956136	1.602340	-41.530166
00773	613624	-0.280030	9.821731	0.329250				-0.004891	0.001411	0.002488				87.954743	1.601640	-41.529737
00774	613674	-0.258375	9.823819	0.303638				-0.000085	0.000129	0.000060				87.957116	1.600588	-41.530270
00775	613724	-0.262775	9.802262	0.329588				-0.002748	-0.000986	-0.001450				87.956305	1.600989	-41.530562
00776	613774	-0.269129	9.800890	0.320771				-0.003744	0.001166	-0.001017				87.957665	1.600260	-41.530856
00777	613824	-0.267721	9.815887	0.333994				-0.006060	-0.001429	0.000259				87.955915	1.600167	-41.531265
00778	613874	-0.253048	9.804959	0.331562				-0.007679	-0.002204	-0.002725				87.956086	1.599893	-41.532499
00779	613924	-0.241594	9.802756	0.329974				-0.002765	0.002699	-0.002522				87.955312	1.600639	-41.531751
00780	613974	-0.240716	9.799671	0.315091				-0.002968	-0.001118	-0.001738				87.956853	1.600091	-41.532690
00781	614024	-0.254561	9.800796	0.323515				-0.003188	0.001913	-0.002363				87.955954	1.600790	-41.532168
00782	614074	-0.248210	9.840177	0.328521				-0.002041	0.000127	-0.000066				87.957762	1.599772	-41.532719
00783	614124	-0.223716	9.800048	0.335636				-0.001726	0.000162	-0.002410				87.957278	1.600466	-41.532704
00784	614174	-0.246726	9.814720	0.318808				-0.005462	0.000678	-0.004000				87.958127	1.600589	-41.533126
00785	614224	-0.250752	9.807183	0.311794				-0.004350	-0.000617	0.001574				87.956878	1.600135	-41.533293
00786	614274	-0.234275	9.815780	0.306191				-0.003149	0.002494	-0.003742				87.958374	1.600192	-41.533177
00787	614324	-0.266671	9.825649	0.301515				-0.000823	0.000315	0.000098				87.958149	1.600167	-41.533089
00788	614374	-0.239785	9.798257	0.314922				-0.003364	0.002529	-0.000211				87.959603	1.599222	-41.532968
00789	614424	-0.262677	9.796643	0.324227				-0.006693	-0.000956	-0.003038				87.957669	1.600080	-41.533268
00790	614474	-0.267664	9.812312	0.319549				-0.004002	0.000151	-0.002944				87.958928	1.599892	-41.533862
00791	614524	-0.249820	9.788059	0.306878				-0.004946	-0.000213	-0.000571				87.957509	1.600053	-41.533927
00792	614574	-0.263383	9.813236	0.324577				-0.004905	-0.001672	-0.002115				87.958478	1.599607	-41.535010
00793	614624	-0.263023	9.800283	0.334650				-0.002716	0.001018	-0.002816				87.957710	1.600425	-41.534743
00794	614674	-0.280297	9.821098	0.309088				-0.003866	0.001933	-0.003480				87.959008	1.600400	-41.534827
00795	614724	-0.269756	9.818805	0.311880				-0.004727	-0.000948	0.001220				87.957641	1.600043	-41.535083
00796	614774	-0.272395	9.794256	0.333179				-0.001172	0.002249	0.000006				87.959727	1.599033	-41.535017
00797	614824	-0.258909	9.826445	0.317820				-0.003524	-0.000705	-0.001409				87.958721	1.599430	-41.535236
00798	614874	-0.260659	9.809877	0.314143				-0.004534	0.000761	-0.003386				87.959814	1.599372	-41.535642
00799	614924	-0.251590	9.807425	0.311069				-0.001921	0.001123	-0.003908				87.959275	1.600504	-41.535360
00800	614974	-0.253933	9.824788	0.321817				-0.000168	-0.001393	-0.001104				87.961604	1.599777	-41.536324
00801	615024	-0.249355	9.822011	0.320870				-0.000423	0.002681	-0.000342				87.961508	1.599906	-41.535558
00802	615074	-0.244776	9.812160	0.332771				-0.008576	0.000175	0.000113				87.961439	1.598842	-41.536114
00803	615124	-0.247393	9.798825	0.318538				-0.004762	-0.000856	-0.000130				87.960061	1.598873	-41.536356
00804	615174	-0.262308	9.804787	0.319770				-0.004383	0.003189	-0.001930				87.961244	1.598431	-41.536066
00805	615224	-0.261917	9.810927	0.322035				-0.007392	0.003037	-0.003530				87.959153	1.599476	-41.535230
00806	615274	-0.236446	9.803624	0.339105				-0.003903	0.000996	-0.003491				87.960453	1.599458	-41.535608
00807	615324	-0.238611	9.796180	0.328084				-0.005257	-0.001608	-0.000001				87.958935	1.599440	-41.536066
00808	615374	-0.237328	9.832276	0.326322				-0.002444	0.004040	0.001431				87.960653	1.598045	-41.535465
00809	615424	-0.248064	9.825274	0.325644				-0.001332	-0.000348	-0.003788				87.960277	1.599128	-41.535605
00810	615474	-0.247366	9.812140	0.316408				-0.005819	0.001801	-0.004182				87.961006	1.599310	-41.535719
00811	615524	-0.255994	9.808583	0.325273				-0.005011	-0.001646	-0.005356				87.959552	1.600825	-41.536243
00812	615574	-0.260409	9.815511	0.302776				-0.002451	0.001771	-0.001592				87.961266	1.600268	-41.536328
00813	615624	-0.249609	9.794586	0.330135				-0.009134	0.002488	-0.003593				87.958677	1.601323	-41.535661
00814	615674	-0.249977	9.807220	0.325790				-0.006107	0.006130	-0.001788				87.959363	1.600870	-41.534498
00815	615724	-0.254393	9.798824	0.328347				-0.002208	0.001197	-0.001600				87.958729	1.601336	-41.534163
00816	615774	-0.282888	9.801698	0.318952				-0.002705	-0.001235	-0.000359				87.960355	1.600400	-41.535138
00817	615824	-0.267269	9.822777	0.318129				-0.003625	0.001618	-0.001563				87.959327	1.600867	-41.534690
00818	615874	-0.262506	9.795691	0.309466				-0.002251	-0.003591	-0.000885				87.961069	1.600057	-41.536321
00819	615924	-0.256478	9.797159	0.326996				-0.005532	-0.001065	-0.002117				87.959472	1.600650	-41.536642
00820	615974	-0.267314	9.811094	0.322414				-0.002248	-0.000519	0.000224				87.961215	1.599558	-41.537377
00821	616024	-0.247526	9.803452	0.325750				-0.003449	0.000104	-0.000926				87.960240	1.599824	-41.537363
00822	616074	-0.244900	9.806154	0.322094				-0.001957	-0.000646	-0.001192				87.962074	1.599135	-41.538143
00823	616124	-0.243603	9.793912	0.332428				-0.004820	-0.002275	0.000668				87.960682	1.598921	-41.538796
00824	616174	-0.251601	9.813662	0.306392				-0.007594	0.004584	-0.002433				87.960907	1.598640	-41.538063
00825	616224	-0.242045	9.821378	0.290888				-0.000689	-0.001340	-0.002354				87.960694	1.599298	-41.538470
00826	616274	-0.235524	9.804669	0.318234				-0.006276	-0.002819	0.000152				87.961288	1.598204	-41.539818
00827	616324	-0.241608	9.808502	0.326254				-0.007076	-0.000703	-0.000060				87.959246	1.598211	-41.540022
00828	616374	-0.214542	9.779412	0.327039				-0.003689	0.001524	-0.000475				87.960599	1.597337	-41.540162
00829	616424	-0.223131	9.798218	0.315826				-0.005556	0.004818	-0.001604				87.959029	1.597843	-41.538792
00830	616474	-0.225133	9.793985	0.311682				-0.003550	0.003267	-0.000847				87.960468	1.597092	-41.538425
00831	616524	-0.253085	9.817156	0.309668				-0.002836	-0.002375	-0.001840				87.959632	1.597592	-41.539129
00832	616574	-0.242735	9.822826	0.319739				-0.006236	0.001055	-0.002104				87.960245	1.597177	-41.539434
00833	616624	-0.289654	9.817815	0.329963				-0.003619	0.003329	-0.002477				87.959231	1.597920	-41.538505
00834	616674	-0.274559	9.806261	0.306515				-0.005555	0.002878	-0.001419				87.960053	1.597325	-41.538287
00835	616724	-0.258989	9.795594	0.318769				-0.003321	0.001141	-0.000408				87.959101	1.597451	-41.537956
00836	616774	-0.277458	9.809012	0.310118				-0.006039	-0.003300	-0.000615				87.959753	1.596574	-41.539496
00837	616824	-0.275705	9.810903	0.328005				-0.003946	0.001746	0.000432				87.958638	1.596468	-41.538995
00838	616874	-0.277911	9.802937	0.319639				-0.004303	0.000765	-0.001848				87.959803	1.595972	-41.539389
00839	616924	-0.254428	9.810355	0.318556				-0.004350	-0.000913	-0.000802				87.958543	1.596189	-41.539657
00840	616974	-0.254695	9.811685	0.309254				-0.006762	0.003304	-0.003658				87.959040	1.596248	-41.539331
00841	617024	-0.266989	9.827209	0.323398				-0.003424	0.000234	-0.000090				87.958053	1.596275	-41.539257
00842	617074	-0.263279	9.807771	0.325548				-0.003496	0.000523	-0.000123				87.959453	1.595294	-41.539667
00843	617124	-0.293574	9.821356	0.312078				-0.007338	-0.000611	-0.001014				87.957343	1.595577	-41.539851
00844	617174	-0.273721	9.824522	0.323006				-0.006221	0.001736	-0.000234				87.957986	1.594637	-41.539926
00845	617224	-0.234656	9.811539	0.319255				0.002036	0.003213	0.001347				87.958587	1.594283	-41.538989
00846	617274	-0.238564	9.797598	0.312713				-0.003365	-0.001643	-0.000136				87.959992	1.593276	-41.540035
00847	617324	-0.232379	9.805342	0.338664				0.001368	0.000608	-0.001644				87.960391	1.593756	-41.539876
00848	617374	-0.265190	9.783307	0.310629				-0.001553	0.002955	-0.000241				87.962375	1.592833	-41.539590
00849	617424	-0.244085	9.809928	0.324005				-0.001626	-0.001096	-0.002319				87.961900	1.593482	-41.539929
00850	617474	-0.253936	9.808228	0.303440				-0.003120	-0.002645	-0.004598				87.963374	1.593751	-41.541298
00851	617524	-0.250630	9.804895	0.321725				-0.004429	-0.000399	-0.001955				87.962099	1.594307	-41.541431
00852	617574	-0.254933	9.805055	0.323864				-0.004838	-0.000768	-0.002883				87.963119	1.594100	-41.542242
00853	617624	-0.258995	9.806231	0.321465				-0.005502	-0.000196	-0.003295				87.961542	1.595041	-41.542333
00854	617674	-0.255013	9.822336	0.326024				-0.004630	-0.000640	-0.006219				87.962583	1.595787	-41.543145
00855	617724	-0.276379	9.816514	0.317055				-0.005947	0.001130	-0.000624				87.960882	1.595979	-41.542816
00856	617774	-0.266004	9.802686	0.314721				-0.001128	0.000434	-0.001319				87.962979	1.595342	-41.543272
00857	617824	-0.273024	9.820892	0.328219				-0.003261	0.002107	-0.001974				87.962063	1.595934	-41.542683
00858	617874	-0.264199	9.815921	0.303991				-0.003833	0.000066	-0.000475				87.963350	1.595039	-41.543269
00859	617924	-0.261048	9.809499	0.307523				-0.003839	0.003328	-0.001229				87.962273	1.595426	-41.542322
00860	617974	-0.264348	9.809401	0.311164				-0.004285	-0.001719	0.001728				87.963419	1.593894	-41.543348
00861	618024	-0.247854	9.795132	0.311534				-0.001556	-0.000290	-0.003375				87.962953	1.594855	-41.543462
00862	618074	-0.266826	9.803087	0.318821				-0.002186	-0.001623	-0.002734				87.964735	1.594607	-41.544524
00863	618124	-0.251754	9.803940	0.321917				-0.003219	-0.000056	-0.000995				87.963808	1.594892	-41.544543
00864	618174	-0.251890	9.814355	0.307716				-0.002340	-0.003988	-0.003356				87.965513	1.594789	-41.546258
00865	618224	-0.254883	9.828790	0.322842				-0.001520	-0.002255	-0.000206				87.965070	1.594823	-41.546906
00866	618274	-0.242375	9.811407	0.321670				-0.005631	0.003233	-0.001386				87.965863	1.594233	-41.546548
00867	618324	-0.251933	9.808116	0.327857				-0.003158	0.001881	-0.004191				87.964970	1.595451	-41.546050
00868	618374	-0.232706	9.809048	0.313404				-0.002727	0.002507	-0.002103				87.966607	1.595066	-41.545890
00869	618424	-0.253984	9.807846	0.312519				-0.002909	-0.002025	-0.002702				87.965758	1.595814	-41.546486
00870	618474	-0.245286	9.829782	0.328339				-0.003190	-0.001121	-0.001707				87.967220	1.595273	-41.547407
00871	618524	-0.246576	9.806550	0.325899				-0.003288	-0.001191	-0.002219				87.966264	1.595894	-41.547771
00872	618574	-0.252078	9.813018	0.317076				-0.002998	-0.000019	-0.000159				87.967815	1.594922	-41.548348
00873	618624	-0.257932	9.811018	0.303824				-0.000125	-0.005010	-0.000961				87.967737	1.595149	-41.549793
00874	618674	-0.261554	9.807677	0.317634				-0.002559	0.000343	-0.001030				87.969406	1.594428	-41.550273
00875	618724	-0.251252	9.805807	0.339707				-0.005641	0.000321	-0.002654				87.967795	1.595190	-41.550206
00876	618774	-0.271661	9.804254	0.331369				-0.004112	-0.000462	-0.003203				87.968993	1.595084	-41.550912
00877	618824	-0.245092	9.821557	0.322816				-0.003307	0.001954	0.001938				87.968057	1.594548	-41.550333
00878	618874	-0.276229	9.825241	0.304956				-0.002175	0.001323	-0.000956				87.969866	1.593826	-41.550523
00879	618924	-0.263937	9.805578	0.297465				-0.003202	-0.000699	0.001123				87.968944	1.593498	-41.550714
00880	618974	-0.283421	9.823709	0.321827				-0.004991	-0.001767	0.000001				87.969899	1.592461	-41.551761
00881	619024	-0.261366	9.813402	0.315773				-0.005516	-0.000355	-0.000282				87.968328	1.592540	-41.551872
00882	619074	-0.258955	9.788320	0.329359				-0.003796	0.002138	0.001587				87.969659	1.591093	-41.551791
00883	619124	-0.250179	9.797190	0.314662				-0.002802	0.004122	-0.000266				87.968887	1.591213	-41.550610
00884	619174	-0.248761	9.807354	0.318301				-0.005201	0.000619	-0.002558				87.969797	1.590935	-41.551009
00885	619224	-0.263916	9.819063	0.331005				-0.003179	-0.002410	-0.000456				87.968867	1.591038	-41.551712
00886	619274	-0.255546	9.817588	0.325686				-0.001702	0.001525	-0.001375				87.970788	1.590442	-41.551848
00887	619324	-0.236877	9.800743	0.310058				-0.004013	0.001678	-0.001753				87.969644	1.590961	-41.551377
00888	619374	-0.242360	9.811155	0.322667				-0.006576	-0.001830	-0.003559				87.970163	1.590946	-41.552498
00889	619424	-0.230705	9.798725	0.322559				-0.005391	0.002918	0.000472				87.968633	1.590835	-41.551653
00890	619474	-0.248917	9.815508	0.327506				0.000284	0.000460	-0.001930				87.971120	1.590385	-41.552096
00891	619524	-0.248794	9.797690	0.313730				-0.003227	0.000133	-0.000603				87.970188	1.590555	-41.552061
00892	619574	-0.248089	9.823007	0.303193				-0.002921	0.001667	-0.000923				87.971785	1.589826	-41.552162
00893	619624	-0.236074	9.798102	0.328118				-0.004898	-0.001027	-0.002407				87.970374	1.590502	-41.552489
00894	619674	-0.248652	9.800763	0.314666				-0.003306	0.002265	-0.004349				87.971837	1.590765	-41.552438
00895	619724	-0.249915	9.802987	0.307929				-0.001838	0.000282	-0.006543				87.971317	1.592642	-41.552423
00896	619774	-0.254001	9.810080	0.321700				-0.004835	0.000108	-0.002013				87.972314	1.592200	-41.552972
00897	619824	-0.257555	9.798097	0.326888				-0.002920	-0.000738	-0.003241				87.971467	1.593122	-41.553212
00898	619874	-0.264448	9.805047	0.316755				-0.005124	-0.001871	-0.003329				87.972424	1.593048	-41.554342
00899	619924	-0.248803	9.798632	0.314243				-0.006342	0.001474	-0.001245				87.970605	1.593417	-41.553924
00900	619974	-0.256512	9.804267	0.312082				-0.003975	-0.001723	-0.002584				87.971841	1.593125	-41.554980
00901	620024	-0.250178	9.787255	0.328020				-0.000069	0.002650	0.000155				87.971843	1.593108	-41.554216
00902	620074	-0.265109	9.812490	0.309956				-0.004002	0.000416	-0.000580				87.973103	1.592265	-41.554688
00903	620124	-0.268935	9.805923	0.333270				-0.004701	0.004606	0.000567				87.971790	1.592149	-41.553366
00904	620174	-0.267941	9.819912	0.319098				-0.005562	0.004164	-0.002576				87.972640	1.591925	-41.552745
00905	620224	-0.255106	9.809809	0.322884				-0.004692	0.002182	0.000681				87.971309	1.591751	-41.552116
00906	620274	-0.255648	9.806392	0.328589				-0.002949	0.003798	0.000235				87.972889	1.590709	-41.551570
00907	620324	-0.252549	9.812342	0.314741				-0.004055	0.001864	-0.003591				87.971729	1.591753	-41.551072
00908	620374	-0.256826	9.813883	0.303522				-0.006697	0.000395	-0.002112				87.972230	1.591349	-41.551524
00909	620424	-0.236444	9.806529	0.304603				-0.005403	0.002360	0.001036				87.970698	1.591078	-41.550843
00910	620474	-0.246552	9.827347	0.315410				-0.004781	-0.000182	-0.000427				87.971736	1.590187	-41.551438
00911	620524	-0.243760	9.799720	0.309390				-0.002960	-0.000247	-0.000523				87.970883	1.590333	-41.551516
00912	620574	-0.224867	9.784393	0.318672				-0.005043	-0.000416	-0.002479				87.971848	1.590027	-41.552226
00913	620624	-0.232372	9.807650	0.327589				-0.006276	0.000273	-0.002889				87.970065	1.590861	-41.552182
00914	620674	-0.264929	9.819376	0.325526				-0.002664	-0.000505	-0.003347				87.971691	1.590802	-41.552899
00915	620724	-0.241864	9.810944	0.321763				-0.002224	-0.001206	-0.001333				87.971045	1.591170	-41.553264
00916	620774	-0.241590	9.805585	0.330924				-0.002123	-0.000167	0.000083				87.972825	1.590130	-41.553844
00917	620824	-0.267536	9.822606	0.328774				-0.004115	-0.000206	-0.002092				87.971657	1.590727	-41.553934
00918	620874	-0.263180	9.813586	0.332963				-0.003576	0.003202	-0.000599				87.973038	1.589913	-41.553608
00919	620924	-0.274532	9.810028	0.324006				-0.006142	-0.000856	-0.001898				87.971276	1.590448	-41.553881
00920	620974	-0.264281	9.803917	0.313145				-0.005168	-0.000054	0.001953				87.972187	1.588880	-41.554409
00921	621024	-0.256763	9.817970	0.331014				-0.004941	0.001719	-0.002400				87.970791	1.589586	-41.553946
00922	621074	-0.258867	9.815212	0.338670				-0.000525	0.002465	-0.007860				87.973057	1.590851	-41.553841
00923	621124	-0.267791	9.820425	0.300990				-0.006624	0.002505	0.000080				87.971181	1.590852	-41.553125
00924	621174	-0.265139	9.819618	0.324906				-0.004131	-0.001660	-0.001363				87.972390	1.590222	-41.554160
00925	621224	-0.273846	9.828760	0.309362				-0.005198	0.002980	-0.000433				87.970915	1.590378	-41.553305
00926	621274	-0.243718	9.815759	0.315565				-0.002262	0.005621	0.001364				87.972700	1.589030	-41.552239
00927	621324	-0.255180	9.827809	0.340180				-0.005010	0.000679	-0.004558				87.971281	1.590348	-41.552091
00928	621374	-0.258788	9.827562	0.337984				-0.002745	-0.001857	0.000331				87.972873	1.589220	-41.553156
00929	621424	-0.253156	9.824880	0.316331				-0.000877	0.001987	-0.001319				87.972638	1.589619	-41.552600
00930	621474	-0.246127	9.823265	0.318526				-0.005283	0.000224	-0.003180				87.973514	1.589525	-41.553108
00931	621524	-0.236242	9.794619	0.339052				-0.001139	0.003310	0.000291				87.973219	1.589475	-41.552156
00932	621574	-0.248103	9.812966	0.323812				-0.004920	0.000206	0.000156				87.974210	1.588414	-41.552627
00933	621624	-0.249604	9.808961	0.305116				-0.003482	-0.001001	-0.001393				87.973195	1.588797	-41.552928
00934	621674	-0.239589	9.797269	0.317738				-0.002670	0.000758	-0.002252				87.974841	1.588453	-41.553273
00935	621724	-0.231732	9.798712	0.323039				-0.005443	0.001424	-0.000802				87.973296	1.588697	-41.552875
00936	621774	-0.253929	9.803559	0.313733				-0.003073	0.000165	-0.003826				87.974824	1.588790	-41.553434
00937	621824	-0.257160	9.817079	0.311667				-0.005184	0.003330	-0.003193				87.973361	1.589734	-41.552518
00938	621874	-0.268108	9.824124	0.322288				-0.007298	-0.000351	0.002505				87.973681	1.588010	-41.553113
00939	621924	-0.270488	9.808978	0.333532				-0.004972	0.001654	-0.001694				87.972267	1.588514	-41.552655
00940	621974	-0.264666	9.819216	0.335873				-0.005654	-0.001101	-0.001580				87.973018	1.587947	-41.553513
00941	622024	-0.266317	9.819755	0.330368				-0.004444	0.000213	-0.001479				87.971742	1.588369	-41.553464
00942	622074	-0.266731	9.794865	0.313332				-0.004537	-0.000685	0.002014				87.972845	1.586778	-41.554144
00943	622124	-0.269514	9.800293	0.344160				-0.007759	-0.000364	-0.002018				87.970633	1.587353	-41.554276
00944	622174	-0.252779	9.800179	0.318329				-0.004783	-0.001111	0.002073				87.971636	1.585742	-41.555108
00945	622224	-0.263506	9.818166	0.312595				-0.003705	0.002328	-0.000218				87.970605	1.585829	-41.554448
00946	622274	-0.256785	9.799584	0.323315				-0.003690	0.002643	-0.003237				87.971954	1.585777	-41.554269
00947	622324	-0.249952	9.818890	0.323098				-0.004046	0.001131	0.002405				87.970801	1.585100	-41.553920
00948	622374	-0.255737	9.818887	0.318310				-0.000877	-0.001147	-0.000854				87.972938	1.584330	-41.554808
00949	622424	-0.263650	9.822398	0.314959				-0.002345	-0.001369	-0.000820				87.972252	1.584550	-41.555205
00950	622474	-0.255953	9.813652	0.319532				-0.003275	0.002752	-0.001758				87.973728	1.584076	-41.554935
00951	622524	-0.257612	9.802736	0.302704				-0.002047	0.001317	-0.003149				87.973154	1.584991	-41.554588
00952	622574	-0.230535	9.799929	0.322319				-0.004432	0.000826	-0.001062				87.974267	1.584295	-41.554891
00953	622624	-0.236034	9.800375	0.319360				-0.002426	0.001150	-0.002093				87.973577	1.584907	-41.554579
00954	622674	-0.248965	9.817135	0.314220				-0.004234	-0.000399	0.000057				87.974770	1.583880	-41.555240
00955	622724	-0.245626	9.792245	0.316135				-0.003756	0.001807	0.000162				87.973704	1.583853	-41.554715
00956	622774	-0.234311	9.821944	0.321567				-0.003338	0.004081	0.001872				87.975188	1.582353	-41.554085
00957	622824	-0.254444	9.808105	0.310939				-0.005659	0.002193	-0.001530				87.973590	1.582816	-41.553480
00958	622874	-0.254395	9.815139	0.331990				-0.004035	0.002446	-0.001310				87.974855	1.582215	-41.553314
00959	622924	-0.257119	9.816073	0.314906				-0.000177	0.000964	-0.001586				87.974811	1.582674	-41.553058
00960	622974	-0.258049	9.808393	0.320509				-0.003043	-0.002967	-0.002815				87.976294	1.582444	-41.554441
00961	623024	-0.254409	9.810637	0.315969				-0.006776	0.002241	0.000398				87.974363	1.582353	-41.553794
00962	623074	-0.281462	9.808683	0.328538				-0.005740	0.004742	-0.002506				87.975155	1.582107	-41.552980
00963	623124	-0.258140	9.822330	0.339675				-0.005005	-0.000485	-0.003758				87.973721	1.583180	-41.553158
00964	623174	-0.258803	9.813981	0.310881				-0.002054	0.002380	-0.004460				87.975548	1.583478	-41.553059
00965	623224	-0.269918	9.805829	0.322988				-0.005353	-0.001552	-0.002477				87.974005	1.584176	-41.553535
00966	623274	-0.242249	9.805779	0.317740				-0.002034	0.003131	-0.000286				87.975864	1.583288	-41.553169
00967	623324	-0.252145	9.819891	0.317563				-0.003324	0.003299	-0.001530				87.974946	1.583764	-41.552235
00968	623374	-0.243488	9.796615	0.310799				-0.003614	-0.000842	-0.001071				87.976280	1.583053	-41.552989
00969	623424	-0.262162	9.816037	0.313298				-0.002944	-0.003706	0.000131				87.975407	1.582980	-41.554053
00970	623474	-0.266373	9.824642	0.336329				-0.002640	-0.001016	0.000495				87.977044	1.581823	-41.554847
00971	623524	-0.250811	9.812728	0.337299				-0.006904	-0.000191	-0.002375				87.975059	1.582504	-41.554927
00972	623574	-0.249190	9.806893	0.316885				-0.004766	0.003405	-0.001589				87.976130	1.581991	-41.554488
00973	623624	-0.235999	9.798967	0.302841				-0.002807	-0.002888	0.002380				87.975301	1.581278	-41.555284
00974	623674	-0.221179	9.807338	0.326076				-0.004839	0.003530	-0.002555				87.976338	1.581052	-41.554800
00975	623724	-0.244840	9.797228	0.316121				-0.002611	0.001727	-0.004490				87.975610	1.582359	-41.554353
00976	623774	-0.255717	9.804162	0.303699				-0.005877	-0.002237	-0.000235				87.976302	1.581391	-41.555522
00977	623824	-0.258629	9.825456	0.336340				-0.004542	0.000042	-0.003660				87.974985	1.582432	-41.555545
00978	623874	-0.259508	9.831914	0.316373				-0.002591	-0.002735	-0.001114				87.976641	1.581736	-41.556884
00979	623924	-0.248863	9.805942	0.332731				-0.006222	-0.000601	-0.004013				87.974851	1.582879	-41.557094
00980	623974	-0.257685	9.819627	0.330300				-0.002524	-0.000592	0.000115				87.976530	1.581835	-41.557767
00981	624024	-0.260753	9.812711	0.314754				-0.002868	-0.000249	-0.003284				87.975702	1.582772	-41.557872
00982	624074	-0.248112	9.781552	0.314965				-0.005653	0.000832	-0.002056				87.976491	1.582371	-41.558169
00983	624124	-0.255631	9.806874	0.313022				-0.002602	0.001500	-0.003498				87.975768	1.583394	-41.557780
00984	624174	-0.253037	9.813334	0.311665				-0.005307	0.001197	-0.001508				87.976630	1.582838	-41.557962
00985	624224	-0.251888	9.801049	0.324350				-0.005998	0.001063	0.002412				87.974916	1.582158	-41.557633
00986	624274	-0.267701	9.804523	0.317426				-0.002957	-0.003349	-0.000412				87.976434	1.581236	-41.559139
00987	624324	-0.282861	9.823097	0.300212				-0.003241	-0.001446	-0.001331				87.975493	1.581597	-41.559565
00988	624374	-0.259959	9.813469	0.312429				-0.005971	0.001863	-0.001978				87.976211	1.581187	-41.559589
00989	624424	-0.267313	9.824759	0.312666				-0.006483	0.003921	-0.003409				87.974380	1.582204	-41.558501
00990	624474	-0.269333	9.801406	0.318096				-0.000670	0.004545	-0.002394				87.976602	1.581931	-41.557738
00991	624524	-0.259760	9.815794	0.331009				-0.000878	0.001284	0.002494				87.976364	1.581235	-41.557343
00992	624574	-0.267941	9.818733	0.318333				-0.002202	0.001183	-0.001737				87.978144	1.580748	-41.557505
00993	624624	-0.262914	9.820947	0.317147				-0.002634	-0.000437	-0.001005				87.977382	1.581031	-41.557640
00994	624674	-0.237992	9.790579	0.306736				-0.002722	0.003339	-0.003167				87.979044	1.580978	-41.557237
00995	624724	-0.245094	9.799417	0.328538				-0.002860	-0.001247	-0.000983				87.978215	1.581244	-41.557607
00996	624774	-0.226808	9.808783	0.304483				-0.002358	0.001923	-0.002602				87.979936	1.581008	-41.557587
00997	624824	-0.250464	9.801600	0.305110				-0.006008	0.000927	-0.002468				87.978214	1.581724	-41.557349
00998	624874	-0.268746	9.822891	0.325346				-0.004454	0.002373	-0.002752				87.979357	1.581542	-41.557178
00999	624924	-0.229707	9.807981	0.323696				-0.003341	0.001747	-0.001764				87.978406	1.582064	-41.556693
01000	624974	-0.253555	9.809608	0.306482				-0.001004	-0.001277	-0.000440				87.980518	1.581176	-41.557561
01001	625024	-0.254012	9.825153	0.328827				-0.003574	-0.000940	-0.001488				87.979486	1.581594	-41.557840
01002	625074	-0.263161	9.797670	0.319090				-0.005084	0.001103	-0.002534				87.980447	1.581335	-41.558078
01003	625124	-0.258945	9.825734	0.317897				-0.004710	-0.001671	-0.002518				87.979089	1.582039	-41.558584
01004	625174	-0.263737	9.810469	0.319386				-0.004994	0.000396	-0.000387				87.980047	1.581159	-41.558973
01005	625224	-0.257161	9.794645	0.335566				-0.003865	-0.001007	-0.000878				87.978933	1.581403	-41.559264
01006	625274	-0.252769	9.800684	0.331789				-0.004967	-0.000475	-0.000973				87.979889	1.580673	-41.559939
01007	625324	-0.264334	9.828702	0.336675				-0.006853	0.001462	-0.001916				87.977938	1.581234	-41.559537
01008	625374	-0.266576	9.826749	0.322739				-0.005595	0.000292	-0.000549				87.978764	1.580405	-41.559987
01009	625424	-0.291887	9.825193	0.326204				-0.005096	0.002819	-0.000884				87.977323	1.580687	-41.559188
01010	625474	-0.257918	9.808008	0.298876				-0.002479	-0.000179	-0.002223				87.978999	1.580330	-41.559762
01011	625524	-0.262315	9.821143	0.305151				-0.002371	0.001674	0.000801				87.978338	1.580115	-41.559280
01012	625574	-0.248967	9.818085	0.329732				-0.001831	-0.000717	-0.004027				87.980185	1.580260	-41.559998
01013	625624	-0.253123	9.792540	0.337035				-0.004829	-0.000667	0.000472				87.978803	1.580121	-41.560191
01014	625674	-0.251234	9.812391	0.328134				-0.002851	0.003501	-0.002430				87.980411	1.579855	-41.559702
01015	625724	-0.247076	9.811124	0.305572				-0.002885	0.000332	-0.002771				87.979593	1.580650	-41.559638
01016	625774	-0.251674	9.795864	0.322413				-0.003159	-0.000928	-0.000304				87.981059	1.579732	-41.560411
01017	625824	-0.246584	9.797554	0.340019				-0.001502	-0.000772	-0.001235				87.980609	1.580077	-41.560645
01018	625874	-0.259704	9.802348	0.326013				-0.002735	0.002726	-0.004100				87.982257	1.580285	-41.560417
01019	625924	-0.223051	9.793035	0.329264				-0.005395	0.001070	0.001349				87.980723	1.579911	-41.560098
01020	625974	-0.254298	9.823087	0.339597				-0.003112	0.001591	-0.002282				87.982238	1.579592	-41.560145
01021	626024	-0.250026	9.816397	0.315599				-0.001747	-0.000299	-0.004023				87.981727	1.580740	-41.560267
01022	626074	-0.259347	9.823765	0.322054				-0.000241	0.000195	0.001171				87.984057	1.579410	-41.560688
01023	626124	-0.252524	9.801370	0.333925				-0.004696	-0.001924	-0.000528				87.982690	1.579545	-41.561246
01024	626174	-0.251522	9.796734	0.312097				-0.004236	0.001401	-0.005261				87.983889	1.580066	-41.561375
01025	626224	-0.255574	9.801839	0.316226				-0.007938	-0.001888	-0.001162				87.981598	1.580378	-41.561924
01026	626274	-0.261368	9.810471	0.321053				-0.006285	-0.000238	-0.000867				87.982192	1.579635	-41.562519
01027	626324	-0.263262	9.818756	0.305393				-0.003336	-0.000477	-0.000488				87.981223	1.579771	-41.562659
01028	626374	-0.278502	9.818231	0.311789				-0.006139	0.004485	0.002175				87.981906	1.578199	-41.561877
01029	626424	-0.271772	9.816794	0.317629				-0.002188	0.002639	-0.003940				87.981291	1.579354	-41.561167
01030	626474	-0.262614	9.806646	0.321742				-0.006232	-0.000987	-0.002123				87.981900	1.578959	-41.561954
01031	626524	-0.272898	9.826191	0.338774				-0.003850	0.001709	-0.001568				87.980820	1.579426	-41.561488
01032	626574	-0.253032	9.817817	0.312770				-0.001918	-0.001778	-0.000694				87.982629	1.578611	-41.562473
01033	626624	-0.250296	9.795518	0.330543				-0.005856	0.003418	-0.001940				87.980975	1.579205	-41.561509
01034	626674	-0.245753	9.798076	0.322099				-0.001512	0.002785	-0.001281				87.982968	1.578608	-41.561229
01035	626724	-0.245751	9.802095	0.307501				-0.004971	-0.000451	-0.002412				87.981528	1.579294	-41.561378
01036	626774	-0.244487	9.805490	0.334571				-0.004115	0.001892	-0.002212				87.982780	1.578954	-41.561342
01037	626824	-0.262265	9.819628	0.311026				-0.006893	0.003456	-0.005273				87.980837	1.580498	-41.560411
01038	626874	-0.259733	9.807544	0.327804				-0.006903	-0.000899	-0.000038				87.981237	1.579508	-41.561152
01039	626924	-0.235070	9.799324	0.326829				-0.003205	0.001626	-0.000582				87.980329	1.579687	-41.560687
01040	626974	-0.233316	9.792366	0.318029				-0.004404	0.006057	-0.003056				87.981504	1.579635	-41.559462
01041	627024	-0.244430	9.815580	0.326674				-0.004866	0.003365	-0.002843				87.980127	1.580482	-41.558529
01042	627074	-0.253470	9.791974	0.311826				-0.002212	0.002611	-0.000286				87.981904	1.579603	-41.558270
01043	627124	-0.250088	9.796772	0.326719				-0.004373	0.004993	-0.002290				87.980688	1.580310	-41.556867
01044	627174	-0.242382	9.813722	0.325886				-0.003224	-0.001966	-0.001497				87.982151	1.579727	-41.557925
01045	627224	-0.263932	9.813711	0.340106				-0.001615	-0.000066	-0.001618				87.981692	1.580188	-41.557970
01046	627274	-0.278484	9.805461	0.324576				0.000079	0.001072	-0.000329				87.984113	1.579308	-41.558185
01047	627324	-0.250960	9.816556	0.319485				-0.003855	0.002839	-0.001115				87.983017	1.579655	-41.557373
01048	627374	-0.272252	9.821165	0.326842				-0.004748	-0.000311	-0.000392				87.984063	1.578771	-41.557979
01049	627424	-0.259426	9.802415	0.322162				-0.003253	0.004143	-0.002458				87.983163	1.579517	-41.556817
01050	627474	-0.259310	9.812932	0.317320				-0.001169	-0.000319	-0.003607				87.985203	1.579553	-41.557459
01051	627524	-0.250632	9.812967	0.306321				-0.003761	-0.000263	-0.002224				87.984120	1.580185	-41.557558
01052	627574	-0.252455	9.808455	0.305314				-0.001211	0.002236	-0.001288				87.986179	1.579592	-41.557439
01053	627624	-0.240345	9.794820	0.337765				-0.007978	-0.000466	-0.000995				87.983896	1.579873	-41.557585
01054	627674	-0.243981	9.799816	0.333812				-0.003914	0.002643	-0.002017				87.985182	1.579485	-41.557338
01055	627724	-0.239632	9.817375	0.321527				-0.001285	0.001116	0.003646				87.984821	1.578451	-41.556982
01056	627774	-0.256058	9.819633	0.315544				-0.006592	0.000104	-0.002407				87.985337	1.578156	-41.557472
01057	627824	-0.255329	9.809035	0.311627				-0.004491	0.001760	-0.001504				87.984061	1.578605	-41.556982
01058	627874	-0.251635	9.811440	0.312151				-0.005916	-0.000111	-0.003276				87.984756	1.578547	-41.557520
01059	627924	-0.237321	9.813182	0.318415				-0.001179	0.001400	0.000182				87.984428	1.578511	-41.557124
01060	627974	-0.255689	9.819904	0.313814				-0.004912	0.000979	-0.000992				87.985403	1.577812	-41.557325
01061	628024	-0.266329	9.806172	0.319145				-0.007349	-0.003369	-0.001718				87.983279	1.578270	-41.558306
01062	628074	-0.257652	9.804347	0.320999				-0.005154	0.002692	0.001135				87.984215	1.576982	-41.558015
01063	628124	-0.266750	9.810095	0.310252				-0.003780	0.003716	0.000752				87.983168	1.576805	-41.556951
01064	628174	-0.255424	9.809348	0.321839				-0.002524	-0.000827	-0.002551				87.984826	1.576539	-41.557685
01065	628224	-0.251548	9.808561	0.314681				-0.002053	0.001545	-0.001770				87.984250	1.577060	-41.557260
01066	628274	-0.250644	9.815466	0.313369				-0.006203	0.000215	-0.000291				87.984853	1.576159	-41.557698
01067	628324	-0.245406	9.808852	0.331145				-0.002304	0.000637	0.001182				87.984202	1.575827	-41.557510
01068	628374	-0.250626	9.800106	0.325240				-0.003917	0.003640	-0.002912				87.985516	1.575712	-41.556987
01069	628424	-0.242398	9.796318	0.331264				-0.005901	0.000705	-0.000482				87.983822	1.575858	-41.556789
01070	628474	-0.270162	9.798018	0.336607				-0.004929	-0.000705	-0.001352				87.984793	1.575248	-41.557487
01071	628524	-0.270756	9.794617	0.326396				-0.006571	-0.001573	-0.003023				87.982904	1.576099	-41.557974
01072	628574	-0.271469	9.796205	0.315100				-0.003821	0.003609	-0.004091				87.984227	1.576316	-41.557468
01073	628624	-0.259165	9.807340	0.310248				-0.006201	0.003087	-0.002291				87.982468	1.577002	-41.556596
01074	628674	-0.252665	9.814451	0.316156				-0.004138	0.002703	-0.001886				87.983716	1.576586	-41.556353
01075	628724	-0.266191	9.806306	0.341378				-0.003257	0.002205	-0.001439				87.982803	1.577018	-41.555737
01076	628774	-0.249832	9.804119	0.311783				-0.002947	0.001429	-0.000932				87.984374	1.576318	-41.555823
01077	628824	-0.259392	9.809383	0.301246				-0.001412	0.003590	-0.002273				87.983990	1.577003	-41.554813
01078	628874	-0.255888	9.816372	0.311836				-0.002092	0.004072	-0.000085				87.985819	1.576093	-41.554115
01079	628924	-0.235568	9.814316	0.323500				-0.003883	-0.003796	-0.005098				87.984684	1.577517	-41.555262
01080	628974	-0.259459	9.814002	0.340107				-0.000284	0.000218	-0.002418				87.986984	1.577224	-41.555671
01081	629024	-0.259009	9.817719	0.330079				-0.004249	0.001514	0.002572				87.985777	1.576505	-41.555212
01082	629074	-0.251692	9.809777	0.327931				-0.003944	0.001541	-0.003240				87.987067	1.576458	-41.555284
01083	629124	-0.265029	9.813337	0.317214				-0.005742	0.000475	-0.003524				87.985424	1.577470	-41.555184
01084	629174	-0.250828	9.827202	0.336998				-0.005186	0.001228	-0.003909				87.986348	1.577622	-41.555335
01085	629224	-0.263829	9.824886	0.322458				-0.005140	-0.000292	-0.004496				87.984864	1.578904	-41.555458
01086	629274	-0.247204	9.814008	0.333936				-0.006199	-0.001311	-0.002961				87.985472	1.578760	-41.556320
01087	629324	-0.252425	9.821499	0.320469				-0.004689	0.003020	-0.000725				87.984166	1.578997	-41.555473
01088	629374	-0.267457	9.809175	0.307576				-0.003294	0.003497	-0.000659				87.985632	1.578241	-41.554977
01089	629424	-0.263366	9.814240	0.321396				-0.002836	0.002012	-0.002342				87.984841	1.578932	-41.554433
01090	629474	-0.262145	9.811977	0.315249				-0.004183	0.001617	0.004209				87.986052	1.576759	-41.554392
01091	629524	-0.271508	9.828284	0.327310				-0.005618	-0.002433	-0.004409				87.984419	1.577998	-41.555134
01092	629574	-0.299243	9.843768	0.315511				-0.007333	0.000284	-0.004102				87.984725	1.578192	-41.555541
01093	629624	-0.274942	9.821649	0.307906				-0.005022	-0.000569	0.001503				87.983288	1.577755	-41.555690
01094	629674	-0.265391	9.819915	0.304971				-0.004173	0.002000	0.000711				87.984494	1.576592	-41.555587
01095	629724	-0.275248	9.826694	0.319121				-0.001942	0.001932	-0.004362				87.983950	1.577864	-41.555081
01096	629774	-0.261168	9.794203	0.314628				0.001428	-0.001302	-0.002402				87.986743	1.577557	-41.555950
01097	629824	-0.262767	9.827221	0.325769				-0.003012	0.000789	0.002082				87.985890	1.576970	-41.555704
01098	629874	-0.254740	9.804238	0.317539				0.000794	0.003568	-0.003789				87.988545	1.577109	-41.555217
01099	629924	-0.264790	9.823238	0.314312				-0.001322	0.000526	-0.002006				87.988182	1.577686	-41.555098
01100	629974	-0.258339	9.815030	0.313107				-0.001044	0.000755	-0.004120				87.990244	1.577893	-41.555366
01101	630024	-0.241625	9.800659	0.320267				-0.002851	-0.000528	0.000107				87.989423	1.577858	-41.555517
01102	630074	-0.245376	9.796917	0.328880				-0.003181	-0.001042	0.002864				87.990902	1.576052	-41.556275
01103	630124	-0.267210	9.802333	0.314152				-0.002617	-0.000616	0.002929				87.990141	1.575202	-41.556417
01104	630174	-0.252307	9.818277	0.307392				-0.003707	-0.002037	-0.001952				87.991451	1.574768	-41.557501
01105	630224	-0.245140	9.814508	0.326920				-0.002173	0.000326	0.000174				87.990838	1.574722	-41.557404
01106	630274	-0.251519	9.818376	0.301079				-0.000518	0.002648	0.000183				87.993127	1.573715	-41.557125
01107	630324	-0.262278	9.827991	0.331140				-0.004328	0.001413	-0.002440				87.991895	1.574424	-41.556748
01108	630374	-0.241351	9.811133	0.318344				-0.003327	-0.001094	-0.003905				87.993324	1.574558	-41.557554
01109	630424	-0.258676	9.796472	0.316512				-0.004612	0.000407	-0.001358				87.991997	1.574954	-41.557448
01110	630474	-0.259414	9.811923	0.329467				-0.004554	0.001606	-0.000901				87.993096	1.574243	-41.557519
01111	630524	-0.268455	9.792562	0.315831				-0.002561	0.003189	-0.002982				87.992387	1.575131	-41.556625
01112	630574	-0.248747	9.787299	0.334847				-0.000703	0.002183	-0.003572				87.994613	1.575199	-41.556523
01113	630624	-0.268151	9.835106	0.341719				-0.003748	0.005594	-0.002131				87.993595	1.575868	-41.554957
01114	630674	-0.264479	9.823067	0.309874				-0.005947	0.000092	-0.001388				87.994261	1.575283	-41.555390
01115	630724	-0.262578	9.814721	0.330200				-0.004670	0.002447	0.000257				87.992962	1.575236	-41.554697
01116	630774	-0.263176	9.809834	0.322605				-0.004468	0.000828	-0.000330				87.994054	1.574365	-41.554904
01117	630824	-0.250592	9.812943	0.316248				-0.004756	0.002862	-0.001890				87.992710	1.574937	-41.554104
01118	630874	-0.235338	9.801364	0.310418				-0.004154	0.000128	0.000853				87.993931	1.573719	-41.554514
01119	630924	-0.262507	9.809582	0.324693				-0.002807	0.003155	-0.001765				87.993140	1.574256	-41.553616
01120	630974	-0.254632	9.801614	0.309280				-0.002686	-0.001848	0.000264				87.994756	1.573185	-41.554622
01121	631024	-0.230671	9.811921	0.321807				-0.002102	0.000770	-0.003548				87.994147	1.574211	-41.554433
01122	631074	-0.235687	9.808393	0.300093				-0.004126	0.000025	-0.002485				87.995368	1.573941	-41.554937
01123	631124	-0.235969	9.793477	0.313537				-0.005951	-0.001875	0.000780				87.993647	1.573699	-41.555470
01124	631174	-0.248540	9.802274	0.317452				-0.003964	0.000095	-0.000466				87.994895	1.572863	-41.555901
