// General information: 
//  MT Manager version: 2022.0.0 
//  XDA version: 2022.0.0 build 7085 rev 119802 built on 2022-11-08
// Device information: 
//  DeviceId: 037004D1
//  ProductCode: MTi-300-2A5G4
//  Firmware Version: 1.4.1
//  Hardware Version: 2.1.0
// Device settings: 
//  Filter Profile: general(39.16)
//  Option Flags: Orientation Smoother Disabled, Position/Velocity Smoother Disabled, Continuous Zero Rotation Update Disabled, AHS Disabled, ICC Disabled
// Coordinate system: ENU
PacketCounter	SampleTimeFine	Acc_X	Acc_Y	Acc_Z	AccHR_X	AccHR_Y	AccHR_Z	Gyr_X	Gyr_Y	Gyr_Z	GyrHR_X	GyrHR_Y	GyrHR_Z	Roll	Pitch	Yaw
00001	1153374	-9.804615	-0.222067	-0.292055				-0.003427	0.002536	-0.002809				-143.018591	88.072939	-97.088832
00002	1153424	-9.814618	-0.218231	-0.298583				-0.000124	-0.002572	0.000557				-143.009225	88.073680	-97.079399
00003	1153474	-9.793806	-0.239528	-0.271275				-0.003140	0.002934	0.001332				-143.044847	88.073684	-97.116372
00004	1153524	-9.793524	-0.219296	-0.281299				-0.005659	0.003209	-0.002540				-143.045659	88.072581	-97.115539
00005	1153574	-9.792373	-0.218531	-0.275736				-0.001414	-0.002237	0.001265				-143.053142	88.074185	-97.124643
00006	1153624	-9.818872	-0.200659	-0.262729				-0.003856	0.001205	-0.001333				-143.051377	88.073533	-97.121828
00007	1153674	-9.815136	-0.229165	-0.269865				-0.004532	-0.000813	-0.000703				-143.054052	88.074544	-97.125199
00008	1153724	-9.780179	-0.204808	-0.272427				-0.003412	-0.000019	-0.003109				-143.033998	88.073864	-97.104208
00009	1153774	-9.796173	-0.217140	-0.280051				-0.002196	0.000335	0.000831				-143.051952	88.074352	-97.123766
00010	1153824	-9.798470	-0.233886	-0.259379				-0.003184	-0.000016	-0.001443				-143.042949	88.073798	-97.113966
00011	1153874	-9.805512	-0.211751	-0.282452				-0.006101	0.003301	-0.000164				-143.070743	88.074312	-97.141868
00012	1153924	-9.823500	-0.211420	-0.261425				-0.005525	-0.000992	-0.002274				-143.051978	88.073939	-97.121584
00013	1153974	-9.802237	-0.211213	-0.275754				-0.001453	0.002860	-0.004284				-143.048159	88.072680	-97.119661
00014	1154024	-9.790789	-0.229029	-0.279635				-0.003794	-0.000222	-0.004232				-143.018990	88.072049	-97.089371
00015	1154074	-9.791315	-0.228789	-0.272112				-0.002895	-0.000676	0.002787				-143.045756	88.073844	-97.117241
00016	1154124	-9.813147	-0.192408	-0.281203				-0.002632	0.002073	0.001459				-143.067098	88.073698	-97.137811
00017	1154174	-9.810472	-0.214939	-0.284341				0.000216	0.002890	-0.002750				-143.073676	88.072879	-97.146809
00018	1154224	-9.788762	-0.220900	-0.277390				-0.002468	-0.002325	0.000239				-143.063819	88.073729	-97.136130
00019	1154274	-9.793842	-0.214799	-0.276902				-0.003456	-0.000563	-0.001031				-143.065276	88.074224	-97.138817
00020	1154324	-9.802204	-0.226931	-0.287014				-0.002529	0.001319	-0.004868				-143.039580	88.073243	-97.112323
00021	1154374	-9.815445	-0.223017	-0.270157				-0.001841	0.001078	-0.002240				-143.040794	88.073116	-97.115189
00022	1154424	-9.824332	-0.216171	-0.272948				-0.001346	0.000666	-0.000442				-143.041675	88.072859	-97.115694
00023	1154474	-9.798605	-0.229718	-0.285048				-0.004908	-0.000400	-0.002949				-143.030788	88.073051	-97.105553
00024	1154524	-9.798213	-0.225024	-0.280987				-0.000738	-0.001487	-0.001583				-143.012592	88.073218	-97.087097
00025	1154574	-9.816391	-0.239927	-0.275551				-0.004324	-0.002513	0.000827				-143.016537	88.074713	-97.091907
00026	1154624	-9.811666	-0.217360	-0.276725				-0.002553	0.003627	0.001177				-143.043880	88.074083	-97.118531
00027	1154674	-9.807479	-0.211967	-0.272596				-0.001365	0.002346	-0.001176				-143.058917	88.073745	-97.135382
00028	1154724	-9.781933	-0.218996	-0.268864				-0.002764	0.002036	0.001002				-143.076913	88.073486	-97.152583
00029	1154774	-9.807000	-0.213473	-0.269271				-0.001606	0.001694	-0.003299				-143.073883	88.073215	-97.151194
00030	1154824	-9.832044	-0.204309	-0.281336				-0.005739	-0.000217	-0.001307				-143.065464	88.073160	-97.141079
00031	1154874	-9.814111	-0.200830	-0.262743				-0.004698	0.000221	-0.001597				-143.067017	88.073420	-97.143432
00032	1154924	-9.805707	-0.206612	-0.261743				-0.001497	-0.000852	-0.001513				-143.052650	88.073309	-97.128646
00033	1154974	-9.808776	-0.197542	-0.284272				-0.003362	-0.000431	-0.001763				-143.049915	88.073568	-97.127154
00034	1155024	-9.817087	-0.201041	-0.281618				-0.001912	0.000203	-0.002149				-143.036765	88.073348	-97.113371
00035	1155074	-9.810167	-0.224775	-0.273813				-0.008430	0.002003	0.001340				-143.068921	88.073524	-97.145330
00036	1155124	-9.804831	-0.233336	-0.271603				-0.004712	-0.000399	-0.002373				-143.052100	88.073431	-97.127064
00037	1155174	-9.798337	-0.219694	-0.272385				-0.005278	0.001375	-0.001074				-143.063339	88.073490	-97.138949
00038	1155224	-9.796224	-0.217500	-0.271058				-0.001696	0.004902	0.000473				-143.092222	88.072347	-97.167402
00039	1155274	-9.802752	-0.227276	-0.274045				-0.005947	0.000393	-0.000246				-143.104347	88.073030	-97.179913
00040	1155324	-9.820071	-0.211910	-0.277109				-0.002003	0.001944	-0.003199				-143.093097	88.072056	-97.168073
00041	1155374	-9.821776	-0.217364	-0.260232				-0.001443	0.000466	-0.003847				-143.080273	88.071912	-97.156984
00042	1155424	-9.815064	-0.211622	-0.277810				-0.005540	0.000796	0.001550				-143.096534	88.071807	-97.171744
00043	1155474	-9.787844	-0.224404	-0.264252				-0.005299	-0.001050	-0.000065				-143.102611	88.072973	-97.178321
00044	1155524	-9.813668	-0.215794	-0.265370				-0.002675	0.001660	0.003412				-143.135105	88.073153	-97.210076
00045	1155574	-9.817052	-0.209387	-0.269664				-0.001339	0.002084	-0.005444				-143.119235	88.072127	-97.196043
00046	1155624	-9.813979	-0.215013	-0.254305				-0.003393	-0.000698	-0.003757				-143.090837	88.071945	-97.166546
00047	1155674	-9.808820	-0.206047	-0.259855				-0.001903	-0.000282	-0.003885				-143.074039	88.071911	-97.151329
00048	1155724	-9.815674	-0.209232	-0.261500				-0.004117	0.001906	-0.003386				-143.062028	88.070993	-97.138099
00049	1155774	-9.814715	-0.205237	-0.310109				-0.003166	-0.002658	0.000150				-143.060416	88.072169	-97.137725
00050	1155824	-9.814796	-0.221316	-0.263754				-0.004138	0.004280	0.002754				-143.101900	88.071924	-97.177943
00051	1155874	-9.815775	-0.213886	-0.274086				-0.003669	-0.002927	0.000118				-143.099261	88.073006	-97.176450
00052	1155924	-9.799335	-0.213414	-0.276375				-0.005011	0.006491	0.000907				-143.139904	88.071618	-97.215697
00053	1155974	-9.803856	-0.202605	-0.260381				-0.005522	0.000916	-0.003065				-143.135539	88.071657	-97.211808
00054	1156024	-9.811581	-0.228097	-0.269357				-0.001503	-0.001204	0.002845				-143.149020	88.072375	-97.224885
00055	1156074	-9.803793	-0.228726	-0.296545				-0.008389	-0.001788	-0.004167				-143.124457	88.072485	-97.200124
00056	1156124	-9.801678	-0.221302	-0.267825				-0.004095	0.001228	-0.004383				-143.102110	88.071429	-97.176604
00057	1156174	-9.792325	-0.220688	-0.279342				-0.005590	-0.000928	-0.001571				-143.098147	88.072300	-97.172994
00058	1156224	-9.806094	-0.207912	-0.273979				-0.001086	-0.000560	-0.001453				-143.085809	88.072188	-97.160331
00059	1156274	-9.815570	-0.211827	-0.274410				-0.003637	-0.002090	-0.002771				-143.067445	88.072896	-97.142992
00060	1156324	-9.817326	-0.206075	-0.270641				-0.003709	0.001039	-0.005893				-143.033674	88.071696	-97.108121
00061	1156374	-9.818444	-0.204577	-0.285231				-0.002538	-0.000161	-0.001255				-143.035838	88.071747	-97.111896
00062	1156424	-9.809848	-0.192444	-0.275181				-0.004876	0.001965	-0.000302				-143.045184	88.071428	-97.119776
00063	1156474	-9.811260	-0.218819	-0.263417				-0.000893	-0.000649	-0.002576				-143.034573	88.071690	-97.111070
00064	1156524	-9.803709	-0.221906	-0.285015				-0.002720	0.000579	-0.000411				-143.035787	88.071417	-97.111532
00065	1156574	-9.800871	-0.223194	-0.277634				-0.004737	0.000447	-0.002301				-143.033682	88.071740	-97.110094
00066	1156624	-9.792687	-0.227504	-0.284137				-0.001884	-0.000867	-0.003537				-143.005601	88.071232	-97.081494
00067	1156674	-9.818575	-0.220848	-0.270795				-0.002038	-0.001701	0.000732				-143.012956	88.072309	-97.090454
00068	1156724	-9.815739	-0.210185	-0.287833				-0.004624	-0.001202	-0.002503				-142.991088	88.072368	-97.067165
00069	1156774	-9.823977	-0.226932	-0.269491				-0.002635	0.002908	-0.001426				-143.007130	88.072048	-97.084607
00070	1156824	-9.826626	-0.211987	-0.256366				-0.000694	-0.001811	-0.001876				-142.985219	88.072032	-97.062533
00071	1156874	-9.807505	-0.216692	-0.258371				-0.002576	-0.003103	-0.001842				-142.967508	88.073458	-97.046050
00072	1156924	-9.803453	-0.221145	-0.288658				-0.004393	-0.000325	-0.001767				-142.955086	88.073095	-97.032413
00073	1156974	-9.819247	-0.212703	-0.255444				-0.004561	-0.000105	-0.003813				-142.940146	88.073268	-97.018239
00074	1157024	-9.810856	-0.227004	-0.273303				-0.000975	0.000793	-0.003658				-142.919500	88.072609	-96.997244
00075	1157074	-9.797425	-0.208510	-0.288896				0.000919	-0.000067	-0.001361				-142.920096	88.072690	-97.000326
00076	1157124	-9.788423	-0.222159	-0.290923				-0.001172	0.001022	-0.002021				-142.911807	88.072123	-96.991695
00077	1157174	-9.802162	-0.230931	-0.285251				-0.002424	-0.000872	-0.002539				-142.901505	88.072338	-96.982917
00078	1157224	-9.824305	-0.216398	-0.276446				-0.009365	0.004015	-0.002877				-142.905449	88.070787	-96.984229
00079	1157274	-9.809349	-0.207067	-0.288344				0.000008	0.001171	-0.003145				-142.900233	88.070574	-96.981214
00080	1157324	-9.801529	-0.224721	-0.284605				-0.001807	0.002278	-0.000538				-142.908896	88.070041	-96.989329
00081	1157374	-9.802265	-0.207564	-0.277420				-0.001745	0.000110	-0.000964				-142.913259	88.070466	-96.995339
00082	1157424	-9.817401	-0.212074	-0.285395				-0.009807	-0.001194	0.001008				-142.916996	88.070700	-96.996348
00083	1157474	-9.820784	-0.204295	-0.293047				-0.007587	-0.001776	-0.002592				-142.902467	88.072021	-96.981535
00084	1157524	-9.802397	-0.235650	-0.276395				-0.005588	-0.001320	-0.004782				-142.864707	88.071483	-96.942155
00085	1157574	-9.794857	-0.210068	-0.276544				-0.006092	0.002880	-0.001418				-142.882215	88.071082	-96.960176
00086	1157624	-9.805160	-0.203124	-0.279765				-0.002988	-0.001406	-0.004689				-142.844101	88.070671	-96.921152
00087	1157674	-9.809595	-0.211707	-0.277420				-0.004282	0.003262	-0.003635				-142.847734	88.069665	-96.925840
00088	1157724	-9.810123	-0.223176	-0.284343				-0.001072	0.002062	-0.001788				-142.846593	88.068897	-96.924388
00089	1157774	-9.810954	-0.216573	-0.279591				-0.005653	0.003475	0.001762				-142.887804	88.069440	-96.965973
00090	1157824	-9.802082	-0.218063	-0.285773				-0.004400	-0.000060	-0.000125				-142.887910	88.069477	-96.964795
00091	1157874	-9.818749	-0.198376	-0.287117				-0.004339	0.000032	-0.000989				-142.892714	88.069865	-96.970539
00092	1157924	-9.804710	-0.219545	-0.280929				-0.002594	-0.000189	0.001828				-142.904893	88.070220	-96.981988
00093	1157974	-9.815057	-0.197325	-0.270414				-0.005401	0.002444	0.000566				-142.933099	88.070222	-97.010819
00094	1158024	-9.797134	-0.213348	-0.247408				-0.007836	-0.001802	0.000262				-142.928050	88.070737	-97.003494
00095	1158074	-9.807968	-0.209245	-0.274949				-0.007455	0.000630	0.001463				-142.953344	88.071263	-97.028906
00096	1158124	-9.803553	-0.219177	-0.277319				-0.000345	-0.001775	-0.001268				-142.935981	88.071157	-97.011551
00097	1158174	-9.820067	-0.215932	-0.269845				-0.003015	-0.000235	-0.000799				-142.940044	88.072245	-97.016683
00098	1158224	-9.793177	-0.207962	-0.283008				-0.006838	0.001855	-0.004923				-142.918141	88.070901	-96.992829
00099	1158274	-9.794223	-0.219440	-0.283683				0.000503	0.003126	0.000072				-142.944472	88.071112	-97.021369
00100	1158324	-9.816840	-0.199701	-0.285218				-0.006264	-0.000673	0.002636				-142.960520	88.071747	-97.035625
00101	1158374	-9.813263	-0.223037	-0.277493				-0.008016	-0.001293	-0.000921				-142.960776	88.071955	-97.035920
00102	1158424	-9.787775	-0.207036	-0.273442				-0.003528	0.000559	-0.003363				-142.941992	88.071100	-97.016170
00103	1158474	-9.796470	-0.220790	-0.263078				-0.006467	0.001350	-0.002325				-142.945032	88.071560	-97.019304
00104	1158524	-9.814174	-0.185525	-0.283294				-0.000472	-0.000640	-0.000006				-142.941817	88.071663	-97.015966
00105	1158574	-9.799040	-0.212570	-0.287979				-0.002090	0.000883	-0.000799				-142.951817	88.072002	-97.027463
00106	1158624	-9.808321	-0.217902	-0.279111				-0.004438	0.002867	-0.005754				-142.928692	88.070194	-97.003118
00107	1158674	-9.807832	-0.222427	-0.271220				-0.000626	0.004231	-0.001906				-142.947750	88.069460	-97.024140
00108	1158724	-9.803168	-0.231783	-0.274891				-0.005648	-0.001219	-0.000926				-142.936992	88.069300	-97.011860
00109	1158774	-9.814868	-0.211104	-0.273011				-0.001960	-0.000086	-0.000831				-142.941740	88.070141	-97.018050
00110	1158824	-9.812374	-0.231163	-0.288308				-0.005202	-0.001980	0.000861				-142.938969	88.070625	-97.013824
00111	1158874	-9.809725	-0.220477	-0.278026				-0.002754	-0.001725	-0.003825				-142.914703	88.071260	-96.990815
00112	1158924	-9.826210	-0.216883	-0.275139				-0.000682	0.002173	0.000136				-142.926675	88.070901	-97.002559
00113	1158974	-9.803673	-0.229001	-0.275294				-0.002540	0.003874	-0.003218				-142.936251	88.069736	-97.013723
00114	1159024	-9.794755	-0.217423	-0.278008				-0.002003	0.003205	-0.003164				-142.931683	88.068590	-97.008522
00115	1159074	-9.810411	-0.205489	-0.272823				-0.001977	0.002602	0.001297				-142.965089	88.068644	-97.043619
00116	1159124	-9.827296	-0.214524	-0.259079				0.000713	0.000350	-0.001483				-142.956373	88.068728	-97.034944
00117	1159174	-9.801059	-0.212734	-0.269435				-0.004603	-0.003149	-0.004857				-142.918785	88.068934	-96.998260
00118	1159224	-9.794365	-0.222092	-0.293985				-0.002811	0.002454	0.000045				-142.932485	88.068445	-97.011133
00119	1159274	-9.804882	-0.206044	-0.280915				-0.001979	-0.001439	0.001404				-142.945076	88.069937	-97.025206
00120	1159324	-9.812087	-0.211301	-0.259818				-0.004560	-0.000235	-0.002658				-142.926985	88.069675	-97.005739
00121	1159374	-9.813740	-0.203864	-0.278303				-0.001889	0.000723	0.000039				-142.942255	88.069967	-97.022692
00122	1159424	-9.828062	-0.221207	-0.275825				-0.002098	0.001172	-0.001823				-142.936395	88.069374	-97.016228
00123	1159474	-9.804005	-0.200466	-0.280940				-0.002360	-0.001975	-0.003446				-142.913823	88.069806	-96.995120
00124	1159524	-9.786441	-0.221814	-0.265812				-0.003639	0.003180	-0.001779				-142.919250	88.068849	-96.999475
00125	1159574	-9.822977	-0.234424	-0.263103				-0.003165	-0.000952	-0.003465				-142.901611	88.069005	-96.983094
00126	1159624	-9.812182	-0.233648	-0.276680				-0.001242	0.002877	0.002386				-142.932678	88.068767	-97.013822
00127	1159674	-9.815058	-0.214417	-0.273465				-0.002445	0.000134	0.000033				-142.944987	88.069190	-97.027626
00128	1159724	-9.813773	-0.207195	-0.265273				-0.004850	-0.001305	-0.003141				-142.918340	88.069108	-96.999511
00129	1159774	-9.791280	-0.208259	-0.281342				-0.005028	0.001901	0.000852				-142.945122	88.069682	-97.026903
00130	1159824	-9.823357	-0.198156	-0.274399				-0.005513	-0.000475	-0.003202				-142.922873	88.068978	-97.003159
00131	1159874	-9.810905	-0.207017	-0.280669				-0.003820	0.000415	-0.007352				-142.886618	88.068360	-96.967876
00132	1159924	-9.813134	-0.215253	-0.258590				-0.002078	0.001582	-0.003511				-142.871291	88.067653	-96.951848
00133	1159974	-9.794689	-0.216182	-0.274235				-0.006347	-0.000268	-0.003221				-142.860554	88.067438	-96.941562
00134	1160024	-9.816288	-0.208514	-0.262592				-0.005140	0.000175	-0.001903				-142.850007	88.067184	-96.929491
00135	1160074	-9.819637	-0.207447	-0.262634				-0.003845	0.002650	-0.004558				-142.844208	88.066560	-96.924677
00136	1160124	-9.805238	-0.215958	-0.262962				-0.004391	0.002974	-0.000542				-142.856962	88.065862	-96.936153
00137	1160174	-9.813650	-0.224258	-0.271248				-0.002783	-0.000229	0.000523				-142.870591	88.066422	-96.951231
00138	1160224	-9.807422	-0.225340	-0.276849				-0.001932	0.001717	-0.004570				-142.849119	88.065058	-96.929261
00139	1160274	-9.806602	-0.208040	-0.289980				-0.002036	0.001131	-0.004088				-142.838355	88.064760	-96.920012
00140	1160324	-9.816266	-0.208721	-0.265798				-0.006846	0.000373	-0.001099				-142.834676	88.064416	-96.914394
00141	1160374	-9.816880	-0.196152	-0.268878				-0.004271	0.001899	-0.003596				-142.831173	88.064278	-96.911750
00142	1160424	-9.800531	-0.218415	-0.287558				-0.004561	-0.001176	-0.002844				-142.807308	88.063947	-96.886606
00143	1160474	-9.782467	-0.234973	-0.286979				-0.006542	0.000253	0.001176				-142.828983	88.064732	-96.908528
00144	1160524	-9.800856	-0.225646	-0.258827				-0.001989	0.001208	0.002006				-142.849389	88.064680	-96.928419
00145	1160574	-9.814996	-0.221209	-0.254700				-0.003230	-0.000469	-0.002331				-142.842188	88.065210	-96.922335
00146	1160624	-9.808528	-0.217677	-0.266571				-0.003979	0.002973	-0.002442				-142.842182	88.063911	-96.921267
00147	1160674	-9.798388	-0.205509	-0.274907				-0.002177	-0.000124	0.000267				-142.854204	88.064609	-96.934819
00148	1160724	-9.791940	-0.228865	-0.270588				-0.004241	-0.003406	-0.006294				-142.795610	88.064136	-96.875035
00149	1160774	-9.792248	-0.236444	-0.281389				-0.006992	0.000817	-0.003020				-142.791413	88.064348	-96.870828
00150	1160824	-9.802146	-0.213007	-0.268369				-0.006610	-0.000948	-0.000115				-142.787708	88.064625	-96.865195
00151	1160874	-9.804406	-0.223471	-0.266817				-0.007372	0.002982	-0.000634				-142.810759	88.064656	-96.888200
00152	1160924	-9.805987	-0.210204	-0.269801				-0.003947	-0.000159	-0.002549				-142.793975	88.064255	-96.870277
00153	1160974	-9.796841	-0.222074	-0.260731				-0.001424	-0.001892	-0.000932				-142.788367	88.064788	-96.866526
00154	1161024	-9.815186	-0.219814	-0.264273				-0.006530	0.000573	-0.001062				-142.785717	88.064665	-96.861930
00155	1161074	-9.811672	-0.214376	-0.265961				-0.003102	0.000501	-0.001752				-142.788286	88.064665	-96.865832
00156	1161124	-9.808617	-0.210308	-0.267626				-0.005253	-0.001611	-0.004544				-142.751059	88.064043	-96.827155
00157	1161174	-9.796938	-0.225421	-0.277293				-0.003731	-0.000932	-0.001885				-142.744254	88.065005	-96.821245
00158	1161224	-9.814789	-0.211550	-0.268099				-0.006130	-0.001041	-0.002583				-142.723150	88.064639	-96.798430
00159	1161274	-9.802089	-0.214046	-0.275906				-0.005674	0.002014	-0.000097				-142.744927	88.064888	-96.820694
00160	1161324	-9.818006	-0.211663	-0.248643				-0.004882	-0.001857	-0.002109				-142.722576	88.064942	-96.796930
00161	1161374	-9.805152	-0.204536	-0.261943				-0.007378	-0.000795	-0.000045				-142.730233	88.065854	-96.804531
00162	1161424	-9.820253	-0.195230	-0.264802				-0.002873	0.002643	0.000221				-142.746535	88.065368	-96.819988
00163	1161474	-9.801379	-0.215275	-0.272019				-0.007113	-0.000019	0.000533				-142.762262	88.065760	-96.835948
00164	1161524	-9.810964	-0.203894	-0.285396				-0.003697	0.000042	-0.001618				-142.752708	88.065355	-96.825371
00165	1161574	-9.816609	-0.218369	-0.268093				-0.005049	0.000470	-0.000361				-142.764038	88.066178	-96.837242
00166	1161624	-9.799736	-0.210371	-0.278516				-0.002542	0.001668	-0.006202				-142.731413	88.064833	-96.803830
00167	1161674	-9.804169	-0.233286	-0.246775				-0.003315	0.000238	-0.001907				-142.730783	88.065055	-96.804400
00168	1161724	-9.804416	-0.201822	-0.270663				-0.000868	-0.005306	-0.000341				-142.701374	88.066321	-96.774681
00169	1161774	-9.801097	-0.218429	-0.273610				-0.004413	-0.003954	-0.005072				-142.658710	88.066811	-96.732892
00170	1161824	-9.806168	-0.202248	-0.256374				-0.002608	0.000484	0.001140				-142.669563	88.067037	-96.742947
00171	1161874	-9.817800	-0.197923	-0.270767				-0.002842	-0.000261	0.001713				-142.690612	88.068079	-96.765302
00172	1161924	-9.812287	-0.194731	-0.244148				-0.001249	-0.001173	-0.000322				-142.682726	88.068403	-96.757009
00173	1161974	-9.826475	-0.203328	-0.281686				-0.002509	-0.001616	0.001996				-142.698664	88.069889	-96.774310
00174	1162024	-9.793859	-0.234040	-0.256631				-0.004490	-0.004439	-0.003605				-142.652666	88.070365	-96.726967
00175	1162074	-9.796533	-0.216050	-0.284998				-0.002270	0.000419	-0.002621				-142.648059	88.069985	-96.724018
00176	1162124	-9.811886	-0.216999	-0.264771				-0.001369	0.000307	-0.002972				-142.630009	88.069295	-96.705607
00177	1162174	-9.805741	-0.230103	-0.270305				-0.005946	-0.000843	-0.003131				-142.615776	88.069840	-96.691698
00178	1162224	-9.826624	-0.221705	-0.258776				-0.003801	0.003630	0.000551				-142.639068	88.069136	-96.713905
00179	1162274	-9.818080	-0.212451	-0.272662				-0.003725	0.002206	-0.001706				-142.650623	88.069095	-96.726468
00180	1162324	-9.794905	-0.222118	-0.266282				-0.001751	0.000727	0.002321				-142.670607	88.069425	-96.745926
00181	1162374	-9.788443	-0.220819	-0.273801				-0.002796	0.002094	-0.001904				-142.678742	88.069122	-96.755444
00182	1162424	-9.817970	-0.203209	-0.270330				-0.003731	0.002398	-0.000067				-142.691656	88.068497	-96.767322
00183	1162474	-9.808406	-0.222149	-0.277217				-0.001020	-0.002531	-0.000555				-142.685387	88.069602	-96.762916
00184	1162524	-9.802308	-0.217411	-0.271753				-0.004587	-0.002011	0.000516				-142.679943	88.070079	-96.756181
00185	1162574	-9.811802	-0.207059	-0.258554				-0.002800	-0.000712	0.001739				-142.698819	88.071143	-96.776414
00186	1162624	-9.804421	-0.220430	-0.271765				0.000038	-0.000707	-0.004297				-142.666320	88.070640	-96.743874
00187	1162674	-9.814178	-0.206481	-0.260941				-0.002688	-0.000462	-0.003202				-142.652447	88.070912	-96.731337
00188	1162724	-9.799063	-0.210794	-0.271781				-0.006932	0.002115	-0.002468				-142.648685	88.070051	-96.725569
00189	1162774	-9.815322	-0.224413	-0.271543				-0.005747	0.003533	0.001099				-142.685744	88.070277	-96.763062
00190	1162824	-9.812799	-0.200395	-0.265511				-0.005704	0.000843	-0.000778				-142.686475	88.069951	-96.762159
00191	1162874	-9.812663	-0.217261	-0.293256				-0.003973	-0.001353	-0.001499				-142.680718	88.070624	-96.757394
00192	1162924	-9.801501	-0.225012	-0.272191				-0.003883	-0.002156	-0.000221				-142.669300	88.071071	-96.744859
00193	1162974	-9.821815	-0.221113	-0.266550				-0.003376	-0.001826	-0.000698				-142.665650	88.072140	-96.742306
00194	1163024	-9.813018	-0.217589	-0.273368				-0.001740	0.000007	-0.002301				-142.650581	88.071924	-96.726659
00195	1163074	-9.813838	-0.207931	-0.274552				-0.003926	-0.001975	-0.004262				-142.622890	88.071935	-96.700096
00196	1163124	-9.811159	-0.216973	-0.266595				-0.005987	-0.001519	-0.002553				-142.599338	88.071835	-96.674816
00197	1163174	-9.812181	-0.208340	-0.272949				-0.005749	0.000167	-0.001391				-142.602648	88.072149	-96.678647
00198	1163224	-9.807279	-0.214344	-0.283482				-0.003766	0.000098	-0.003512				-142.580279	88.071558	-96.655169
00199	1163274	-9.807970	-0.208458	-0.260891				-0.004590	-0.002046	-0.002014				-142.567601	88.071927	-96.643428
00200	1163324	-9.803018	-0.220618	-0.266001				-0.003682	0.000753	-0.000399				-142.569857	88.071534	-96.644685
00201	1163374	-9.809179	-0.219614	-0.273166				-0.003756	-0.000187	-0.001976				-142.566509	88.072611	-96.642091
00202	1163424	-9.810441	-0.212493	-0.276900				-0.002227	0.004562	-0.000896				-142.584824	88.071166	-96.659877
00203	1163474	-9.812537	-0.206022	-0.257555				-0.006322	-0.000239	-0.004116				-142.567240	88.071065	-96.642621
00204	1163524	-9.791373	-0.212178	-0.279726				-0.003063	0.000607	0.000147				-142.572494	88.070976	-96.646988
00205	1163574	-9.797770	-0.224196	-0.260618				-0.000730	0.002652	-0.000042				-142.595843	88.071012	-96.672274
00206	1163624	-9.803842	-0.214148	-0.261002				-0.005430	0.002138	-0.003015				-142.588205	88.069901	-96.663113
00207	1163674	-9.802671	-0.227242	-0.270737				-0.002940	-0.003865	-0.004113				-142.551335	88.070845	-96.627478
00208	1163724	-9.805551	-0.222861	-0.275367				-0.005031	-0.001242	-0.000853				-142.540482	88.071038	-96.615157
00209	1163774	-9.793094	-0.209428	-0.276848				-0.002295	-0.000841	-0.001056				-142.539179	88.072152	-96.615130
00210	1163824	-9.809702	-0.199849	-0.266878				-0.003608	-0.002868	-0.002085				-142.511092	88.072658	-96.585916
00211	1163874	-9.806240	-0.228488	-0.267926				-0.003690	-0.000153	-0.002171				-142.507018	88.072297	-96.583150
00212	1163924	-9.805490	-0.227833	-0.276496				-0.006668	-0.001173	-0.000306				-142.500756	88.072520	-96.574969
00213	1163974	-9.798917	-0.219675	-0.277571				-0.001857	0.002824	-0.000426				-142.523005	88.072277	-96.598962
00214	1164024	-9.796550	-0.220921	-0.271189				-0.003641	0.004797	0.000329				-142.550986	88.071316	-96.625887
00215	1164074	-9.802162	-0.211638	-0.269626				-0.002699	-0.000337	-0.004357				-142.530444	88.071498	-96.606624
00216	1164124	-9.826553	-0.197946	-0.279833				-0.002662	0.000869	-0.001714				-142.524117	88.070995	-96.599528
00217	1164174	-9.811150	-0.219259	-0.262855				-0.003805	0.000060	-0.005884				-142.495811	88.070472	-96.572267
00218	1164224	-9.832500	-0.209776	-0.256802				-0.002785	0.001733	-0.001521				-142.495315	88.069819	-96.570976
00219	1164274	-9.800172	-0.196049	-0.275371				-0.002219	-0.001037	-0.002245				-142.485564	88.070260	-96.562761
00220	1164324	-9.808311	-0.209860	-0.279671				-0.002803	0.002186	-0.002830				-142.478454	88.069214	-96.554862
00221	1164374	-9.828903	-0.209669	-0.261870				-0.001072	0.001249	-0.002228				-142.480226	88.069183	-96.558450
00222	1164424	-9.808446	-0.199679	-0.278157				-0.000881	0.000218	-0.002175				-142.466787	88.068673	-96.544780
00223	1164474	-9.810760	-0.225850	-0.274183				-0.003853	0.002073	-0.001096				-142.480961	88.069010	-96.559865
00224	1164524	-9.814438	-0.213155	-0.283711				0.000688	0.001243	-0.002268				-142.471924	88.068289	-96.551035
00225	1164574	-9.791955	-0.223385	-0.278777				-0.003364	-0.002378	-0.000997				-142.463750	88.069120	-96.544084
00226	1164624	-9.808746	-0.214341	-0.276761				-0.005701	-0.000185	0.000148				-142.465373	88.068992	-96.544150
00227	1164674	-9.817750	-0.222200	-0.268310				-0.002329	-0.001447	-0.000031				-142.468253	88.069825	-96.548559
00228	1164724	-9.793974	-0.214681	-0.278525				-0.002557	0.000478	-0.002366				-142.455330	88.069425	-96.534845
00229	1164774	-9.807095	-0.211647	-0.278780				-0.001540	0.001185	0.002874				-142.491112	88.070753	-96.572184
00230	1164824	-9.804928	-0.212388	-0.281917				-0.002310	0.003939	-0.002696				-142.493712	88.069296	-96.574167
00231	1164874	-9.807163	-0.223954	-0.282470				-0.006165	-0.001650	0.001359				-142.506319	88.070434	-96.587178
00232	1164924	-9.804240	-0.220725	-0.261472				-0.006754	-0.000431	-0.001071				-142.498663	88.070356	-96.577576
00233	1164974	-9.806905	-0.222135	-0.288813				-0.003124	0.001582	0.002299				-142.533078	88.071288	-96.613159
00234	1165024	-9.802881	-0.231031	-0.267936				-0.003081	-0.000047	-0.000054				-142.533155	88.071417	-96.612311
00235	1165074	-9.821376	-0.195098	-0.276057				-0.002520	0.002420	-0.001645				-142.545496	88.071176	-96.626071
00236	1165124	-9.806064	-0.222563	-0.270576				-0.001141	0.001312	-0.002811				-142.533515	88.070291	-96.613796
00237	1165174	-9.792755	-0.224357	-0.263150				-0.003541	-0.000730	-0.001243				-142.532204	88.071235	-96.613472
00238	1165224	-9.798867	-0.211883	-0.261217				-0.001848	-0.001735	-0.001540				-142.513269	88.071409	-96.593976
00239	1165274	-9.805794	-0.220155	-0.280623				-0.003547	-0.000601	-0.000532				-142.517827	88.071827	-96.599779
00240	1165324	-9.808135	-0.222296	-0.282302				-0.003257	0.000635	0.001428				-142.531790	88.071877	-96.612834
00241	1165374	-9.801459	-0.211902	-0.266956				0.001370	-0.001230	-0.003724				-142.509404	88.072296	-96.592881
00242	1165424	-9.808719	-0.212560	-0.285081				-0.004315	-0.002427	0.000519				-142.501550	88.072857	-96.583812
00243	1165474	-9.798325	-0.211726	-0.273059				-0.002410	0.001869	-0.003091				-142.501243	88.072496	-96.584978
00244	1165524	-9.815439	-0.229693	-0.280588				-0.002021	0.000414	-0.005631				-142.466101	88.071119	-96.549348
00245	1165574	-9.820290	-0.210383	-0.266908				-0.001785	0.001530	-0.001520				-142.473983	88.071443	-96.558847
00246	1165624	-9.788669	-0.219589	-0.277140				-0.003840	0.000653	-0.001422				-142.468899	88.071024	-96.552675
00247	1165674	-9.813338	-0.195203	-0.266676				-0.005057	-0.000536	-0.003062				-142.456735	88.071064	-96.541268
00248	1165724	-9.816298	-0.213386	-0.290498				-0.002825	0.003865	-0.004649				-142.446105	88.069432	-96.529801
00249	1165774	-9.794508	-0.209045	-0.278768				-0.005063	0.001492	-0.005654				-142.427339	88.068881	-96.511611
00250	1165824	-9.825988	-0.207543	-0.274992				-0.001734	-0.000351	-0.003492				-142.402257	88.068470	-96.485977
00251	1165874	-9.808889	-0.204178	-0.274152				-0.001492	0.000437	-0.000663				-142.410788	88.068889	-96.496185
00252	1165924	-9.800206	-0.239057	-0.259969				-0.005422	-0.001322	-0.003419				-142.382576	88.068535	-96.466426
00253	1165974	-9.813650	-0.206269	-0.270059				-0.004593	0.000253	-0.001619				-142.383994	88.068652	-96.468757
00254	1166024	-9.791533	-0.227188	-0.261719				-0.007313	-0.000896	-0.000015				-142.381081	88.068999	-96.463689
00255	1166074	-9.805050	-0.225684	-0.272877				-0.001896	0.005481	0.002863				-142.439411	88.068938	-96.523596
00256	1166124	-9.806225	-0.204559	-0.280061				-0.001544	-0.002222	-0.002121				-142.414112	88.069014	-96.497860
00257	1166174	-9.810796	-0.203811	-0.275053				-0.003393	-0.000574	-0.002746				-142.403026	88.069862	-96.487729
00258	1166224	-9.813231	-0.217021	-0.277538				-0.002865	0.001120	-0.001458				-142.399811	88.069223	-96.483740
00259	1166274	-9.805264	-0.228956	-0.271579				-0.003800	0.003299	-0.003496				-142.404401	88.068314	-96.489486
00260	1166324	-9.814283	-0.224740	-0.284251				-0.004934	0.001863	-0.001416				-142.405907	88.067519	-96.489626
00261	1166374	-9.784210	-0.223170	-0.261156				0.000414	0.002758	-0.004090				-142.402708	88.066959	-96.488615
00262	1166424	-9.788732	-0.217258	-0.273598				-0.001075	0.002444	-0.002002				-142.402427	88.065922	-96.488072
00263	1166474	-9.819329	-0.206705	-0.274398				-0.006281	0.000998	-0.000262				-142.416854	88.066482	-96.502767
00264	1166524	-9.828633	-0.205661	-0.274697				-0.002531	-0.001232	-0.000793				-142.405898	88.066404	-96.491164
00265	1166574	-9.810538	-0.205056	-0.274784				-0.004752	-0.001589	0.002959				-142.429168	88.068064	-96.515173
00266	1166624	-9.791825	-0.208822	-0.289914				-0.003642	0.003464	-0.003047				-142.427621	88.066833	-96.512549
00267	1166674	-9.788416	-0.223718	-0.273275				-0.004783	0.001989	-0.001871				-142.436415	88.066611	-96.522103
00268	1166724	-9.815344	-0.234798	-0.284852				-0.005826	0.000549	-0.002287				-142.425486	88.066236	-96.509442
00269	1166774	-9.817863	-0.225756	-0.281501				-0.003957	-0.000510	0.001716				-142.445393	88.067068	-96.530459
00270	1166824	-9.798160	-0.211344	-0.261531				-0.004180	0.001197	-0.000362				-142.450300	88.066529	-96.534250
00271	1166874	-9.787817	-0.202601	-0.257306				-0.004891	0.003475	-0.002918				-142.460001	88.066215	-96.544567
00272	1166924	-9.781445	-0.226897	-0.276589				-0.005709	-0.003364	-0.002921				-142.424706	88.066323	-96.507670
00273	1166974	-9.805388	-0.219155	-0.271242				-0.003821	0.000104	0.000047				-142.436066	88.067442	-96.519875
00274	1167024	-9.814864	-0.204349	-0.270347				-0.002512	0.003330	-0.000260				-142.452089	88.066777	-96.535138
00275	1167074	-9.802582	-0.203100	-0.295100				-0.000931	0.001963	0.000531				-142.476277	88.066628	-96.561382
00276	1167124	-9.814336	-0.236765	-0.290451				-0.000708	0.000834	-0.002711				-142.462284	88.066103	-96.547129
00277	1167174	-9.811529	-0.217305	-0.282740				-0.002973	-0.000034	0.003669				-142.497970	88.067221	-96.584201
00278	1167224	-9.828297	-0.214988	-0.272206				-0.002863	0.002056	-0.002993				-142.489130	88.066213	-96.574544
00279	1167274	-9.798798	-0.211781	-0.273286				-0.001539	0.000492	-0.004801				-142.469447	88.065955	-96.556506
00280	1167324	-9.800191	-0.215299	-0.273027				-0.004375	0.002223	-0.002474				-142.465545	88.065068	-96.551331
00281	1167374	-9.817761	-0.203230	-0.265474				-0.003522	0.000695	-0.000015				-142.480076	88.065386	-96.567067
00282	1167424	-9.799561	-0.228743	-0.270066				-0.004610	-0.000200	0.001330				-142.489380	88.065437	-96.575141
00283	1167474	-9.818103	-0.220611	-0.253015				-0.004902	-0.000440	-0.004219				-142.469804	88.066060	-96.556091
00284	1167524	-9.813844	-0.224078	-0.279667				-0.001649	0.001471	0.000337				-142.480008	88.065676	-96.565862
00285	1167574	-9.790253	-0.231679	-0.267999				-0.004255	-0.000653	-0.003231				-142.466121	88.065833	-96.552918
00286	1167624	-9.804933	-0.207140	-0.292414				-0.006144	0.001715	0.000125				-142.477583	88.065582	-96.562584
00287	1167674	-9.804047	-0.213769	-0.268434				-0.004000	0.002681	-0.001447				-142.492384	88.065457	-96.578339
00288	1167724	-9.795524	-0.217432	-0.252191				-0.002875	0.001773	0.000340				-142.504865	88.064920	-96.590081
00289	1167774	-9.816493	-0.205978	-0.273136				-0.007303	0.000688	-0.001030				-142.513741	88.065327	-96.598952
00290	1167824	-9.808722	-0.214057	-0.281353				-0.000830	0.000739	-0.001080				-142.510455	88.065025	-96.595407
00291	1167874	-9.791700	-0.226506	-0.275211				-0.004151	0.001358	-0.001293				-142.519603	88.064948	-96.605589
00292	1167924	-9.805064	-0.209548	-0.266245				-0.007265	-0.001705	-0.002521				-142.495891	88.064923	-96.579772
00293	1167974	-9.806046	-0.217705	-0.283878				-0.000598	-0.004113	-0.005214				-142.449932	88.065700	-96.535728
00294	1168024	-9.792186	-0.228038	-0.269439				-0.004773	-0.000367	-0.001203				-142.441362	88.065476	-96.525823
00295	1168074	-9.787287	-0.232301	-0.284312				-0.004580	-0.000526	-0.002167				-142.435145	88.065528	-96.520570
00296	1168124	-9.819928	-0.211583	-0.285095				-0.000922	0.000250	-0.002813				-142.417597	88.064810	-96.502816
00297	1168174	-9.800456	-0.234597	-0.266543				-0.003086	0.000086	-0.000921				-142.422574	88.065740	-96.508865
00298	1168224	-9.812192	-0.201974	-0.282959				-0.001784	0.000458	-0.001816				-142.413069	88.065279	-96.498864
00299	1168274	-9.824718	-0.193020	-0.278622				0.000296	0.000431	-0.002144				-142.410596	88.065586	-96.498571
00300	1168324	-9.805181	-0.211519	-0.281827				-0.002813	0.000308	-0.003932				-142.386885	88.064660	-96.474099
00301	1168374	-9.812186	-0.228029	-0.271262				-0.004435	0.001057	-0.002896				-142.383687	88.064676	-96.471700
00302	1168424	-9.806110	-0.216466	-0.275635				-0.004816	0.001447	0.001021				-142.399631	88.064381	-96.486328
00303	1168474	-9.809601	-0.218181	-0.286143				-0.006403	0.001872	0.001155				-142.428789	88.065113	-96.515684
00304	1168524	-9.791858	-0.213772	-0.274263				-0.009336	0.001100	-0.003561				-142.413330	88.064341	-96.497500
00305	1168574	-9.810434	-0.221635	-0.297161				-0.004257	0.000745	0.000375				-142.430382	88.064821	-96.515498
00306	1168624	-9.808288	-0.209082	-0.284908				-0.003059	-0.000791	-0.002202				-142.412762	88.064530	-96.497020
00307	1168674	-9.806580	-0.222342	-0.263396				-0.002816	0.000639	-0.000785				-142.420863	88.065288	-96.506293
00308	1168724	-9.795665	-0.218472	-0.265849				-0.003972	0.000710	-0.002455				-142.409230	88.064933	-96.493421
00309	1168774	-9.789019	-0.215768	-0.267586				-0.005192	-0.000314	-0.003416				-142.396080	88.064359	-96.481178
00310	1168824	-9.803572	-0.215537	-0.264608				-0.002996	-0.000227	0.004534				-142.426179	88.065286	-96.510400
00311	1168874	-9.807593	-0.220627	-0.257606				-0.003741	0.001462	-0.002544				-142.427395	88.064964	-96.512689
00312	1168924	-9.820425	-0.213800	-0.276182				-0.003691	-0.003091	-0.000065				-142.412121	88.065624	-96.496358
00313	1168974	-9.811301	-0.211631	-0.293033				-0.003163	-0.000864	-0.004127				-142.390398	88.065907	-96.475775
00314	1169024	-9.801823	-0.220969	-0.266702				-0.003481	-0.001938	-0.005417				-142.344751	88.065603	-96.429028
00315	1169074	-9.835066	-0.226619	-0.270270				-0.005190	0.004026	-0.001144				-142.369402	88.065169	-96.454333
00316	1169124	-9.817355	-0.213582	-0.272031				0.000159	0.004189	0.000735				-142.396036	88.064295	-96.481048
00317	1169174	-9.810070	-0.220273	-0.282054				-0.005220	0.001691	-0.001799				-142.403906	88.064189	-96.489584
00318	1169224	-9.804586	-0.202921	-0.280644				-0.003140	-0.000370	-0.002620				-142.385454	88.063775	-96.470236
00319	1169274	-9.794951	-0.231727	-0.277419				-0.003573	-0.002932	-0.000834				-142.375666	88.065246	-96.461392
00320	1169324	-9.805809	-0.223421	-0.271224				-0.004285	-0.002656	-0.001828				-142.351083	88.065464	-96.435587
00321	1169374	-9.816733	-0.220815	-0.282105				-0.007304	0.003821	-0.001466				-142.372819	88.064945	-96.457432
00322	1169424	-9.795664	-0.227872	-0.285990				-0.007022	0.001787	-0.003590				-142.359826	88.063962	-96.442401
00323	1169474	-9.806520	-0.218008	-0.281240				-0.007179	-0.005122	0.001825				-142.357207	88.066082	-96.439874
00324	1169524	-9.810047	-0.199704	-0.288989				-0.006773	0.000376	0.000792				-142.366517	88.066177	-96.447228
00325	1169574	-9.823668	-0.210895	-0.258071				-0.002534	0.001800	-0.002737				-142.368082	88.065936	-96.450174
00326	1169624	-9.812905	-0.208832	-0.269528				-0.004645	0.000571	-0.001423				-142.362672	88.065537	-96.443440
00327	1169674	-9.796926	-0.213965	-0.264195				-0.004849	0.002185	-0.000645				-142.380789	88.065576	-96.462343
00328	1169724	-9.788842	-0.229932	-0.268258				-0.005493	0.001072	-0.001835				-142.375194	88.065309	-96.455062
00329	1169774	-9.805119	-0.218875	-0.276499				-0.007618	-0.001712	-0.002806				-142.360183	88.065412	-96.440165
00330	1169824	-9.804994	-0.217752	-0.261189				-0.005402	0.000169	-0.002482				-142.346224	88.064804	-96.424702
00331	1169874	-9.783361	-0.241931	-0.283397				-0.004020	0.002365	0.000286				-142.371129	88.065213	-96.450498
00332	1169924	-9.793074	-0.221880	-0.253886				-0.002457	0.002647	0.000032				-142.385642	88.064876	-96.464221
00333	1169974	-9.814837	-0.213454	-0.294857				-0.000348	0.004978	0.000457				-142.424236	88.064329	-96.504885
00334	1170024	-9.835470	-0.198786	-0.261572				-0.005819	0.000552	0.000096				-142.429570	88.064079	-96.508605
00335	1170074	-9.804485	-0.217325	-0.265976				-0.003988	-0.001936	-0.000888				-142.424473	88.065323	-96.504375
00336	1170124	-9.796278	-0.213702	-0.291981				-0.004946	0.001249	0.000577				-142.436206	88.065256	-96.514650
00337	1170174	-9.803807	-0.208351	-0.278248				-0.006258	0.001191	-0.000222				-142.452664	88.064930	-96.531718
00338	1170224	-9.807356	-0.215847	-0.268390				-0.000273	0.000525	0.000594				-142.459358	88.064942	-96.538327
00339	1170274	-9.799157	-0.239780	-0.273685				-0.001457	-0.000090	-0.004607				-142.437878	88.065403	-96.518276
00340	1170324	-9.806023	-0.225441	-0.270583				-0.001229	0.000785	-0.004344				-142.413252	88.064306	-96.493340
00341	1170374	-9.815512	-0.219214	-0.251144				-0.000884	0.002282	-0.003178				-142.413934	88.063637	-96.495969
00342	1170424	-9.797801	-0.212466	-0.278514				-0.004229	0.000069	0.002684				-142.433678	88.064054	-96.514524
00343	1170474	-9.815937	-0.230146	-0.275804				-0.004995	0.001730	-0.000123				-142.453077	88.064364	-96.534599
00344	1170524	-9.809814	-0.204687	-0.277012				-0.004041	-0.000133	-0.001775				-142.441577	88.064099	-96.521927
00345	1170574	-9.809875	-0.218903	-0.277226				-0.003798	-0.000834	-0.000913				-142.442075	88.064917	-96.523454
00346	1170624	-9.800685	-0.209946	-0.280926				-0.005572	0.001654	-0.000317				-142.449879	88.064776	-96.529556
00347	1170674	-9.807392	-0.221309	-0.289453				-0.002737	-0.000015	-0.002773				-142.442240	88.064296	-96.523531
00348	1170724	-9.822659	-0.218044	-0.253512				-0.002603	0.001928	-0.004238				-142.424702	88.062939	-96.505306
00349	1170774	-9.809127	-0.223862	-0.272460				-0.000776	0.000358	0.002807				-142.455131	88.064673	-96.537377
00350	1170824	-9.819512	-0.211512	-0.274817				-0.002721	0.000700	-0.001900				-142.447104	88.064022	-96.528627
00351	1170874	-9.819612	-0.211139	-0.258996				-0.001183	0.002022	0.000574				-142.470949	88.064118	-96.554344
00352	1170924	-9.800480	-0.213020	-0.268439				-0.006098	0.000025	-0.001964				-142.459525	88.063743	-96.541173
00353	1170974	-9.793759	-0.233628	-0.274246				-0.007945	0.001907	0.000140				-142.483273	88.063809	-96.564823
00354	1171024	-9.808931	-0.217888	-0.277622				-0.002808	0.004677	-0.000886				-142.501851	88.062877	-96.582499
00355	1171074	-9.794514	-0.228758	-0.277278				-0.004959	-0.001835	-0.003772				-142.478104	88.063577	-96.559389
00356	1171124	-9.811028	-0.224979	-0.270970				-0.001717	0.000232	-0.002677				-142.461812	88.063088	-96.542585
00357	1171174	-9.801783	-0.246205	-0.260631				-0.003835	0.003989	0.002449				-142.510047	88.063179	-96.591920
00358	1171224	-9.788111	-0.222480	-0.246714				-0.004334	0.001898	-0.003560				-142.497206	88.062049	-96.577857
00359	1171274	-9.803431	-0.226346	-0.264880				-0.004356	0.001674	-0.001961				-142.503557	88.061785	-96.585175
00360	1171324	-9.818765	-0.209935	-0.283359				-0.004321	-0.001493	-0.002420				-142.480979	88.061750	-96.561329
00361	1171374	-9.802066	-0.208239	-0.251689				-0.003322	0.002763	-0.000282				-142.504011	88.062089	-96.585372
00362	1171424	-9.809396	-0.223226	-0.269580				-0.001208	0.000475	-0.001135				-142.499150	88.061954	-96.580094
00363	1171474	-9.812429	-0.214277	-0.259239				-0.005884	0.002417	-0.002268				-142.508376	88.061420	-96.589858
00364	1171524	-9.796474	-0.229906	-0.265961				-0.003042	-0.001668	-0.003999				-142.474059	88.060973	-96.554698
00365	1171574	-9.800954	-0.213503	-0.266540				-0.008693	0.000210	-0.000895				-142.480868	88.061415	-96.561165
00366	1171624	-9.792271	-0.217982	-0.276697				-0.003683	0.002655	-0.001667				-142.484478	88.060510	-96.563725
00367	1171674	-9.803360	-0.225649	-0.278272				-0.009213	0.001495	0.000076				-142.505305	88.060943	-96.583988
00368	1171724	-9.815609	-0.215800	-0.279959				-0.004552	0.002063	0.000259				-142.519072	88.060551	-96.596443
00369	1171774	-9.816515	-0.218641	-0.282286				-0.001381	0.003022	0.000289				-142.546587	88.060574	-96.625684
00370	1171824	-9.806196	-0.208640	-0.277059				-0.003468	0.001082	-0.000325				-142.551163	88.060038	-96.629352
00371	1171874	-9.801974	-0.223523	-0.274477				0.000023	0.002310	0.001662				-142.583519	88.061195	-96.663618
00372	1171924	-9.803268	-0.211102	-0.284023				-0.004237	0.002164	-0.001408				-142.586540	88.060223	-96.665511
00373	1171974	-9.813045	-0.218631	-0.266263				-0.006120	0.000837	-0.000352				-142.600219	88.060527	-96.679611
00374	1172024	-9.793536	-0.212324	-0.276129				-0.003276	-0.000020	-0.001135				-142.593297	88.060174	-96.671806
00375	1172074	-9.803971	-0.213742	-0.278730				-0.004303	0.000392	0.002719				-142.625068	88.061424	-96.704456
00376	1172124	-9.796805	-0.224225	-0.263447				-0.002770	0.001778	0.003298				-142.657212	88.061657	-96.735796
00377	1172174	-9.814287	-0.215571	-0.264697				-0.002509	-0.001745	0.001099				-142.666460	88.062385	-96.746676
00378	1172224	-9.805328	-0.218915	-0.280669				-0.003005	0.000703	0.001369				-142.680139	88.062429	-96.759511
00379	1172274	-9.824575	-0.213424	-0.260122				0.000204	0.000170	-0.002524				-142.673949	88.062686	-96.755427
00380	1172324	-9.810810	-0.218281	-0.281586				-0.003054	0.001314	0.000474				-142.684867	88.062226	-96.765563
00381	1172374	-9.811458	-0.223853	-0.280395				-0.006790	0.001993	0.000617				-142.710876	88.062993	-96.791655
00382	1172424	-9.806265	-0.212753	-0.258031				-0.004179	-0.001749	-0.000180				-142.701724	88.063601	-96.781211
00383	1172474	-9.809692	-0.197847	-0.272710				-0.004074	-0.000034	-0.001263				-142.704231	88.063825	-96.784752
00384	1172524	-9.798408	-0.215746	-0.289565				-0.005175	0.000142	-0.002796				-142.687700	88.063475	-96.766664
00385	1172574	-9.787407	-0.227144	-0.274043				-0.003950	0.002301	0.000835				-142.715697	88.063687	-96.795689
00386	1172624	-9.797974	-0.222456	-0.269835				-0.007443	-0.000063	-0.002759				-142.699104	88.063068	-96.777006
00387	1172674	-9.804748	-0.212524	-0.270807				-0.005993	-0.000032	0.000573				-142.714394	88.063721	-96.792777
00388	1172724	-9.798600	-0.198984	-0.253818				-0.004295	-0.000200	-0.001839				-142.702060	88.063582	-96.779153
00389	1172774	-9.811202	-0.225699	-0.280897				-0.004108	0.003102	-0.000057				-142.729016	88.063518	-96.807074
00390	1172824	-9.793230	-0.239642	-0.270323				-0.005148	-0.001733	-0.001238				-142.713062	88.064019	-96.789515
00391	1172874	-9.820507	-0.199839	-0.292064				-0.005125	0.000823	0.000066				-142.729500	88.063814	-96.806873
00392	1172924	-9.824264	-0.211292	-0.276896				-0.000264	-0.002230	-0.002434				-142.701635	88.064016	-96.778877
00393	1172974	-9.818428	-0.219041	-0.280539				-0.002916	-0.000437	-0.004181				-142.681965	88.064394	-96.760333
00394	1173024	-9.800020	-0.206362	-0.278914				-0.004272	-0.002813	0.001258				-142.677364	88.065294	-96.754491
00395	1173074	-9.806949	-0.206277	-0.275378				-0.003332	0.001823	-0.000767				-142.692297	88.065204	-96.770678
00396	1173124	-9.798553	-0.227382	-0.281364				0.001813	-0.000570	0.002604				-142.706151	88.066049	-96.784968
00397	1173174	-9.796219	-0.224583	-0.279655				-0.004047	-0.001000	-0.000049				-142.712198	88.066449	-96.792159
00398	1173224	-9.822704	-0.206394	-0.269329				-0.009489	0.000969	-0.002396				-142.703816	88.065983	-96.780986
00399	1173274	-9.799818	-0.213131	-0.259561				-0.002104	0.000320	-0.002547				-142.698704	88.066425	-96.777314
00400	1173324	-9.812947	-0.223770	-0.272711				-0.006461	0.002509	-0.002330				-142.697785	88.065427	-96.774549
00401	1173374	-9.814360	-0.218507	-0.285252				-0.002450	-0.004381	-0.006256				-142.643528	88.065694	-96.721827
00402	1173424	-9.813801	-0.231625	-0.272658				-0.002386	-0.000040	-0.004058				-142.616749	88.064837	-96.694408
00403	1173474	-9.824807	-0.212646	-0.262797				-0.003456	0.000757	-0.001063				-142.624286	88.065519	-96.702960
00404	1173524	-9.801414	-0.206057	-0.286089				-0.002677	-0.000720	-0.000180				-142.620015	88.065594	-96.697943
00405	1173574	-9.796065	-0.214345	-0.287266				-0.004413	-0.004860	-0.003115				-142.585384	88.066868	-96.664094
00406	1173624	-9.807756	-0.214941	-0.282292				-0.001757	0.000751	0.000695				-142.594578	88.066745	-96.672817
00407	1173674	-9.827152	-0.215548	-0.263257				-0.000434	-0.000681	-0.000405				-142.598379	88.067692	-96.678548
00408	1173724	-9.815347	-0.218928	-0.278258				-0.003638	-0.003906	-0.000828				-142.573289	88.068540	-96.652368
00409	1173774	-9.806232	-0.221814	-0.283290				-0.002376	-0.000130	-0.001237				-142.575773	88.068653	-96.656436
00410	1173824	-9.795655	-0.236718	-0.269365				-0.002549	-0.000889	-0.002999				-142.551553	88.068543	-96.631389
00411	1173874	-9.821242	-0.213633	-0.259725				-0.006799	-0.001084	-0.002096				-142.543695	88.068818	-96.623809
00412	1173924	-9.803052	-0.210595	-0.281307				-0.003059	-0.001759	0.001197				-142.543500	88.069572	-96.622681
00413	1173974	-9.799359	-0.226706	-0.267730				-0.001992	0.000034	0.000659				-142.558690	88.070258	-96.639440
00414	1174024	-9.801806	-0.219037	-0.273249				-0.001631	0.001920	-0.000263				-142.567130	88.069763	-96.647422
00415	1174074	-9.810633	-0.197545	-0.274650				-0.003579	0.002630	0.000901				-142.597925	88.070106	-96.679290
00416	1174124	-9.806495	-0.218478	-0.286346				-0.004309	0.002323	-0.001407				-142.601490	88.069576	-96.681535
00417	1174174	-9.815660	-0.193256	-0.279366				-0.004104	-0.000966	0.000468				-142.611160	88.070161	-96.692281
00418	1174224	-9.789282	-0.232238	-0.269212				-0.000418	0.000872	-0.000627				-142.611482	88.069971	-96.692434
00419	1174274	-9.796106	-0.223258	-0.262247				-0.002974	-0.000337	-0.000754				-142.615750	88.070419	-96.698078
00420	1174324	-9.807956	-0.220288	-0.277750				-0.003090	0.000148	-0.001584				-142.606616	88.070268	-96.687992
00421	1174374	-9.813229	-0.226157	-0.259155				-0.006733	-0.003383	-0.003325				-142.578255	88.071038	-96.659847
00422	1174424	-9.805999	-0.228608	-0.269113				-0.000665	-0.001256	0.003342				-142.594573	88.071740	-96.676045
00423	1174474	-9.778378	-0.226648	-0.272916				-0.005206	0.001302	-0.002571				-142.595478	88.071827	-96.677520
00424	1174524	-9.815600	-0.229167	-0.255859				-0.004727	-0.001529	0.000657				-142.593558	88.072151	-96.674295
00425	1174574	-9.811985	-0.239455	-0.280277				-0.003112	-0.000951	0.001428				-142.608977	88.073472	-96.690868
00426	1174624	-9.806850	-0.215640	-0.271862				-0.003144	0.002956	-0.000930				-142.618906	88.072603	-96.699916
00427	1174674	-9.793180	-0.224243	-0.271154				-0.006452	0.001155	-0.001119				-142.629122	88.073351	-96.710233
00428	1174724	-9.810051	-0.226100	-0.273679				-0.002357	0.001253	-0.001932				-142.623101	88.072860	-96.703482
00429	1174774	-9.802538	-0.229328	-0.288574				-0.002969	0.002442	-0.001408				-142.636794	88.072469	-96.718527
00430	1174824	-9.797190	-0.247709	-0.267637				-0.002208	0.000075	0.003002				-142.657926	88.073173	-96.738965
00431	1174874	-9.812658	-0.203950	-0.281775				-0.001998	-0.001002	-0.002491				-142.647014	88.073247	-96.729716
00432	1174924	-9.798399	-0.244166	-0.273004				-0.004917	0.001113	-0.001895				-142.641225	88.072659	-96.722518
00433	1174974	-9.805848	-0.215893	-0.280076				-0.002716	-0.002462	0.000805				-142.644613	88.074225	-96.727192
00434	1175024	-9.809952	-0.209760	-0.283482				-0.002968	0.000348	0.000372				-142.649571	88.074409	-96.731231
00435	1175074	-9.806853	-0.213385	-0.277285				-0.006524	-0.000427	0.000890				-142.665473	88.074945	-96.747544
00436	1175124	-9.789589	-0.220981	-0.281156				-0.004690	-0.000211	-0.003374				-142.642887	88.074348	-96.723622
00437	1175174	-9.799083	-0.223634	-0.280576				-0.002832	-0.001723	0.001516				-142.655066	88.075349	-96.737255
00438	1175224	-9.798825	-0.211523	-0.269423				-0.002780	0.000703	0.000313				-142.661643	88.075294	-96.743022
00439	1175274	-9.809182	-0.202142	-0.269298				-0.005095	-0.001183	-0.000396				-142.664624	88.076284	-96.746578
00440	1175324	-9.793280	-0.208768	-0.248153				-0.004538	0.002445	-0.002787				-142.659773	88.075289	-96.740408
00441	1175374	-9.822766	-0.214625	-0.281479				-0.000493	0.000326	0.000403				-142.674129	88.075999	-96.756734
00442	1175424	-9.809600	-0.198171	-0.287543				-0.004756	-0.001084	-0.003254				-142.647543	88.075865	-96.728699
00443	1175474	-9.803470	-0.210913	-0.290307				-0.000125	0.002383	-0.006359				-142.627382	88.074496	-96.710812
00444	1175524	-9.817170	-0.226186	-0.277115				-0.001063	-0.002245	-0.002562				-142.598615	88.074451	-96.681771
00445	1175574	-9.802472	-0.223243	-0.272785				0.000011	0.002131	-0.005303				-142.583958	88.073733	-96.669238
00446	1175624	-9.808183	-0.218050	-0.284411				-0.004426	-0.001237	-0.002647				-142.560784	88.073588	-96.644768
00447	1175674	-9.807387	-0.211879	-0.271678				-0.008715	-0.003479	-0.002646				-142.537209	88.074945	-96.620688
00448	1175724	-9.801271	-0.220885	-0.278023				-0.001717	0.000401	0.000247				-142.541520	88.074838	-96.624529
00449	1175774	-9.803230	-0.220576	-0.270109				-0.001030	0.001025	0.000662				-142.561933	88.075102	-96.646902
00450	1175824	-9.800131	-0.233902	-0.282262				-0.003599	-0.002030	-0.000985				-142.545909	88.075286	-96.629875
00451	1175874	-9.792577	-0.223489	-0.255304				-0.007094	-0.000797	-0.000489				-142.550052	88.076348	-96.634007
00452	1175924	-9.800759	-0.228948	-0.267888				-0.005094	-0.001541	-0.003574				-142.519307	88.075924	-96.601845
00453	1175974	-9.819704	-0.207950	-0.289431				-0.005162	0.000918	-0.000735				-142.530437	88.076568	-96.613521
00454	1176024	-9.825432	-0.209485	-0.284306				-0.005136	-0.001118	-0.002640				-142.508223	88.076554	-96.589752
00455	1176074	-9.792879	-0.228675	-0.272398				-0.002452	0.002552	0.000349				-142.534378	88.076366	-96.617495
00456	1176124	-9.804711	-0.218074	-0.266329				-0.007449	0.002365	-0.001271				-142.540044	88.075720	-96.620983
00457	1176174	-9.818309	-0.201627	-0.297150				-0.001137	0.002246	-0.002895				-142.543218	88.075320	-96.625962
00458	1176224	-9.809662	-0.196560	-0.280327				-0.002780	-0.001497	-0.000631				-142.532218	88.075411	-96.614212
00459	1176274	-9.800465	-0.205910	-0.286138				-0.006097	-0.000171	-0.003437				-142.518949	88.075780	-96.601251
00460	1176324	-9.830482	-0.228184	-0.278035				-0.004265	-0.002300	-0.001751				-142.496417	88.075752	-96.577573
00461	1176374	-9.797958	-0.234572	-0.286699				-0.006667	0.000691	-0.003112				-142.491267	88.076044	-96.572530
00462	1176424	-9.814177	-0.218701	-0.275780				-0.004292	-0.000260	0.000952				-142.497644	88.076250	-96.577693
00463	1176474	-9.827954	-0.217647	-0.284203				-0.003221	0.001112	-0.003275				-142.491899	88.075955	-96.573208
00464	1176524	-9.828708	-0.218285	-0.275460				-0.006234	0.000878	0.003663				-142.523134	88.076493	-96.602634
00465	1176574	-9.805536	-0.240396	-0.280838				-0.003953	-0.000030	-0.001485				-142.524215	88.076769	-96.604748
00466	1176624	-9.814495	-0.197926	-0.265925				-0.001705	-0.000764	0.001204				-142.528901	88.077043	-96.608988
00467	1176674	-9.806423	-0.217653	-0.260997				-0.004708	-0.000335	-0.001168				-142.530803	88.077430	-96.611733
00468	1176724	-9.816247	-0.209108	-0.268328				-0.004072	0.001006	0.000029				-142.537206	88.077298	-96.616940
00469	1176774	-9.808740	-0.221109	-0.265047				-0.003278	0.000278	0.002044				-142.563120	88.078344	-96.644048
00470	1176824	-9.809114	-0.206264	-0.273242				-0.002994	0.002544	0.002407				-142.593518	88.078103	-96.673636
00471	1176874	-9.806014	-0.219389	-0.284513				0.000588	0.000601	0.000619				-142.610954	88.078639	-96.693408
00472	1176924	-9.797798	-0.231843	-0.278721				-0.001046	-0.000691	-0.001816				-142.595301	88.078690	-96.677365
00473	1176974	-9.797180	-0.226890	-0.273273				-0.004153	0.000190	-0.002447				-142.590989	88.079141	-96.673933
00474	1177024	-9.797545	-0.212271	-0.281868				-0.004656	-0.000986	-0.001585				-142.576381	88.079041	-96.658000
00475	1177074	-9.787555	-0.237747	-0.268076				0.001927	0.002719	-0.002065				-142.586266	88.078680	-96.670593
00476	1177124	-9.807693	-0.208695	-0.265558				-0.003315	0.000942	-0.005107				-142.557420	88.077533	-96.640794
00477	1177174	-9.810112	-0.214484	-0.287253				-0.005168	-0.002089	-0.001043				-142.550964	88.078896	-96.634840
00478	1177224	-9.807728	-0.226494	-0.262149				-0.002029	-0.000162	-0.003254				-142.528585	88.078398	-96.611863
00479	1177274	-9.818695	-0.222216	-0.270004				-0.003897	0.000387	-0.001097				-142.534458	88.078502	-96.618825
00480	1177324	-9.815327	-0.220893	-0.277714				-0.000978	0.000215	-0.002843				-142.516623	88.077976	-96.600694
00481	1177374	-9.809112	-0.225754	-0.271273				-0.002342	0.000037	0.002296				-142.543422	88.078671	-96.629042
00482	1177424	-9.804775	-0.228147	-0.275329				-0.005389	-0.000221	-0.003088				-142.522843	88.078213	-96.606896
00483	1177474	-9.825995	-0.213336	-0.261222				-0.001641	0.003412	0.001639				-142.562463	88.078133	-96.648310
00484	1177524	-9.797140	-0.210161	-0.275351				-0.007311	-0.001026	0.000538				-142.562956	88.078224	-96.646795
00485	1177574	-9.807635	-0.212243	-0.268557				-0.005747	-0.002805	0.002514				-142.576812	88.080280	-96.661006
00486	1177624	-9.804288	-0.203225	-0.288831				-0.004935	0.001988	0.000677				-142.593250	88.079889	-96.676060
00487	1177674	-9.803828	-0.223672	-0.283746				-0.007199	-0.000606	-0.001738				-142.589740	88.080728	-96.672475
00488	1177724	-9.804697	-0.215983	-0.273465				-0.004181	0.001586	0.001028				-142.606316	88.080338	-96.687942
00489	1177774	-9.805790	-0.223134	-0.274587				-0.009400	-0.001097	-0.002598				-142.595711	88.080727	-96.676779
00490	1177824	-9.793757	-0.226125	-0.289121				-0.004951	0.003376	-0.001017				-142.607537	88.079929	-96.687139
00491	1177874	-9.788970	-0.214831	-0.277549				-0.001960	-0.002450	-0.002150				-142.590948	88.080639	-96.672162
00492	1177924	-9.802412	-0.216105	-0.258343				-0.001293	-0.000121	-0.003836				-142.564646	88.080178	-96.645408
00493	1177974	-9.811047	-0.226466	-0.266175				-0.003158	-0.001895	-0.002848				-142.545969	88.080904	-96.627888
00494	1178024	-9.814474	-0.223790	-0.255149				-0.001948	-0.000513	-0.002070				-142.530061	88.080588	-96.611441
00495	1178074	-9.815217	-0.200194	-0.260227				-0.005817	0.000457	0.001185				-142.552335	88.081415	-96.634150
00496	1178124	-9.801017	-0.237337	-0.247831				-0.004105	0.000702	-0.004178				-142.528575	88.080644	-96.609158
00497	1178174	-9.819903	-0.225167	-0.260896				-0.003486	0.000627	-0.000137				-142.542054	88.080809	-96.623889
00498	1178224	-9.806802	-0.219914	-0.270133				-0.006758	0.000630	-0.000738				-142.542249	88.080584	-96.622130
00499	1178274	-9.804543	-0.225509	-0.278259				-0.007270	0.002687	-0.002331				-142.552455	88.080222	-96.632377
00500	1178324	-9.801181	-0.225526	-0.283474				-0.004037	-0.001195	0.000530				-142.550852	88.080591	-96.629618
00501	1178374	-9.804261	-0.218526	-0.261555				-0.001314	0.001931	0.001276				-142.579840	88.080978	-96.660400
00502	1178424	-9.814399	-0.219579	-0.276230				-0.001504	-0.001581	-0.004034				-142.544530	88.080732	-96.624601
00503	1178474	-9.804402	-0.222412	-0.270099				-0.001574	0.001114	0.002494				-142.577780	88.081870	-96.659474
00504	1178524	-9.803059	-0.210227	-0.280755				-0.006451	0.003193	-0.001562				-142.585404	88.080981	-96.665218
00505	1178574	-9.795000	-0.231137	-0.271120				-0.003300	-0.000310	-0.001684				-142.583718	88.080944	-96.664902
00506	1178624	-9.805031	-0.230609	-0.268703				-0.000722	0.002352	-0.002379				-142.579792	88.080171	-96.660698
00507	1178674	-9.812261	-0.223103	-0.268615				-0.003935	0.000647	-0.001483				-142.584602	88.080010	-96.666683
00508	1178724	-9.802318	-0.210647	-0.283755				-0.003412	-0.000925	-0.000595				-142.576563	88.080254	-96.657611
00509	1178774	-9.796543	-0.214097	-0.287150				-0.003387	0.001266	-0.002929				-142.573991	88.080280	-96.656160
00510	1178824	-9.790739	-0.216501	-0.257916				-0.006210	0.000772	0.000484				-142.583020	88.080099	-96.663452
00511	1178874	-9.806734	-0.194992	-0.255464				-0.002579	0.002222	-0.002890				-142.585732	88.079578	-96.667609
00512	1178924	-9.800193	-0.206116	-0.251096				-0.001065	-0.002110	-0.000700				-142.570376	88.079945	-96.651938
00513	1178974	-9.805739	-0.228919	-0.271535				-0.006261	0.000188	-0.000712				-142.578128	88.080617	-96.659900
00514	1179024	-9.793644	-0.226053	-0.268724				-0.004900	0.000156	0.004163				-142.608882	88.081052	-96.689357
00515	1179074	-9.795320	-0.222033	-0.276380				-0.001387	0.000143	-0.000273				-142.618027	88.081998	-96.700117
00516	1179124	-9.810446	-0.194245	-0.274105				-0.006402	-0.002431	-0.000818				-142.601693	88.082380	-96.681948
00517	1179174	-9.806628	-0.215300	-0.270312				-0.002746	0.000738	0.000857				-142.621922	88.083032	-96.703535
00518	1179224	-9.802958	-0.209556	-0.259120				-0.005240	0.000533	0.000988				-142.632837	88.083288	-96.712877
00519	1179274	-9.796805	-0.205292	-0.262232				-0.004377	0.000986	-0.006513				-142.605338	88.082261	-96.686365
00520	1179324	-9.796901	-0.210285	-0.275282				0.000011	-0.001810	-0.002984				-142.575739	88.082112	-96.656767
00521	1179374	-9.824108	-0.231169	-0.261820				-0.002750	-0.000492	-0.001912				-142.570785	88.082833	-96.653052
00522	1179424	-9.808893	-0.206973	-0.267986				0.000258	0.003890	-0.001219				-142.582707	88.081752	-96.665046
00523	1179474	-9.829766	-0.195035	-0.267130				-0.002673	0.000477	0.001305				-142.604908	88.082195	-96.688762
00524	1179524	-9.802807	-0.229932	-0.281892				-0.002547	0.002227	-0.001988				-142.603950	88.081352	-96.687064
00525	1179574	-9.816352	-0.202302	-0.265253				-0.003841	0.000686	0.000060				-142.618777	88.081901	-96.702961
00526	1179624	-9.815989	-0.210546	-0.268827				-0.001404	0.000636	0.000307				-142.624457	88.082014	-96.708165
00527	1179674	-9.820071	-0.207057	-0.269812				-0.002351	0.001225	-0.000744				-142.636440	88.081960	-96.721681
00528	1179724	-9.805279	-0.226329	-0.273459				-0.004997	-0.000571	-0.003603				-142.610623	88.081377	-96.694450
00529	1179774	-9.808882	-0.222894	-0.276293				-0.001916	0.000654	-0.000362				-142.621400	88.082220	-96.706640
00530	1179824	-9.815277	-0.207334	-0.275280				-0.001458	-0.002667	0.000322				-142.610383	88.082777	-96.695234
00531	1179874	-9.797132	-0.212803	-0.271308				-0.003432	-0.000725	0.002681				-142.635542	88.084307	-96.721475
00532	1179924	-9.800706	-0.228120	-0.278706				-0.003651	0.000273	0.002147				-142.652755	88.084576	-96.737665
00533	1179974	-9.792458	-0.218031	-0.284042				-0.005043	0.000632	0.002439				-142.684230	88.085250	-96.769936
00534	1180024	-9.807606	-0.208420	-0.279648				-0.008150	-0.000524	0.000388				-142.686319	88.085600	-96.769626
00535	1180074	-9.799033	-0.217592	-0.262486				-0.006927	0.000175	-0.002466				-142.682753	88.085550	-96.766265
00536	1180124	-9.811239	-0.223662	-0.278901				-0.005924	-0.000199	-0.001889				-142.670648	88.085204	-96.752479
00537	1180174	-9.805771	-0.213538	-0.298086				-0.000884	-0.000364	-0.001488				-142.668530	88.085810	-96.752208
00538	1180224	-9.807209	-0.225845	-0.271522				-0.004022	0.001582	-0.002563				-142.660375	88.085007	-96.742895
00539	1180274	-9.796947	-0.230958	-0.265211				-0.005033	-0.002859	0.001072				-142.664488	88.086476	-96.747693
00540	1180324	-9.811085	-0.225359	-0.261413				-0.003494	-0.001059	-0.001293				-142.651022	88.086396	-96.733256
00541	1180374	-9.802373	-0.212493	-0.271276				-0.000631	-0.000291	-0.000916				-142.653313	88.087356	-96.737352
00542	1180424	-9.819540	-0.202417	-0.288149				-0.004566	-0.002499	-0.000462				-142.638337	88.087912	-96.721038
00543	1180474	-9.804609	-0.218316	-0.283939				-0.001674	-0.000963	-0.003097				-142.623399	88.087685	-96.707945
00544	1180524	-9.818617	-0.222441	-0.282447				-0.004552	-0.000013	-0.001958				-142.611560	88.087044	-96.694908
00545	1180574	-9.805231	-0.219714	-0.296005				-0.001828	0.001042	-0.001829				-142.614325	88.087712	-96.699070
00546	1180624	-9.783724	-0.235232	-0.276029				-0.005101	0.002143	-0.002684				-142.608767	88.086668	-96.692078
00547	1180674	-9.805388	-0.220875	-0.268702				-0.003380	0.001500	-0.001568				-142.616982	88.086756	-96.701429
00548	1180724	-9.804965	-0.231488	-0.276135				-0.005052	0.003728	-0.002738				-142.619415	88.085245	-96.702488
00549	1180774	-9.800541	-0.222847	-0.277284				-0.004654	0.000051	-0.003755				-142.605132	88.085669	-96.688816
00550	1180824	-9.804897	-0.216886	-0.277537				-0.003583	0.003082	0.000814				-142.627781	88.085064	-96.710469
00551	1180874	-9.818998	-0.214841	-0.273565				-0.004072	-0.000233	-0.003656				-142.612445	88.085285	-96.696068
00552	1180924	-9.800714	-0.215637	-0.264363				-0.005174	0.000529	-0.001569				-142.606220	88.084909	-96.688350
00553	1180974	-9.804880	-0.213453	-0.288030				-0.005575	-0.000125	-0.002566				-142.599497	88.085137	-96.682170
00554	1181024	-9.785500	-0.221905	-0.285008				-0.002348	-0.000110	-0.005013				-142.565621	88.084217	-96.647629
00555	1181074	-9.826069	-0.202679	-0.271578				-0.003584	-0.002523	-0.004569				-142.532533	88.084613	-96.615596
00556	1181124	-9.806007	-0.199834	-0.248487				-0.007605	-0.001644	-0.000164				-142.525180	88.084740	-96.606139
00557	1181174	-9.820201	-0.217162	-0.267612				-0.006015	0.000070	0.001927				-142.550392	88.086043	-96.631658
00558	1181224	-9.805198	-0.220745	-0.260067				-0.001434	0.001958	-0.000289				-142.559063	88.085668	-96.639871
00559	1181274	-9.807895	-0.214172	-0.261521				-0.003017	0.003349	-0.001527				-142.577148	88.084711	-96.659475
00560	1181324	-9.801294	-0.226647	-0.263388				-0.001302	0.000528	-0.002989				-142.559747	88.084192	-96.641647
00561	1181374	-9.813188	-0.210963	-0.257636				-0.002561	0.001930	-0.002403				-142.564080	88.084394	-96.647239
00562	1181424	-9.827300	-0.218602	-0.271773				-0.004143	0.004322	-0.004277				-142.558867	88.082509	-96.640892
00563	1181474	-9.812125	-0.224171	-0.288783				-0.007046	0.002052	-0.000720				-142.576706	88.082513	-96.658810
00564	1181524	-9.808646	-0.229598	-0.261889				-0.003936	-0.000294	-0.003023				-142.555697	88.081984	-96.636690
00565	1181574	-9.808146	-0.225755	-0.273219				-0.002824	0.002420	0.001289				-142.587690	88.082204	-96.670060
00566	1181624	-9.783154	-0.225287	-0.274050				-0.007743	0.000644	-0.001983				-142.579859	88.081717	-96.660004
00567	1181674	-9.810743	-0.212437	-0.266686				-0.001419	0.000370	-0.000615				-142.588048	88.082406	-96.669844
00568	1181724	-9.802709	-0.219722	-0.279662				-0.004598	-0.000560	-0.001672				-142.575061	88.082160	-96.655565
00569	1181774	-9.803963	-0.218360	-0.272110				-0.006315	0.003522	0.001240				-142.613486	88.082365	-96.694287
00570	1181824	-9.816981	-0.217858	-0.285514				-0.000903	-0.001585	0.001425				-142.615169	88.082931	-96.695730
00571	1181874	-9.817137	-0.195390	-0.267894				-0.002718	0.000929	-0.001378				-142.621288	88.083336	-96.703154
00572	1181924	-9.808620	-0.186614	-0.275513				-0.004152	-0.002424	-0.000016				-142.609527	88.083880	-96.690198
00573	1181974	-9.811270	-0.199307	-0.246351				-0.000231	0.001129	-0.003536				-142.602084	88.083404	-96.684927
00574	1182024	-9.815319	-0.204260	-0.275137				-0.001615	0.002498	-0.000699				-142.610906	88.082743	-96.693277
00575	1182074	-9.810013	-0.225486	-0.281607				-0.002061	0.001393	-0.002117				-142.614129	88.082988	-96.697977
00576	1182124	-9.801798	-0.216421	-0.279739				-0.005327	0.001298	-0.003039				-142.601546	88.082084	-96.683894
00577	1182174	-9.807289	-0.217728	-0.274416				-0.002455	0.000637	-0.001609				-142.604942	88.082298	-96.688720
00578	1182224	-9.825960	-0.210110	-0.275296				-0.004180	0.001580	-0.000920				-142.608010	88.081823	-96.690576
00579	1182274	-9.806086	-0.219116	-0.274892				-0.002602	0.001287	-0.001058				-142.618067	88.081818	-96.702080
00580	1182324	-9.796799	-0.221904	-0.268476				-0.003124	0.000663	0.000736				-142.627433	88.081780	-96.710563
00581	1182374	-9.814029	-0.218253	-0.261923				-0.003464	0.002206	-0.001662				-142.638249	88.081841	-96.722437
00582	1182424	-9.816265	-0.200419	-0.283197				-0.001495	-0.002313	-0.000373				-142.624131	88.082312	-96.707877
00583	1182474	-9.816622	-0.213133	-0.276301				-0.002621	0.002737	-0.003583				-142.624957	88.081569	-96.710172
00584	1182524	-9.819680	-0.213731	-0.281275				-0.007550	0.000682	-0.002136				-142.616111	88.081112	-96.699136
00585	1182574	-9.798696	-0.218133	-0.275921				-0.000895	0.000893	-0.001900				-142.618070	88.081440	-96.702893
00586	1182624	-9.792872	-0.223091	-0.284283				-0.002741	0.000472	-0.001994				-142.607842	88.081046	-96.691849
00587	1182674	-9.798388	-0.230821	-0.262922				-0.005382	0.001077	0.000229				-142.626406	88.081149	-96.711152
00588	1182724	-9.811910	-0.213122	-0.267466				-0.002988	0.001507	-0.000034				-142.634606	88.080954	-96.718440
00589	1182774	-9.794497	-0.209421	-0.280528				-0.004277	0.001482	-0.002213				-142.638420	88.081192	-96.723038
00590	1182824	-9.803465	-0.218160	-0.277252				-0.003749	-0.000291	-0.004432				-142.607967	88.080371	-96.691540
00591	1182874	-9.833488	-0.206136	-0.258491				-0.004414	0.002036	0.000558				-142.633645	88.080393	-96.718201
00592	1182924	-9.795879	-0.218088	-0.270157				-0.004803	-0.000013	-0.000354				-142.632487	88.080549	-96.715581
00593	1182974	-9.807879	-0.230362	-0.267962				-0.004634	0.001963	0.000554				-142.657664	88.080819	-96.741575
00594	1183024	-9.808231	-0.212333	-0.287257				-0.007044	-0.002381	-0.001835				-142.634577	88.081407	-96.716316
00595	1183074	-9.804604	-0.221430	-0.277486				-0.001558	-0.000537	-0.001360				-142.633170	88.081448	-96.716785
00596	1183124	-9.817951	-0.214734	-0.289337				-0.004650	-0.002722	0.001332				-142.629489	88.082301	-96.711767
00597	1183174	-9.821972	-0.208488	-0.267538				-0.004230	-0.000711	0.000832				-142.642545	88.083300	-96.725738
00598	1183224	-9.805055	-0.198826	-0.287489				-0.001988	-0.003771	0.003307				-142.645816	88.084791	-96.728418
00599	1183274	-9.816070	-0.193285	-0.290656				-0.003484	0.001048	0.001384				-142.671598	88.085470	-96.755358
00600	1183324	-9.786119	-0.233277	-0.278536				-0.000919	-0.000499	-0.001816				-142.656903	88.085372	-96.740350
00601	1183374	-9.788067	-0.235608	-0.265571				-0.001650	-0.000374	0.000567				-142.669621	88.085765	-96.754892
00602	1183424	-9.801585	-0.225307	-0.259139				-0.005376	0.002716	-0.004090				-142.657427	88.084346	-96.741183
00603	1183474	-9.811846	-0.201912	-0.263100				-0.006035	0.000151	-0.004615				-142.638187	88.084591	-96.722163
00604	1183524	-9.804678	-0.218687	-0.271290				-0.003006	0.001729	-0.002817				-142.628679	88.084080	-96.711650
00605	1183574	-9.811273	-0.228351	-0.262804				-0.004470	-0.001457	0.000697				-142.637649	88.084840	-96.721620
00606	1183624	-9.805222	-0.220017	-0.257639				-0.003230	0.002185	0.002318				-142.665753	88.084726	-96.748821
00607	1183674	-9.806329	-0.224817	-0.260991				-0.002139	0.000744	-0.000934				-142.673658	88.084899	-96.758336
00608	1183724	-9.811936	-0.209085	-0.271545				-0.004788	0.002410	-0.003098				-142.666472	88.084031	-96.749691
00609	1183774	-9.808096	-0.213481	-0.268878				-0.001121	0.001251	-0.000325				-142.680993	88.083990	-96.766204
00610	1183824	-9.811097	-0.219403	-0.271544				-0.004075	0.001489	0.001031				-142.696781	88.083802	-96.780846
00611	1183874	-9.802761	-0.222966	-0.264415				-0.006460	0.002002	0.002228				-142.734511	88.084321	-96.818861
00612	1183924	-9.804551	-0.204493	-0.282431				-0.005333	-0.003706	-0.000853				-142.711031	88.084826	-96.793907
00613	1183974	-9.802101	-0.207583	-0.285472				-0.007647	0.000611	-0.002429				-142.709073	88.085636	-96.791633
00614	1184024	-9.807464	-0.219456	-0.282295				-0.005975	0.000617	0.000071				-142.714326	88.085585	-96.795145
00615	1184074	-9.788198	-0.236113	-0.283344				-0.005456	0.000327	-0.001407				-142.718409	88.085706	-96.799888
00616	1184124	-9.796412	-0.228424	-0.279467				-0.000427	0.001228	-0.001483				-142.714588	88.085566	-96.795793
00617	1184174	-9.798203	-0.224432	-0.268017				-0.002679	0.002544	-0.002659				-142.720525	88.084819	-96.803243
00618	1184224	-9.801727	-0.232326	-0.258590				-0.001799	-0.000995	-0.000238				-142.714100	88.085065	-96.796275
00619	1184274	-9.788386	-0.213472	-0.259131				-0.005002	-0.001120	-0.003407				-142.696621	88.085257	-96.779569
00620	1184324	-9.798109	-0.230288	-0.270923				-0.002478	0.004324	-0.003292				-142.697441	88.083618	-96.779706
00621	1184374	-9.804510	-0.219631	-0.258088				-0.001351	-0.001086	-0.002934				-142.681690	88.084267	-96.765608
00622	1184424	-9.824582	-0.213374	-0.259249				-0.004948	0.000570	-0.000154				-142.685116	88.083943	-96.767681
00623	1184474	-9.815507	-0.212052	-0.266821				-0.005344	0.004856	-0.002315				-142.706046	88.083249	-96.789181
00624	1184524	-9.795566	-0.226009	-0.266717				-0.003547	-0.001123	0.000212				-142.702717	88.083581	-96.784819
00625	1184574	-9.797244	-0.245791	-0.263881				-0.005509	0.000779	-0.002301				-142.702683	88.083710	-96.785243
00626	1184624	-9.812621	-0.212181	-0.270484				-0.002275	-0.000067	-0.002254				-142.687587	88.083440	-96.769444
00627	1184674	-9.819557	-0.218674	-0.252223				-0.004487	0.005426	-0.001416				-142.717444	88.082197	-96.800310
00628	1184724	-9.806250	-0.221631	-0.280870				-0.000468	0.000644	-0.000392				-142.718199	88.082191	-96.800848
00629	1184774	-9.803455	-0.234138	-0.282738				-0.005021	-0.001568	-0.002543				-142.704008	88.082317	-96.787487
00630	1184824	-9.811580	-0.216047	-0.276746				-0.004359	-0.000776	0.000925				-142.707509	88.082785	-96.789689
00631	1184874	-9.796509	-0.228199	-0.263111				-0.001431	-0.001316	-0.000727				-142.705916	88.083820	-96.789755
00632	1184924	-9.787027	-0.218980	-0.275405				-0.003518	-0.002051	0.003222				-142.718303	88.084674	-96.801204
00633	1184974	-9.813528	-0.220095	-0.263137				-0.005023	-0.000244	-0.001606				-142.716843	88.085621	-96.800208
00634	1185024	-9.813827	-0.207749	-0.277450				-0.004421	0.001193	0.000104				-142.725018	88.085375	-96.807116
00635	1185074	-9.809735	-0.222113	-0.255534				-0.004432	0.002284	-0.003549				-142.724224	88.084458	-96.807352
00636	1185124	-9.795989	-0.214581	-0.260445				-0.004683	-0.002118	-0.003638				-142.689738	88.084318	-96.771505
00637	1185174	-9.809321	-0.208233	-0.273560				-0.002971	-0.002439	-0.001749				-142.675738	88.085282	-96.758734
00638	1185224	-9.810752	-0.228278	-0.270771				-0.001036	0.001276	-0.002635				-142.664685	88.084502	-96.747392
00639	1185274	-9.799540	-0.207360	-0.278332				-0.004296	0.001191	-0.001022				-142.675023	88.084823	-96.758660
00640	1185324	-9.799158	-0.223723	-0.268147				-0.003880	-0.000197	-0.004013				-142.647882	88.084080	-96.730423
00641	1185374	-9.801568	-0.200671	-0.270803				-0.004174	-0.000845	-0.001515				-142.644089	88.084369	-96.727673
00642	1185424	-9.821982	-0.187124	-0.269569				-0.003379	0.000726	-0.000351				-142.646332	88.084061	-96.728986
00643	1185474	-9.797066	-0.216467	-0.273780				-0.002770	0.001474	-0.001220				-142.656351	88.084868	-96.740061
00644	1185524	-9.814502	-0.201648	-0.257142				-0.002614	0.002904	-0.000280				-142.670143	88.084210	-96.753089
00645	1185574	-9.812709	-0.221253	-0.276597				-0.005440	0.003953	-0.000522				-142.698674	88.083527	-96.782358
00646	1185624	-9.807057	-0.218916	-0.271112				-0.004105	0.002592	0.002292				-142.728892	88.083512	-96.811348
00647	1185674	-9.824328	-0.222514	-0.281494				-0.001874	0.000656	0.000003				-142.742589	88.084032	-96.826608
00648	1185724	-9.796355	-0.215201	-0.276611				-0.006164	0.001349	-0.003297				-142.728763	88.083031	-96.811055
00649	1185774	-9.814038	-0.218261	-0.260738				-0.003722	0.002302	-0.001272				-142.742760	88.083277	-96.826004
00650	1185824	-9.811247	-0.210658	-0.265208				-0.006284	-0.000147	-0.005642				-142.705492	88.082188	-96.786971
00651	1185874	-9.808901	-0.212094	-0.255383				-0.005893	-0.001201	-0.002567				-142.693410	88.082441	-96.775415
00652	1185924	-9.802568	-0.227934	-0.286137				-0.003946	-0.001875	-0.000400				-142.681919	88.083273	-96.762609
00653	1185974	-9.794180	-0.212475	-0.286915				-0.002846	0.000434	-0.005104				-142.660255	88.082541	-96.742417
00654	1186024	-9.822936	-0.221108	-0.279881				-0.006232	0.002810	0.000758				-142.681826	88.081886	-96.762269
00655	1186074	-9.808202	-0.220722	-0.275838				-0.000773	0.000352	0.001431				-142.703128	88.083313	-96.785270
00656	1186124	-9.804210	-0.215997	-0.275379				-0.002271	0.000938	-0.000867				-142.702546	88.083149	-96.783968
00657	1186174	-9.822520	-0.215169	-0.280982				-0.004988	0.000729	-0.000698				-142.713291	88.083131	-96.795510
00658	1186224	-9.825653	-0.216083	-0.273478				-0.004815	-0.003699	-0.000466				-142.692189	88.083872	-96.773028
00659	1186274	-9.786838	-0.225708	-0.292703				-0.003978	0.001263	-0.000636				-142.705199	88.084410	-96.786937
00660	1186324	-9.806120	-0.214634	-0.277520				0.000419	0.000817	-0.002675				-142.691109	88.083774	-96.772950
00661	1186374	-9.821931	-0.192977	-0.268094				-0.002005	0.001350	-0.006156				-142.666765	88.082641	-96.750333
00662	1186424	-9.810014	-0.208471	-0.277044				-0.003128	0.001663	-0.001955				-142.663078	88.081810	-96.745786
00663	1186474	-9.799946	-0.214526	-0.274634				-0.002674	-0.000559	-0.001425				-142.660958	88.082511	-96.744984
00664	1186524	-9.818733	-0.217500	-0.272234				-0.004379	0.001536	-0.005093				-142.635769	88.081156	-96.718574
00665	1186574	-9.803774	-0.200781	-0.260211				-0.005099	-0.001599	0.001308				-142.647277	88.082875	-96.730586
00666	1186624	-9.799460	-0.208168	-0.288529				-0.003437	-0.000864	-0.001422				-142.634220	88.082857	-96.716524
00667	1186674	-9.820781	-0.204945	-0.275447				-0.001474	-0.002421	-0.005279				-142.595663	88.083005	-96.679725
00668	1186724	-9.798637	-0.227502	-0.267718				-0.002993	-0.000890	-0.003764				-142.566213	88.082528	-96.649414
00669	1186774	-9.807479	-0.221258	-0.274895				-0.007225	0.000561	-0.001209				-142.573295	88.082622	-96.656651
00670	1186824	-9.816371	-0.228589	-0.286129				-0.001065	0.001243	-0.002220				-142.564805	88.081888	-96.647871
00671	1186874	-9.796578	-0.212992	-0.283134				-0.002463	0.001803	-0.003432				-142.561737	88.081677	-96.646190
00672	1186924	-9.809841	-0.222740	-0.274681				-0.003864	0.002752	-0.000598				-142.573151	88.080879	-96.656524
00673	1186974	-9.813729	-0.233612	-0.279594				-0.006731	-0.001019	-0.001702				-142.567521	88.081953	-96.650952
00674	1187024	-9.804179	-0.224036	-0.264118				-0.002824	0.002185	-0.002144				-142.565066	88.081122	-96.647671
00675	1187074	-9.803085	-0.230362	-0.275135				-0.002839	-0.000005	0.003075				-142.596725	88.081947	-96.680797
00676	1187124	-9.812216	-0.221992	-0.277772				-0.005415	0.004180	-0.001065				-142.612943	88.080862	-96.695449
00677	1187174	-9.810981	-0.215341	-0.260032				-0.004862	0.000826	-0.001024				-142.621564	88.080897	-96.704902
00678	1187224	-9.820650	-0.218966	-0.267693				-0.005739	0.002395	-0.000688				-142.630941	88.080322	-96.712604
00679	1187274	-9.800071	-0.201643	-0.280863				-0.000837	-0.001016	-0.001913				-142.622703	88.080716	-96.706328
00680	1187324	-9.805122	-0.223795	-0.266425				-0.003827	-0.002619	-0.001780				-142.597777	88.080966	-96.680305
00681	1187374	-9.820376	-0.197828	-0.279105				-0.002055	-0.000741	-0.000104				-142.603672	88.082040	-96.687622
00682	1187424	-9.799548	-0.230779	-0.267424				-0.001213	-0.001278	-0.001942				-142.584195	88.081829	-96.667851
00683	1187474	-9.824114	-0.198956	-0.287111				-0.002226	0.003782	-0.000403				-142.611008	88.081778	-96.696103
00684	1187524	-9.818556	-0.227487	-0.282180				-0.002849	0.000727	-0.003238				-142.593581	88.080998	-96.677874
00685	1187574	-9.797189	-0.235229	-0.255275				-0.002843	-0.000369	-0.002767				-142.583599	88.081577	-96.669072
00686	1187624	-9.800603	-0.216584	-0.280432				-0.003371	0.001243	-0.001763				-142.579001	88.080849	-96.663560
00687	1187674	-9.800674	-0.214547	-0.272985				-0.004122	0.001714	-0.001214				-142.590616	88.080775	-96.676168
00688	1187724	-9.799618	-0.243893	-0.268670				-0.005452	0.002007	-0.004514				-142.572030	88.079416	-96.656050
00689	1187774	-9.796888	-0.220256	-0.256847				-0.004195	-0.003076	-0.000276				-142.565481	88.081109	-96.650248
00690	1187824	-9.805071	-0.217446	-0.286714				-0.002673	0.003845	0.000718				-142.591137	88.080357	-96.675156
00691	1187874	-9.821890	-0.209553	-0.279178				-0.009122	0.001848	-0.001903				-142.599936	88.080248	-96.683499
00692	1187924	-9.804190	-0.220416	-0.270169				-0.000548	0.003162	-0.002822				-142.597329	88.079093	-96.680715
00693	1187974	-9.817527	-0.213419	-0.283943				0.000433	0.001668	-0.000614				-142.611715	88.078939	-96.697504
00694	1188024	-9.805933	-0.225106	-0.286841				-0.005383	-0.001091	-0.000358				-142.605055	88.079030	-96.689335
00695	1188074	-9.804012	-0.220941	-0.258314				-0.006228	-0.002460	0.000535				-142.607756	88.080098	-96.692471
00696	1188124	-9.800722	-0.220647	-0.292140				-0.002947	-0.001048	-0.000366				-142.600926	88.080457	-96.684718
00697	1188174	-9.810626	-0.209953	-0.289464				-0.003098	0.000694	-0.000613				-142.610735	88.080841	-96.695781
00698	1188224	-9.813454	-0.201554	-0.272686				-0.004911	0.001111	-0.003395				-142.594856	88.079882	-96.678528
00699	1188274	-9.805769	-0.224075	-0.276649				-0.007115	0.004245	-0.002442				-142.611967	88.079219	-96.695713
00700	1188324	-9.827784	-0.198032	-0.273054				-0.000852	-0.000361	-0.000363				-142.607866	88.079191	-96.691387
00701	1188374	-9.797891	-0.208358	-0.272817				-0.004896	-0.000045	-0.000099				-142.617995	88.079919	-96.702251
00702	1188424	-9.787619	-0.230052	-0.273837				-0.001117	0.003000	-0.000476				-142.630560	88.079375	-96.714421
00703	1188474	-9.803998	-0.215555	-0.272230				-0.005048	-0.000470	-0.001221				-142.631004	88.079725	-96.715637
00704	1188524	-9.812845	-0.218964	-0.259447				-0.002667	-0.000686	-0.000492				-142.624903	88.079607	-96.708841
00705	1188574	-9.810890	-0.213882	-0.277507				-0.002519	0.001741	-0.000577				-142.640608	88.079921	-96.725934
00706	1188624	-9.821346	-0.208572	-0.291346				-0.008603	-0.000172	0.001455				-142.651861	88.080186	-96.734737
00707	1188674	-9.817561	-0.214031	-0.277388				-0.004709	-0.001013	-0.000774				-142.652400	88.081074	-96.736029
00708	1188724	-9.794857	-0.203068	-0.273032				-0.003064	0.000697	0.000090				-142.657540	88.080941	-96.740291
00709	1188774	-9.812359	-0.207352	-0.283945				-0.005184	0.001080	0.000936				-142.680677	88.081694	-96.764020
00710	1188824	-9.817425	-0.213548	-0.262143				-0.001696	0.000978	-0.001574				-142.675375	88.081468	-96.758127
00711	1188874	-9.806171	-0.215293	-0.266480				-0.003892	0.000417	-0.002730				-142.670190	88.081548	-96.753960
00712	1188924	-9.813991	-0.220605	-0.263277				-0.003421	-0.001378	-0.002290				-142.648316	88.081543	-96.731063
00713	1188974	-9.820762	-0.202355	-0.283881				-0.001051	-0.001372	-0.001910				-142.638816	88.081580	-96.723603
00714	1189024	-9.803367	-0.212649	-0.263348				-0.008754	-0.000864	-0.001790				-142.624627	88.081539	-96.706870
00715	1189074	-9.827657	-0.211244	-0.266641				0.000737	-0.000145	-0.003895				-142.606422	88.081747	-96.690897
00716	1189124	-9.818459	-0.203990	-0.266473				-0.004885	-0.000435	-0.000998				-142.598877	88.081646	-96.681955
00717	1189174	-9.799890	-0.219314	-0.273465				-0.000789	-0.000299	-0.000788				-142.602322	88.082381	-96.687243
00718	1189224	-9.778246	-0.234185	-0.278186				-0.003459	-0.000187	-0.003120				-142.581194	88.081794	-96.665146
00719	1189274	-9.807524	-0.223348	-0.263517				-0.005770	-0.002976	-0.001107				-142.569240	88.083093	-96.653640
00720	1189324	-9.785483	-0.212241	-0.268899				-0.002507	-0.001747	0.001007				-142.567584	88.083732	-96.651235
00721	1189374	-9.791737	-0.223099	-0.275174				-0.005484	-0.000502	0.002918				-142.596580	88.084757	-96.680894
00722	1189424	-9.805836	-0.202104	-0.270472				-0.002441	0.005557	-0.000877				-142.620093	88.083441	-96.703686
00723	1189474	-9.797170	-0.210574	-0.269705				-0.005166	0.003406	-0.001653				-142.637837	88.083054	-96.722099
00724	1189524	-9.819444	-0.208974	-0.252474				-0.002939	-0.000438	-0.002862				-142.616900	88.082804	-96.700254
00725	1189574	-9.801025	-0.206589	-0.271070				-0.004136	0.001032	-0.001892				-142.620417	88.082828	-96.704749
00726	1189624	-9.807899	-0.214432	-0.258369				-0.003918	0.001261	-0.001759				-142.616280	88.082057	-96.699553
00727	1189674	-9.807524	-0.210860	-0.289068				-0.003692	0.002335	-0.001112				-142.631719	88.081900	-96.716130
00728	1189724	-9.795444	-0.215050	-0.271060				-0.006913	-0.000213	-0.001374				-142.623298	88.081615	-96.705756
00729	1189774	-9.799441	-0.216887	-0.274201				-0.002596	0.000221	-0.000164				-142.634109	88.082233	-96.717963
00730	1189824	-9.814871	-0.223862	-0.268671				-0.005390	0.003304	-0.002325				-142.637039	88.080980	-96.719388
00731	1189874	-9.819366	-0.193795	-0.295205				-0.002370	0.000732	-0.002052				-142.637597	88.081032	-96.721429
00732	1189924	-9.805769	-0.217775	-0.289217				-0.002304	-0.001275	-0.000571				-142.628065	88.081365	-96.711178
00733	1189974	-9.796124	-0.237901	-0.268222				-0.003365	0.001513	-0.004788				-142.613119	88.081164	-96.697276
00734	1190024	-9.811836	-0.227964	-0.249214				-0.002170	0.000307	-0.002648				-142.597540	88.080609	-96.681070
00735	1190074	-9.812014	-0.227536	-0.261601				0.000364	0.000025	-0.004452				-142.577056	88.080626	-96.662774
00736	1190124	-9.809126	-0.228140	-0.264784				-0.001307	-0.000711	-0.002819				-142.554869	88.080239	-96.640215
00737	1190174	-9.798559	-0.210720	-0.275822				-0.006274	-0.000536	-0.000846				-142.557518	88.081181	-96.643148
00738	1190224	-9.808279	-0.229909	-0.283303				-0.003046	0.002848	-0.002281				-142.557601	88.080434	-96.642242
00739	1190274	-9.800446	-0.229685	-0.279137				-0.006186	-0.001377	-0.001971				-142.548760	88.080263	-96.634088
00740	1190324	-9.809862	-0.218313	-0.281329				-0.007569	-0.000034	0.000700				-142.555282	88.080424	-96.638433
00741	1190374	-9.815484	-0.221057	-0.289350				-0.001512	-0.002905	0.002530				-142.567880	88.082108	-96.652759
00742	1190424	-9.810287	-0.203170	-0.280912				-0.004903	0.000878	-0.001675				-142.562415	88.081668	-96.645867
00743	1190474	-9.807137	-0.224905	-0.283866				-0.005558	0.003423	0.000649				-142.595628	88.082044	-96.679513
00744	1190524	-9.823565	-0.201127	-0.255447				-0.002073	0.003677	-0.001086				-142.607693	88.081109	-96.690958
00745	1190574	-9.817064	-0.210069	-0.287958				-0.006179	-0.000573	-0.002962				-142.596542	88.081115	-96.680272
00746	1190624	-9.811993	-0.222009	-0.276208				-0.002845	-0.001479	-0.000442				-142.586796	88.081283	-96.669740
00747	1190674	-9.801166	-0.217937	-0.262637				-0.007548	0.000036	0.005197				-142.634303	88.082996	-96.717150
00748	1190724	-9.802976	-0.217781	-0.278700				-0.002480	-0.001822	0.001159				-142.633551	88.083575	-96.715698
00749	1190774	-9.813679	-0.206828	-0.264334				-0.002476	0.001110	-0.001486				-142.639763	88.083713	-96.723322
00750	1190824	-9.801110	-0.219868	-0.268218				-0.004142	0.002021	-0.000707				-142.646724	88.083194	-96.729072
00751	1190874	-9.802610	-0.211782	-0.273026				-0.003200	0.000517	-0.003479				-142.636252	88.082956	-96.719883
00752	1190924	-9.810150	-0.207555	-0.255440				-0.002973	0.001886	0.001244				-142.655441	88.082714	-96.738238
00753	1190974	-9.803375	-0.207269	-0.273608				-0.006863	-0.002296	-0.002680				-142.637004	88.083409	-96.719973
00754	1191024	-9.785818	-0.225148	-0.264893				-0.004234	-0.001984	0.001740				-142.639848	88.084016	-96.721657
00755	1191074	-9.803917	-0.239553	-0.275418				-0.003493	0.001640	-0.003731				-142.633394	88.084180	-96.716109
00756	1191124	-9.802473	-0.219408	-0.279387				-0.006105	-0.002600	0.001580				-142.632567	88.085058	-96.713521
00757	1191174	-9.798944	-0.218775	-0.273484				-0.005081	0.001591	0.000705				-142.656910	88.085094	-96.738712
00758	1191224	-9.800382	-0.216111	-0.278668				-0.004453	-0.002445	-0.001180				-142.637699	88.085299	-96.718268
00759	1191274	-9.802217	-0.227202	-0.267066				-0.007533	0.003129	0.000076				-142.666433	88.085343	-96.746952
00760	1191324	-9.826955	-0.211505	-0.264492				-0.005623	0.001514	0.000193				-142.677010	88.085275	-96.755832
00761	1191374	-9.806348	-0.212596	-0.283482				-0.002146	0.000634	-0.001237				-142.682207	88.085422	-96.762617
00762	1191424	-9.800721	-0.206159	-0.281114				-0.002517	-0.002897	-0.002632				-142.649897	88.085461	-96.729634
00763	1191474	-9.791816	-0.222643	-0.264203				-0.003160	0.001524	-0.000972				-142.662187	88.085439	-96.743210
00764	1191524	-9.795089	-0.229206	-0.261031				-0.004062	0.000243	-0.003123				-142.643226	88.084938	-96.723039
00765	1191574	-9.780881	-0.212838	-0.280687				-0.003969	-0.001436	-0.001784				-142.634588	88.085629	-96.715374
00766	1191624	-9.790728	-0.223768	-0.283304				-0.004859	0.000525	-0.000263				-142.636914	88.085476	-96.716300
00767	1191674	-9.798100	-0.209699	-0.274895				-0.001891	0.000832	-0.000948				-142.644743	88.086299	-96.725488
00768	1191724	-9.805984	-0.203823	-0.283025				-0.002166	-0.001728	-0.000897				-142.630406	88.086339	-96.710601
00769	1191774	-9.806624	-0.208812	-0.283963				-0.001217	0.000712	-0.001138				-142.636442	88.086598	-96.718447
00770	1191824	-9.805172	-0.214760	-0.276336				-0.000008	0.002197	0.000085				-142.648465	88.086244	-96.730430
00771	1191874	-9.805948	-0.227076	-0.279853				-0.002078	-0.001364	0.000363				-142.654352	88.087440	-96.737746
00772	1191924	-9.831198	-0.207283	-0.280421				-0.003823	-0.003147	-0.002531				-142.621827	88.087714	-96.704109
00773	1191974	-9.794106	-0.222234	-0.278964				-0.003893	-0.001856	-0.001918				-142.610072	88.088266	-96.693435
00774	1192024	-9.818300	-0.215031	-0.271918				-0.000605	-0.000242	-0.000734				-142.604082	88.088047	-96.687320
00775	1192074	-9.821920	-0.206085	-0.280684				-0.000876	-0.002889	0.001857				-142.611626	88.090051	-96.696638
00776	1192124	-9.803605	-0.212828	-0.264275				-0.002012	-0.003468	-0.000455				-142.590920	88.090951	-96.675271
00777	1192174	-9.820126	-0.216808	-0.280331				-0.007451	0.001448	-0.000186				-142.609307	88.090946	-96.693781
00778	1192224	-9.823542	-0.209501	-0.281759				-0.004228	0.001989	-0.000352				-142.618568	88.090449	-96.701827
00779	1192274	-9.815615	-0.223367	-0.265002				-0.005171	-0.000031	-0.000781				-142.624689	88.090780	-96.708679
00780	1192324	-9.799927	-0.214076	-0.278560				-0.002682	0.003333	-0.003755				-142.617369	88.089196	-96.700651
00781	1192374	-9.805788	-0.220488	-0.281858				-0.001170	0.001136	-0.002515				-142.616139	88.089368	-96.701177
00782	1192424	-9.809045	-0.219517	-0.256879				-0.003812	-0.001471	-0.004385				-142.579803	88.088936	-96.663732
00783	1192474	-9.812201	-0.210841	-0.264786				-0.002474	0.000919	-0.002767				-142.576473	88.088759	-96.661902
00784	1192524	-9.813847	-0.202835	-0.283956				-0.002214	0.000055	0.001684				-142.588941	88.089199	-96.673677
00785	1192574	-9.784546	-0.224924	-0.280780				-0.004514	0.001656	-0.001738				-142.596326	88.089409	-96.681830
00786	1192624	-9.806994	-0.221236	-0.276325				-0.001564	0.000745	0.000622				-142.604728	88.089751	-96.689638
00787	1192674	-9.811272	-0.205249	-0.270946				-0.003292	0.005887	-0.000784				-142.640880	88.088582	-96.727137
00788	1192724	-9.803164	-0.209052	-0.266031				-0.002904	0.000231	-0.003061				-142.622009	88.087994	-96.707425
00789	1192774	-9.814735	-0.210823	-0.277105				-0.002018	-0.003300	0.000929				-142.621612	88.089195	-96.708765
00790	1192824	-9.785388	-0.215999	-0.278572				-0.005789	0.000244	-0.003345				-142.601794	88.088514	-96.687296
00791	1192874	-9.799860	-0.204653	-0.269890				-0.004809	-0.000285	-0.002997				-142.591270	88.088923	-96.677440
00792	1192924	-9.799063	-0.200149	-0.254262				-0.004221	-0.001539	-0.001656				-142.573359	88.088779	-96.658382
00793	1192974	-9.816590	-0.211289	-0.284725				-0.008247	0.002141	-0.002686				-142.578271	88.088684	-96.663006
00794	1193024	-9.798631	-0.223562	-0.277940				-0.004727	-0.002132	-0.004420				-142.538149	88.088538	-96.621454
00795	1193074	-9.798216	-0.218062	-0.277337				-0.006805	0.001068	-0.002184				-142.540432	88.088704	-96.623853
00796	1193124	-9.798686	-0.212665	-0.289495				-0.003830	0.000019	-0.002196				-142.526666	88.088211	-96.609025
00797	1193174	-9.805048	-0.206957	-0.273675				0.000138	-0.000454	-0.000221				-142.532750	88.089075	-96.617210
00798	1193224	-9.817271	-0.199773	-0.275175				-0.004230	-0.003312	-0.000188				-142.515467	88.089717	-96.598733
00799	1193274	-9.831378	-0.199142	-0.267018				-0.003848	-0.002305	-0.002398				-142.497939	88.090505	-96.582237
00800	1193324	-9.797784	-0.236705	-0.271103				-0.003217	0.001000	-0.002837				-142.485010	88.089634	-96.568425
00801	1193374	-9.799827	-0.236728	-0.250204				-0.005926	0.001699	-0.002437				-142.488640	88.089520	-96.572468
00802	1193424	-9.800106	-0.218230	-0.280124				-0.007481	-0.001821	-0.000016				-142.481131	88.090112	-96.562741
00803	1193474	-9.797076	-0.219240	-0.268185				-0.005525	-0.000209	-0.005301				-142.455187	88.089694	-96.537399
00804	1193524	-9.809164	-0.212267	-0.290101				-0.001501	-0.003617	-0.001420				-142.426860	88.090277	-96.508624
00805	1193574	-9.813461	-0.202648	-0.269111				-0.004940	0.001139	0.001186				-142.452490	88.090856	-96.534979
00806	1193624	-9.821397	-0.216583	-0.268167				-0.007139	0.002681	-0.002012				-142.454878	88.089863	-96.535339
00807	1193674	-9.820469	-0.208286	-0.279852				-0.005073	0.001295	0.000641				-142.477030	88.090587	-96.558098
00808	1193724	-9.804000	-0.213383	-0.276330				-0.002032	0.001220	-0.001200				-142.475918	88.090051	-96.556421
00809	1193774	-9.790756	-0.229285	-0.268977				-0.005378	0.001317	-0.004206				-142.465408	88.089732	-96.546440
00810	1193824	-9.787375	-0.214296	-0.266100				-0.002720	-0.000312	-0.001083				-142.457434	88.089423	-96.537755
00811	1193874	-9.795263	-0.217132	-0.256297				-0.005922	0.003997	0.000879				-142.495770	88.089500	-96.576486
00812	1193924	-9.804043	-0.206405	-0.283303				-0.005030	0.000647	-0.002703				-142.482096	88.088753	-96.561410
00813	1193974	-9.813697	-0.225243	-0.262634				-0.001203	0.001492	0.001044				-142.507182	88.089570	-96.588204
00814	1194024	-9.800877	-0.233605	-0.278755				-0.004136	0.002224	0.002275				-142.535671	88.089255	-96.615604
00815	1194074	-9.803481	-0.218767	-0.271326				-0.008247	0.001008	-0.002533				-142.535922	88.088638	-96.615921
00816	1194124	-9.795529	-0.226106	-0.271859				-0.003076	0.003048	0.001281				-142.561170	88.088419	-96.640205
00817	1194174	-9.818308	-0.211256	-0.277917				-0.002758	0.000618	-0.004151				-142.546900	88.088207	-96.627238
00818	1194224	-9.800120	-0.221198	-0.309728				-0.005617	0.001896	-0.003403				-142.535100	88.087248	-96.613802
00819	1194274	-9.818261	-0.218149	-0.271214				-0.003409	-0.000940	-0.002840				-142.521548	88.087938	-96.601307
00820	1194324	-9.812108	-0.213273	-0.275502				-0.004806	-0.001353	-0.001719				-142.504053	88.087920	-96.582436
00821	1194374	-9.814107	-0.224331	-0.275601				-0.004950	0.001694	0.002632				-142.542026	88.088822	-96.621162
00822	1194424	-9.801118	-0.214205	-0.277278				-0.004031	-0.000361	0.000724				-142.546163	88.089117	-96.624112
00823	1194474	-9.787253	-0.221251	-0.272375				-0.003842	0.001804	0.000218				-142.568180	88.089216	-96.647242
00824	1194524	-9.821262	-0.199441	-0.285522				-0.004975	-0.002000	-0.000630				-142.554930	88.089532	-96.632568
00825	1194574	-9.825804	-0.203439	-0.275507				-0.001060	0.002048	-0.000556				-142.572293	88.089480	-96.651808
00826	1194624	-9.811731	-0.225361	-0.273195				-0.005933	0.000086	-0.000007				-142.574455	88.089370	-96.652302
00827	1194674	-9.815660	-0.197491	-0.272646				-0.003864	-0.001825	-0.003102				-142.554440	88.090091	-96.633265
00828	1194724	-9.809774	-0.226396	-0.277131				-0.005706	0.003393	0.003123				-142.595148	88.089982	-96.672314
00829	1194774	-9.813232	-0.211624	-0.288018				-0.004154	0.002771	0.001384				-142.630297	88.090175	-96.708469
00830	1194824	-9.795453	-0.215769	-0.267015				-0.003622	0.000868	-0.000940				-142.629417	88.089657	-96.706612
00831	1194874	-9.821700	-0.202354	-0.285700				-0.001368	0.004626	-0.000957				-142.656691	88.089403	-96.735605
00832	1194924	-9.817931	-0.211667	-0.260042				-0.005423	0.003164	-0.002172				-142.659972	88.088423	-96.737290
00833	1194974	-9.804824	-0.209758	-0.265831				-0.007483	0.002353	-0.001403				-142.674685	88.088279	-96.752071
00834	1195024	-9.802192	-0.210134	-0.265886				-0.006074	0.004838	0.002007				-142.715449	88.087517	-96.791121
00835	1195074	-9.800918	-0.218795	-0.262671				-0.002428	0.000593	-0.001650				-142.717617	88.087725	-96.794758
00836	1195124	-9.821444	-0.208448	-0.276543				-0.003568	0.002965	-0.003753				-142.708740	88.086315	-96.784881
00837	1195174	-9.816764	-0.221202	-0.275276				-0.004364	-0.000154	-0.002932				-142.698617	88.086620	-96.775583
00838	1195224	-9.802364	-0.211628	-0.274704				-0.007421	0.001580	0.000165				-142.710224	88.086342	-96.785047
00839	1195274	-9.821863	-0.201198	-0.260912				-0.002377	0.001083	0.000821				-142.732095	88.086442	-96.808549
00840	1195324	-9.816672	-0.216541	-0.261152				-0.003880	0.000095	0.001591				-142.744385	88.086758	-96.819712
00841	1195374	-9.812339	-0.214717	-0.272702				-0.006109	0.000373	-0.001898				-142.745079	88.086977	-96.820847
00842	1195424	-9.792148	-0.231125	-0.269448				-0.004143	0.001218	0.000247				-142.754495	88.086505	-96.829170
00843	1195474	-9.793100	-0.233098	-0.266793				-0.004329	0.000886	-0.001103				-142.762341	88.086978	-96.837838
00844	1195524	-9.812303	-0.225969	-0.294488				-0.005166	-0.001065	-0.000017				-142.758067	88.087249	-96.832069
00845	1195574	-9.810936	-0.213455	-0.271546				-0.003823	0.001292	0.001627				-142.786911	88.088294	-96.861828
00846	1195624	-9.793983	-0.228013	-0.287527				-0.004684	0.004181	-0.000214				-142.808456	88.087133	-96.882107
00847	1195674	-9.799876	-0.202037	-0.271997				-0.001897	-0.001139	-0.001499				-142.803161	88.087567	-96.878503
00848	1195724	-9.802855	-0.230294	-0.273150				-0.004817	-0.002163	-0.002558				-142.775570	88.087983	-96.849379
00849	1195774	-9.807326	-0.220275	-0.302409				-0.004166	0.000929	0.000764				-142.796547	88.088392	-96.871379
00850	1195824	-9.815640	-0.196900	-0.274307				-0.000511	-0.002114	0.000896				-142.791913	88.089234	-96.866514
00851	1195874	-9.817771	-0.218558	-0.272381				-0.006435	-0.002480	-0.000722				-142.785618	88.089989	-96.860652
00852	1195924	-9.791586	-0.217992	-0.271123				-0.001910	0.000640	0.001074				-142.796839	88.089987	-96.871344
00853	1195974	-9.806624	-0.204901	-0.254047				-0.003020	0.000205	0.000399				-142.811218	88.090727	-96.887047
00854	1196024	-9.815420	-0.215549	-0.272934				-0.005786	0.002249	-0.002496				-142.807369	88.089944	-96.881475
00855	1196074	-9.783263	-0.236959	-0.270654				-0.007986	0.000984	-0.001766				-142.812752	88.090049	-96.886717
00856	1196124	-9.819779	-0.209310	-0.274636				-0.001267	0.003531	-0.000068				-142.830758	88.089293	-96.904344
00857	1196174	-9.807480	-0.206834	-0.265238				-0.003353	-0.001058	0.004984				-142.871098	88.090101	-96.946256
00858	1196224	-9.806107	-0.199210	-0.272082				-0.007191	0.002360	0.001001				-142.892157	88.089846	-96.965222
00859	1196274	-9.796309	-0.213339	-0.287883				-0.003806	0.000277	-0.002199				-142.889447	88.090736	-96.963266
00860	1196324	-9.816208	-0.221250	-0.289048				-0.003584	0.002514	-0.003561				-142.878953	88.089529	-96.951750
00861	1196374	-9.810263	-0.211003	-0.269850				-0.003702	-0.000915	-0.003900				-142.858598	88.089718	-96.932442
00862	1196424	-9.791048	-0.226526	-0.264882				-0.005645	0.000632	-0.004272				-142.834073	88.088922	-96.906252
00863	1196474	-9.796682	-0.232561	-0.266059				-0.003721	0.001536	-0.005363				-142.816584	88.088026	-96.889937
00864	1196524	-9.810562	-0.223470	-0.273309				-0.004278	-0.002828	-0.000636				-142.798660	88.088486	-96.870803
00865	1196574	-9.793805	-0.224421	-0.285147				-0.006679	-0.002800	0.001101				-142.803561	88.090353	-96.875791
00866	1196624	-9.808450	-0.213932	-0.287079				-0.002474	-0.000885	0.000878				-142.805846	88.090395	-96.877489
00867	1196674	-9.811329	-0.223316	-0.264056				-0.006033	0.000444	0.002083				-142.833741	88.091382	-96.905794
00868	1196724	-9.805835	-0.218821	-0.275993				-0.002720	-0.002252	0.000034				-142.823053	88.091690	-96.894406
00869	1196774	-9.822067	-0.219892	-0.268071				-0.001816	-0.000618	-0.000500				-142.826493	88.093049	-96.899260
00870	1196824	-9.803259	-0.229347	-0.287560				-0.003915	-0.002274	-0.002593				-142.798108	88.092944	-96.869802
00871	1196874	-9.789566	-0.233312	-0.259569				-0.005488	-0.000678	0.001976				-142.819431	88.094255	-96.891696
00872	1196924	-9.811048	-0.240010	-0.275786				-0.002608	0.000180	0.000659				-142.825495	88.094418	-96.896983
00873	1196974	-9.810008	-0.216631	-0.260531				-0.004071	0.001661	-0.004785				-142.812528	88.093503	-96.885128
00874	1197024	-9.816040	-0.225979	-0.267355				-0.006742	-0.000539	0.002109				-142.825766	88.094143	-96.896384
00875	1197074	-9.803634	-0.210226	-0.265274				-0.002768	-0.000894	-0.000663				-142.827728	88.094996	-96.899642
00876	1197124	-9.792442	-0.196738	-0.291905				-0.002162	-0.001182	-0.004807				-142.789073	88.094674	-96.860252
00877	1197174	-9.804870	-0.220073	-0.276584				-0.000077	0.001186	-0.001907				-142.791989	88.094306	-96.865446
00878	1197224	-9.792342	-0.231937	-0.275427				-0.004172	-0.000175	-0.000978				-142.785644	88.093950	-96.857986
00879	1197274	-9.810608	-0.205094	-0.264047				-0.005701	-0.000300	0.000089				-142.796233	88.095200	-96.868896
00880	1197324	-9.804956	-0.214878	-0.272954				-0.001547	0.000064	-0.000951				-142.790467	88.094846	-96.862748
00881	1197374	-9.792281	-0.236950	-0.275688				-0.004154	0.001244	-0.001706				-142.796233	88.094664	-96.869566
00882	1197424	-9.800423	-0.214280	-0.275817				-0.001714	0.000161	-0.001558				-142.786766	88.094415	-96.859580
00883	1197474	-9.831964	-0.207905	-0.270228				-0.005896	0.000793	-0.000902				-142.796747	88.094669	-96.870049
00884	1197524	-9.789359	-0.227048	-0.266016				-0.003312	-0.002037	-0.001343				-142.777950	88.094885	-96.850296
00885	1197574	-9.799684	-0.225332	-0.294387				-0.006235	0.001601	0.001892				-142.810790	88.095486	-96.883522
00886	1197624	-9.815583	-0.206897	-0.264006				-0.005124	-0.001623	-0.004542				-142.772430	88.095267	-96.843601
00887	1197674	-9.783779	-0.225987	-0.286960				-0.005357	-0.000234	-0.001359				-142.773654	88.095469	-96.845532
00888	1197724	-9.797515	-0.217766	-0.275827				-0.005666	-0.000200	0.001112				-142.781687	88.095848	-96.851894
00889	1197774	-9.795979	-0.212687	-0.266074				-0.006169	0.000471	0.000282				-142.797722	88.096771	-96.868236
00890	1197824	-9.789721	-0.227851	-0.283800				-0.005116	0.000288	-0.002382				-142.784270	88.096429	-96.853266
00891	1197874	-9.804972	-0.225128	-0.288330				-0.000711	0.001823	-0.003155				-142.782560	88.095539	-96.853717
00892	1197924	-9.802422	-0.221361	-0.284510				-0.002013	-0.000726	-0.003231				-142.757192	88.095297	-96.827699
00893	1197974	-9.810933	-0.206635	-0.284973				-0.004711	0.004249	0.001585				-142.801556	88.095127	-96.872946
00894	1198024	-9.810436	-0.207669	-0.287499				-0.004139	-0.002318	-0.003458				-142.767108	88.095018	-96.837305
00895	1198074	-9.791268	-0.226455	-0.268521				-0.004161	0.001469	-0.004243				-142.756193	88.094868	-96.827179
00896	1198124	-9.807581	-0.218635	-0.264555				-0.003081	0.000777	-0.003317				-142.738515	88.094067	-96.808624
00897	1198174	-9.814932	-0.191549	-0.285174				-0.007557	-0.000268	-0.000452				-142.745940	88.094857	-96.815983
00898	1198224	-9.807612	-0.229795	-0.275586				-0.007041	0.001617	0.000101				-142.756852	88.094591	-96.824853
00899	1198274	-9.813320	-0.207394	-0.283640				-0.002792	-0.003251	-0.000000				-142.750879	88.095817	-96.820259
00900	1198324	-9.811137	-0.208861	-0.286072				-0.000872	-0.001354	-0.003843				-142.717875	88.095291	-96.787050
00901	1198374	-9.802114	-0.219217	-0.260450				-0.002744	-0.001504	0.000201				-142.721785	88.096658	-96.792194
00902	1198424	-9.788284	-0.214144	-0.273622				-0.006126	0.003182	-0.000732				-142.735121	88.095817	-96.803776
00903	1198474	-9.811293	-0.228927	-0.298031				-0.003729	-0.001339	-0.005568				-142.700661	88.095939	-96.770314
00904	1198524	-9.798023	-0.224351	-0.297222				0.000373	0.001204	0.000747				-142.711943	88.095851	-96.781686
00905	1198574	-9.816008	-0.203325	-0.280583				-0.006194	0.000881	-0.002438				-142.711898	88.095808	-96.782035
00906	1198624	-9.795635	-0.214885	-0.278255				-0.007367	-0.000364	-0.000745				-142.707217	88.095592	-96.775305
00907	1198674	-9.815037	-0.227245	-0.273360				-0.003558	-0.001162	0.000816				-142.717375	88.096713	-96.786562
00908	1198724	-9.803880	-0.203955	-0.274680				-0.002611	0.000340	0.000303				-142.721970	88.096535	-96.790475
00909	1198774	-9.824759	-0.222114	-0.251572				-0.003471	0.003003	-0.002977				-142.727580	88.096553	-96.797004
00910	1198824	-9.816878	-0.228601	-0.280825				-0.005993	-0.000106	0.000057				-142.729154	88.096568	-96.796863
00911	1198874	-9.814185	-0.220718	-0.269758				-0.005335	-0.001907	-0.000755				-142.725945	88.097106	-96.794400
00912	1198924	-9.823085	-0.203842	-0.288983				-0.003134	0.001147	0.003873				-142.759756	88.097173	-96.827462
00913	1198974	-9.790684	-0.221555	-0.256537				-0.008281	0.001272	-0.001055				-142.770925	88.097674	-96.838296
00914	1199024	-9.819022	-0.205281	-0.289167				-0.000282	-0.001465	0.000356				-142.766134	88.098109	-96.833407
00915	1199074	-9.813185	-0.221087	-0.277886				-0.004562	0.005343	-0.001781				-142.792625	88.097288	-96.860744
00916	1199124	-9.809813	-0.213404	-0.259000				-0.006800	-0.001059	0.000949				-142.795209	88.097926	-96.861300
00917	1199174	-9.797565	-0.236976	-0.267266				-0.006566	0.001555	-0.003206				-142.793654	88.097185	-96.860196
00918	1199224	-9.800288	-0.228617	-0.268187				-0.002671	0.000142	-0.000338				-142.792501	88.097125	-96.858267
00919	1199274	-9.796453	-0.233812	-0.261271				-0.003339	0.001705	-0.004272				-142.783178	88.096858	-96.850018
00920	1199324	-9.802319	-0.228867	-0.286429				-0.003476	0.000256	-0.001361				-142.775817	88.096781	-96.841577
00921	1199374	-9.791974	-0.229111	-0.262560				-0.002138	0.003511	-0.000772				-142.799596	88.096242	-96.866950
00922	1199424	-9.812482	-0.218400	-0.280817				-0.004134	0.001666	-0.001576				-142.798625	88.095560	-96.864804
00923	1199474	-9.793493	-0.201079	-0.267344				-0.006438	0.001653	-0.003209				-142.797092	88.095257	-96.863576
00924	1199524	-9.788365	-0.225192	-0.277924				-0.000989	0.001822	0.001526				-142.817292	88.095024	-96.883534
00925	1199574	-9.818335	-0.207194	-0.281514				-0.000325	-0.000505	-0.005380				-142.787581	88.095357	-96.855659
00926	1199624	-9.816277	-0.225279	-0.268841				-0.000545	0.000787	-0.002456				-142.774851	88.094724	-96.842782
00927	1199674	-9.814445	-0.219474	-0.268823				-0.001987	-0.000069	0.001810				-142.797724	88.095425	-96.867321
00928	1199724	-9.793525	-0.226598	-0.287133				-0.002762	-0.000823	0.001292				-142.803060	88.095630	-96.871946
00929	1199774	-9.803993	-0.214817	-0.273636				-0.002974	-0.000317	-0.000018				-142.812285	88.096473	-96.882377
00930	1199824	-9.811337	-0.218466	-0.273355				-0.001892	-0.001036	0.000551				-142.811171	88.096916	-96.880679
00931	1199874	-9.806999	-0.223963	-0.270034				-0.005882	-0.001553	0.000524				-142.818209	88.098140	-96.888129
00932	1199924	-9.802860	-0.229053	-0.274116				-0.008847	-0.002415	-0.002609				-142.789922	88.098423	-96.857228
00933	1199974	-9.804121	-0.204958	-0.272802				-0.003444	0.002107	-0.002571				-142.794408	88.098107	-96.862875
00934	1200024	-9.811993	-0.211201	-0.259280				-0.004175	0.000698	-0.004816				-142.766270	88.096976	-96.833579
00935	1200074	-9.820112	-0.201726	-0.274916				-0.000594	0.003521	-0.000285				-142.792562	88.096977	-96.861757
00936	1200124	-9.808239	-0.220626	-0.270018				-0.010031	-0.000236	-0.000925				-142.787724	88.096983	-96.853999
00937	1200174	-9.822119	-0.211467	-0.276398				-0.003506	-0.000924	-0.001331				-142.784636	88.097593	-96.852058
00938	1200224	-9.815850	-0.222476	-0.266880				-0.001375	-0.000506	-0.001880				-142.769245	88.097409	-96.836254
00939	1200274	-9.802768	-0.216029	-0.277972				-0.005435	0.000101	-0.003853				-142.755430	88.096921	-96.823177
00940	1200324	-9.816644	-0.226459	-0.284677				-0.003484	0.001500	-0.001252				-142.755529	88.096494	-96.822235
00941	1200374	-9.816324	-0.232594	-0.286366				-0.001843	0.002266	-0.001065				-142.770505	88.096306	-96.838866
00942	1200424	-9.809423	-0.213938	-0.283790				-0.003231	0.002965	0.001515				-142.797217	88.096034	-96.864611
00943	1200474	-9.815084	-0.221081	-0.278209				-0.002859	0.000698	-0.002417				-142.794738	88.096214	-96.863424
00944	1200524	-9.820352	-0.218759	-0.277124				-0.005621	-0.004002	-0.000572				-142.771401	88.097262	-96.838374
00945	1200574	-9.802045	-0.236276	-0.276533				-0.004046	0.000068	0.000412				-142.785921	88.097508	-96.854101
00946	1200624	-9.816937	-0.202729	-0.284431				-0.003338	0.000050	0.000119				-142.787729	88.097559	-96.854936
00947	1200674	-9.803141	-0.225051	-0.276219				-0.004808	-0.001700	-0.003993				-142.763060	88.098071	-96.830985
00948	1200724	-9.806468	-0.223831	-0.278970				-0.004320	-0.002659	-0.002655				-142.732001	88.098478	-96.798574
00949	1200774	-9.805004	-0.207443	-0.280880				-0.007112	-0.000609	-0.002830				-142.721495	88.098327	-96.788361
00950	1200824	-9.814252	-0.212104	-0.275568				-0.004809	0.001796	-0.002434				-142.715753	88.097350	-96.781294
00951	1200874	-9.814861	-0.203147	-0.273159				-0.005404	0.001167	-0.002822				-142.713781	88.097505	-96.779747
00952	1200924	-9.793190	-0.216389	-0.285720				-0.000175	0.001330	-0.000594				-142.716682	88.097144	-96.782582
00953	1200974	-9.798941	-0.216931	-0.278027				-0.002236	0.001256	-0.003473				-142.709397	88.097145	-96.776697
00954	1201024	-9.806417	-0.214962	-0.268435				-0.004139	0.000902	-0.001676				-142.703879	88.096703	-96.769971
00955	1201074	-9.802459	-0.218601	-0.283289				-0.002029	0.000499	0.003388				-142.740336	88.097791	-96.808031
00956	1201124	-9.802559	-0.219764	-0.265410				-0.002214	0.003812	-0.003167				-142.739068	88.096337	-96.806142
00957	1201174	-9.813650	-0.210458	-0.262064				-0.003861	-0.002102	-0.003644				-142.714373	88.096535	-96.782588
00958	1201224	-9.812288	-0.220703	-0.268394				-0.005959	0.000744	-0.000417				-142.717214	88.096111	-96.783790
00959	1201274	-9.790446	-0.214766	-0.270607				-0.004151	0.000089	-0.002931				-142.709048	88.096300	-96.776511
00960	1201324	-9.791606	-0.216438	-0.271826				-0.002707	0.003190	-0.001343				-142.717405	88.095210	-96.784149
00961	1201374	-9.806833	-0.221473	-0.263333				-0.005317	0.000688	-0.001636				-142.720831	88.095703	-96.788085
00962	1201424	-9.811723	-0.197951	-0.252187				-0.009387	0.002814	-0.001521				-142.727720	88.094733	-96.792316
00963	1201474	-9.802027	-0.214472	-0.285626				-0.002132	0.000060	-0.003000				-142.717494	88.095308	-96.783427
00964	1201524	-9.820065	-0.203323	-0.277933				-0.002656	-0.000267	0.000854				-142.722656	88.095444	-96.787859
00965	1201574	-9.810679	-0.213041	-0.273887				-0.003260	-0.000664	-0.001395				-142.720842	88.095899	-96.787263
00966	1201624	-9.820442	-0.208196	-0.284888				-0.005383	0.001016	0.001381				-142.737392	88.095706	-96.802359
00967	1201674	-9.797403	-0.228830	-0.272052				-0.000580	0.000900	-0.001393				-142.742396	88.095969	-96.809303
00968	1201724	-9.812594	-0.221787	-0.294447				-0.005158	0.000460	-0.003371				-142.723081	88.095588	-96.788386
00969	1201774	-9.807769	-0.195484	-0.280360				-0.002544	-0.002843	0.001448				-142.728535	88.096799	-96.795358
00970	1201824	-9.806427	-0.206073	-0.282959				-0.001758	-0.002149	0.002697				-142.736327	88.097798	-96.802634
00971	1201874	-9.793909	-0.220677	-0.275422				-0.002215	-0.000229	-0.001685				-142.734040	88.098134	-96.801911
00972	1201924	-9.802523	-0.227696	-0.254813				-0.005536	0.001326	-0.003915				-142.715766	88.097084	-96.782059
00973	1201974	-9.795657	-0.235446	-0.271518				-0.003904	-0.000579	-0.001648				-142.712288	88.097808	-96.779504
00974	1202024	-9.815136	-0.221690	-0.267399				-0.003809	-0.001381	0.000785				-142.711633	88.098241	-96.777761
00975	1202074	-9.810090	-0.226737	-0.265638				-0.004190	0.002446	-0.003042				-142.714271	88.097937	-96.781269
00976	1202124	-9.795780	-0.244855	-0.271579				-0.004201	0.000806	-0.001094				-142.712315	88.097385	-96.778175
00977	1202174	-9.815528	-0.209471	-0.267443				-0.004476	0.000344	-0.002829				-142.705614	88.097725	-96.772188
00978	1202224	-9.818150	-0.200645	-0.285375				-0.004689	0.000181	-0.001352				-142.698645	88.097461	-96.763874
00979	1202274	-9.813018	-0.218838	-0.270303				-0.002746	0.000218	-0.001678				-142.699151	88.097478	-96.765833
00980	1202324	-9.823112	-0.219655	-0.292346				-0.006703	0.002659	-0.005567				-142.676906	88.095874	-96.741669
00981	1202374	-9.822128	-0.212388	-0.273193				-0.002606	0.002665	-0.006957				-142.653390	88.094772	-96.719579
00982	1202424	-9.814807	-0.205456	-0.277288				-0.005564	0.002494	-0.001372				-142.658784	88.093991	-96.723368
00983	1202474	-9.816482	-0.207892	-0.271048				-0.006332	0.001515	0.000227				-142.679696	88.094756	-96.744451
00984	1202524	-9.802838	-0.210298	-0.278509				-0.005678	0.000905	-0.002760				-142.667227	88.093853	-96.730427
00985	1202574	-9.800531	-0.215175	-0.294286				-0.002564	-0.000333	-0.001591				-142.665000	88.094144	-96.729676
00986	1202624	-9.796079	-0.214882	-0.284003				-0.005924	-0.000620	-0.003476				-142.639802	88.093665	-96.702769
00987	1202674	-9.789179	-0.211551	-0.288874				-0.004297	0.001872	-0.000833				-142.655052	88.093805	-96.718945
00988	1202724	-9.826070	-0.202145	-0.273066				-0.006163	-0.000206	-0.003530				-142.631391	88.093290	-96.693489
00989	1202774	-9.803795	-0.214946	-0.267770				-0.003731	0.003234	-0.001983				-142.645800	88.092922	-96.709017
00990	1202824	-9.798794	-0.224560	-0.286441				-0.003136	0.003967	0.001644				-142.679061	88.092151	-96.741454
00991	1202874	-9.819402	-0.220681	-0.273630				-0.002933	0.002609	0.000517				-142.706289	88.092426	-96.769879
00992	1202924	-9.810420	-0.215422	-0.274094				0.000836	-0.001629	-0.003239				-142.675406	88.092299	-96.739195
00993	1202974	-9.813419	-0.222804	-0.275084				-0.002835	0.000153	-0.001648				-142.675537	88.093019	-96.740520
00994	1203024	-9.802375	-0.210736	-0.274675				-0.001758	0.000591	0.000373				-142.681797	88.092782	-96.746342
00995	1203074	-9.785866	-0.225154	-0.296268				-0.003834	-0.001743	0.000556				-142.687385	88.093835	-96.752929
00996	1203124	-9.804053	-0.230513	-0.271350				-0.004674	0.002674	-0.000795				-142.697286	88.093278	-96.761419
00997	1203174	-9.808831	-0.211707	-0.268147				-0.005035	0.000919	-0.000607				-142.709181	88.093528	-96.773978
00998	1203224	-9.816276	-0.221552	-0.276733				-0.003272	-0.000210	-0.000845				-142.703399	88.093381	-96.767266
00999	1203274	-9.817390	-0.219325	-0.254922				-0.007633	0.002167	-0.000211				-142.725193	88.093206	-96.789139
01000	1203324	-9.803705	-0.217516	-0.276981				-0.003503	-0.000519	-0.006592				-142.678321	88.092216	-96.741226
01001	1203374	-9.802439	-0.195628	-0.256029				0.000108	0.002462	-0.000844				-142.695151	88.092238	-96.760205
01002	1203424	-9.797032	-0.229372	-0.291396				-0.004885	-0.002596	0.002897				-142.703007	88.093208	-96.766715
01003	1203474	-9.811545	-0.229199	-0.255937				-0.004306	0.001190	-0.001577				-142.708979	88.093635	-96.773469
01004	1203524	-9.813562	-0.224950	-0.285651				-0.003081	0.000858	-0.001035				-142.707195	88.093367	-96.770757
01005	1203574	-9.797509	-0.213318	-0.286014				-0.004970	0.001994	0.000902				-142.735340	88.093472	-96.799701
01006	1203624	-9.804254	-0.218983	-0.261539				-0.005289	0.003216	0.002481				-142.770578	88.093398	-96.833359
01007	1203674	-9.790523	-0.224663	-0.276352				-0.002469	-0.000429	-0.002389				-142.762104	88.093868	-96.826252
01008	1203724	-9.812346	-0.210115	-0.280067				-0.006288	-0.002076	-0.000400				-142.750381	88.094232	-96.812737
01009	1203774	-9.815964	-0.207792	-0.277431				-0.002359	-0.000879	-0.002328				-142.740354	88.094862	-96.804113
01010	1203824	-9.818864	-0.222560	-0.280145				-0.002483	0.002125	-0.002310				-142.736086	88.094103	-96.799077
01011	1203874	-9.807074	-0.231835	-0.281561				-0.004315	0.000450	-0.000037				-142.749665	88.094354	-96.813708
01012	1203924	-9.804073	-0.204504	-0.282063				-0.005180	-0.000762	-0.001938				-142.733764	88.094377	-96.796241
01013	1203974	-9.806304	-0.222659	-0.269076				-0.002612	-0.001322	0.004888				-142.771012	88.095855	-96.835022
01014	1204024	-9.798626	-0.226178	-0.272070				-0.006212	0.002643	-0.001563				-142.775925	88.095080	-96.838117
01015	1204074	-9.808727	-0.224801	-0.259112				-0.001783	0.001724	0.001691				-142.806453	88.095866	-96.870204
01016	1204124	-9.802672	-0.206616	-0.273234				-0.004093	0.001453	-0.001446				-142.805270	88.095214	-96.867875
01017	1204174	-9.815179	-0.218772	-0.267853				-0.003350	-0.000191	-0.005689				-142.776253	88.094608	-96.840151
01018	1204224	-9.804860	-0.225484	-0.266758				-0.006305	0.002217	-0.005028				-142.754934	88.093412	-96.816943
01019	1204274	-9.804789	-0.230148	-0.268704				-0.003918	0.001905	-0.002725				-142.757658	88.092950	-96.820742
01020	1204324	-9.821196	-0.207363	-0.279872				-0.005710	0.004011	-0.001682				-142.768657	88.091780	-96.830100
01021	1204374	-9.812436	-0.205686	-0.276054				-0.007688	0.001515	-0.003420				-142.764664	88.091551	-96.826025
01022	1204424	-9.796714	-0.230434	-0.265196				-0.002310	0.004741	-0.004867				-142.756735	88.089887	-96.817329
01023	1204474	-9.788246	-0.219272	-0.270183				-0.004536	0.002054	-0.003754				-142.752867	88.089054	-96.814442
01024	1204524	-9.791270	-0.216507	-0.249358				0.001453	0.001352	-0.002044				-142.745544	88.088496	-96.807492
01025	1204574	-9.795798	-0.219740	-0.279945				-0.004596	-0.000585	0.002490				-142.770743	88.090009	-96.833435
01026	1204624	-9.809514	-0.216101	-0.265727				-0.001124	-0.000571	-0.004864				-142.734514	88.089434	-96.796814
01027	1204674	-9.805790	-0.223401	-0.274673				-0.004561	0.003159	-0.001980				-142.749101	88.088253	-96.812508
01028	1204724	-9.806993	-0.218375	-0.282777				-0.005484	-0.001322	-0.003544				-142.719504	88.088069	-96.781280
01029	1204774	-9.802151	-0.222096	-0.287049				-0.002253	-0.001869	0.002221				-142.735605	88.089571	-96.798843
01030	1204824	-9.815019	-0.213250	-0.265673				-0.002508	-0.000335	-0.003418				-142.711242	88.089033	-96.773755
01031	1204874	-9.819050	-0.225108	-0.283748				-0.009771	0.002712	-0.001841				-142.724842	88.088957	-96.786623
01032	1204924	-9.811973	-0.203461	-0.277656				-0.006514	-0.002009	0.000213				-142.717718	88.089644	-96.777556
01033	1204974	-9.813328	-0.215529	-0.265405				-0.000221	-0.001483	-0.000797				-142.714370	88.090240	-96.776381
01034	1205024	-9.817123	-0.218489	-0.261238				-0.003076	0.003994	0.000652				-142.740469	88.089481	-96.801601
01035	1205074	-9.816406	-0.211864	-0.275321				-0.000969	0.000025	0.000177				-142.751796	88.090277	-96.814745
01036	1205124	-9.808428	-0.201088	-0.277957				-0.003050	-0.000308	-0.002483				-142.734053	88.089963	-96.796104
01037	1205174	-9.802464	-0.236098	-0.285940				-0.005426	0.001747	-0.004232				-142.725308	88.089835	-96.787800
01038	1205224	-9.801795	-0.223526	-0.265089				-0.006201	0.002384	-0.002304				-142.723813	88.088730	-96.784585
01039	1205274	-9.817719	-0.216275	-0.245593				-0.004682	0.000727	-0.004142				-142.710411	88.088686	-96.771890
01040	1205324	-9.788575	-0.228178	-0.276107				-0.004493	-0.001240	-0.001492				-142.695060	88.088658	-96.755264
01041	1205374	-9.802328	-0.215084	-0.273218				-0.002578	-0.001010	-0.002202				-142.685606	88.088711	-96.747379
01042	1205424	-9.815775	-0.209395	-0.267024				-0.004360	0.006040	-0.000202				-142.716832	88.087571	-96.777270
01043	1205474	-9.803783	-0.216679	-0.266344				-0.005296	0.001912	-0.003522				-142.713997	88.087158	-96.774983
01044	1205524	-9.817842	-0.205467	-0.249405				-0.007007	-0.000736	-0.003470				-142.688458	88.086699	-96.747431
01045	1205574	-9.805703	-0.206364	-0.283949				-0.000786	0.000119	-0.001010				-142.692233	88.087138	-96.753116
01046	1205624	-9.819720	-0.200838	-0.262274				-0.003041	-0.002705	-0.003875				-142.652560	88.086851	-96.712638
01047	1205674	-9.820392	-0.196104	-0.278338				0.001065	-0.001030	0.003433				-142.680628	88.088267	-96.743210
01048	1205724	-9.795645	-0.211407	-0.283351				-0.004611	0.002065	0.003275				-142.715100	88.088489	-96.776329
01049	1205774	-9.829658	-0.198471	-0.278084				-0.005298	-0.000087	-0.002313				-142.709866	88.088837	-96.771662
01050	1205824	-9.806104	-0.221714	-0.265084				-0.004853	0.001016	-0.002667				-142.698429	88.088028	-96.758871
01051	1205874	-9.789820	-0.225110	-0.273818				-0.004780	0.003091	-0.000858				-142.719667	88.088071	-96.780851
01052	1205924	-9.803052	-0.218736	-0.303170				-0.002647	0.002054	-0.003723				-142.705293	88.087150	-96.765641
01053	1205974	-9.811933	-0.228869	-0.271270				-0.003637	0.001808	-0.005905				-142.685560	88.086149	-96.747048
01054	1206024	-9.807168	-0.242482	-0.281998				-0.005993	-0.001264	-0.000172				-142.679408	88.086281	-96.739224
01055	1206074	-9.792159	-0.213379	-0.265662				-0.005946	0.001290	-0.000901				-142.691785	88.086337	-96.752099
01056	1206124	-9.810375	-0.213412	-0.283634				-0.004511	-0.003067	0.005271				-142.713208	88.087901	-96.772256
01057	1206174	-9.817706	-0.199171	-0.282979				-0.004900	0.000927	0.000674				-142.733656	88.088703	-96.793354
01058	1206224	-9.790103	-0.224788	-0.267763				-0.001790	-0.000677	-0.002941				-142.710436	88.088579	-96.769522
01059	1206274	-9.823313	-0.212522	-0.273069				-0.006051	-0.002623	-0.002105				-142.694316	88.089168	-96.753854
01060	1206324	-9.809443	-0.206667	-0.256581				-0.004400	-0.001272	-0.003605				-142.664506	88.088736	-96.722804
01061	1206374	-9.798615	-0.227447	-0.271342				-0.002840	0.000279	-0.002322				-142.660856	88.088734	-96.720572
01062	1206424	-9.799628	-0.224926	-0.266505				-0.002311	0.001705	-0.002509				-142.653316	88.087814	-96.712403
01063	1206474	-9.829308	-0.204357	-0.283226				0.000051	0.003205	-0.001443				-142.669643	88.088012	-96.730685
01064	1206524	-9.811483	-0.213833	-0.297637				-0.000358	0.003073	-0.000550				-142.681779	88.087403	-96.742654
