// General information: 
//  MT Manager version: 2022.0.0 
//  XDA version: 2022.0.0 build 7085 rev 119802 built on 2022-11-08
// Device information: 
//  DeviceId: 037004D1
//  ProductCode: MTi-300-2A5G4
//  Firmware Version: 1.4.1
//  Hardware Version: 2.1.0
// Device settings: 
//  Filter Profile: general(39.16)
//  Option Flags: Orientation Smoother Disabled, Position/Velocity Smoother Disabled, Continuous Zero Rotation Update Disabled, AHS Disabled, ICC Disabled
// Coordinate system: ENU
PacketCounter	SampleTimeFine	Acc_X	Acc_Y	Acc_Z	AccHR_X	AccHR_Y	AccHR_Z	Gyr_X	Gyr_Y	Gyr_Z	GyrHR_X	GyrHR_Y	GyrHR_Z	Roll	Pitch	Yaw
00001	1723624	0.136279	0.127627	-9.795862				-0.003899	-0.000324	0.001701				179.766904	-0.689569	-39.550417
00002	1723674	0.134360	0.131652	-9.830848				-0.002645	0.001109	-0.003266				179.768135	-0.689637	-39.550215
00003	1723724	0.149881	0.121526	-9.864707				-0.003608	0.000454	-0.000219				179.767101	-0.689767	-39.550152
00004	1723774	0.138994	0.127265	-9.831347				-0.005073	0.002269	0.000142				179.767647	-0.690171	-39.550920
00005	1723824	0.140472	0.112025	-9.817217				-0.002863	0.002013	-0.002460				179.766818	-0.690745	-39.550212
00006	1723874	0.132093	0.142569	-9.818379				-0.002147	0.003969	-0.000463				179.768201	-0.691636	-39.550808
00007	1723924	0.143846	0.109900	-9.828732				-0.002258	-0.001951	-0.001235				179.767549	-0.691075	-39.550455
00008	1723974	0.158174	0.108782	-9.863787				-0.003070	0.000457	-0.002217				179.768660	-0.690958	-39.550546
00009	1724024	0.160559	0.105359	-9.838401				-0.006233	0.003309	-0.003249				179.766863	-0.691902	-39.549614
00010	1724074	0.129059	0.125652	-9.798223				-0.002106	0.002842	0.001393				179.768262	-0.692472	-39.550718
00011	1724124	0.132283	0.139952	-9.798967				-0.002852	-0.001121	-0.000679				179.767442	-0.692151	-39.550515
00012	1724174	0.161317	0.127742	-9.851109				-0.001203	0.004372	-0.000916				179.769092	-0.693156	-39.550982
00013	1724224	0.143721	0.120870	-9.846949				-0.001992	0.004103	-0.000815				179.768518	-0.694330	-39.550737
00014	1724274	0.131069	0.118579	-9.815012				-0.003573	0.002093	-0.003099				179.769483	-0.694681	-39.550601
00015	1724324	0.116063	0.122129	-9.779943				-0.003014	-0.000285	-0.003242				179.768608	-0.694595	-39.549669
00016	1724374	0.134221	0.132301	-9.808559				-0.004073	0.003830	-0.003312				179.769425	-0.695443	-39.549466
00017	1724424	0.141186	0.125725	-9.850771				-0.004949	0.000773	-0.005506				179.767988	-0.695658	-39.547888
00018	1724474	0.147433	0.109855	-9.835456				-0.004160	0.000306	-0.003109				179.768783	-0.695497	-39.547719
00019	1724524	0.153368	0.110662	-9.811039				-0.008817	0.003876	-0.003593				179.766244	-0.696603	-39.546690
00020	1724574	0.119704	0.117478	-9.794584				-0.006805	-0.000933	-0.001887				179.766285	-0.696088	-39.546886
00021	1724624	0.158670	0.110002	-9.822815				-0.005258	0.003041	-0.000914				179.764776	-0.696958	-39.546615
00022	1724674	0.132133	0.129945	-9.842576				-0.004414	0.003637	-0.002122				179.765499	-0.697751	-39.546723
00023	1724724	0.145972	0.117717	-9.833055				-0.006929	0.001102	-0.000692				179.763512	-0.698066	-39.546522
00024	1724774	0.141253	0.126644	-9.812901				-0.007204	0.002979	0.000957				179.763447	-0.698675	-39.547519
00025	1724824	0.146538	0.109356	-9.797350				-0.007937	0.000636	0.000915				179.761177	-0.698858	-39.547788
00026	1724874	0.149923	0.103127	-9.829710				-0.004770	0.000392	-0.003584				179.761794	-0.698721	-39.547486
00027	1724924	0.168516	0.099817	-9.844189				-0.005070	0.004045	-0.000811				179.760339	-0.699879	-39.547255
00028	1724974	0.163341	0.116499	-9.837703				-0.003911	-0.000136	-0.000196				179.761212	-0.699594	-39.547913
00029	1725024	0.142520	0.128440	-9.801884				-0.001234	-0.000901	-0.002640				179.760850	-0.699333	-39.547150
00030	1725074	0.139567	0.127362	-9.812174				-0.001902	0.001294	0.000192				179.762300	-0.699459	-39.547920
00031	1725124	0.159698	0.125770	-9.835526				0.000506	0.001209	0.001533				179.762450	-0.699808	-39.548360
00032	1725174	0.150007	0.126555	-9.844343				-0.001083	0.002727	-0.000218				179.764135	-0.700343	-39.549008
00033	1725224	0.124171	0.140467	-9.822889				-0.006613	0.001173	-0.001007				179.762237	-0.700678	-39.548718
00034	1725274	0.134788	0.126045	-9.805206				-0.002898	0.001979	-0.003035				179.763390	-0.700996	-39.548564
00035	1725324	0.141896	0.114054	-9.822250				-0.000040	0.001094	0.000317				179.763379	-0.701310	-39.548650
00036	1725374	0.158791	0.101324	-9.824965				-0.004534	0.003078	-0.004248				179.764059	-0.701942	-39.548153
00037	1725424	0.137265	0.132508	-9.838529				-0.002293	0.001441	-0.000089				179.763402	-0.702355	-39.548124
00038	1725474	0.139704	0.136193	-9.825116				-0.006310	-0.000574	-0.003684				179.763574	-0.701940	-39.547788
00039	1725524	0.119518	0.135951	-9.798418				-0.001979	-0.000522	-0.001574				179.763002	-0.701789	-39.547334
00040	1725574	0.139327	0.115840	-9.837343				-0.008555	0.000620	-0.002999				179.762534	-0.701718	-39.547205
00041	1725624	0.153727	0.102170	-9.824226				-0.004958	0.001358	-0.003906				179.761100	-0.702102	-39.546086
00042	1725674	0.146708	0.116708	-9.840250				-0.001055	-0.000410	-0.000358				179.762790	-0.701739	-39.546715
00043	1725724	0.153751	0.111149	-9.804338				-0.006329	0.000273	-0.001596				179.760971	-0.701816	-39.546253
00044	1725774	0.139860	0.114042	-9.808102				-0.001516	-0.000706	0.002107				179.762538	-0.701370	-39.547592
00045	1725824	0.155441	0.118072	-9.819683				-0.005477	0.001746	-0.000978				179.760965	-0.701869	-39.547303
00046	1725874	0.155824	0.112976	-9.845803				-0.004505	-0.000801	-0.003632				179.761652	-0.701392	-39.546996
00047	1725924	0.154703	0.112058	-9.807216				-0.003011	0.001623	-0.002752				179.760780	-0.701853	-39.546200
00048	1725974	0.137554	0.127010	-9.791318				0.000114	0.003588	-0.000727				179.762801	-0.702635	-39.546709
00049	1726024	0.137778	0.131534	-9.803787				-0.003426	0.001848	-0.001240				179.761815	-0.703163	-39.546345
00050	1726074	0.160581	0.122929	-9.826900				-0.005694	-0.002593	-0.001229				179.762169	-0.702174	-39.546727
00051	1726124	0.150188	0.127502	-9.838593				-0.004245	0.001183	-0.002398				179.760944	-0.702510	-39.546034
00052	1726174	0.141144	0.132743	-9.818419				-0.003237	0.000846	-0.001152				179.762004	-0.702506	-39.546464
00053	1726224	0.146904	0.116352	-9.795200				-0.005224	-0.001132	-0.001160				179.760503	-0.702181	-39.546132
00054	1726274	0.128970	0.131769	-9.819798				-0.007697	-0.002082	-0.002082				179.760279	-0.701337	-39.546286
00055	1726324	0.151232	0.112542	-9.822298				-0.003635	0.002354	-0.000887				179.759235	-0.702011	-39.546020
00056	1726374	0.141470	0.133302	-9.836152				-0.005961	0.000762	-0.002458				179.759507	-0.701981	-39.546061
00057	1726424	0.121656	0.116709	-9.827421				-0.002581	-0.000723	-0.000358				179.758766	-0.701774	-39.545960
00058	1726474	0.125676	0.119426	-9.797489				-0.003524	-0.002425	-0.002542				179.759736	-0.700831	-39.545956
00059	1726524	0.150190	0.128047	-9.814393				-0.003329	-0.001620	-0.003665				179.758770	-0.700363	-39.544908
00060	1726574	0.161558	0.116656	-9.823307				-0.003338	-0.000799	0.001951				179.759810	-0.699892	-39.546195
00061	1726624	0.140771	0.124741	-9.824646				-0.001494	-0.001810	-0.002808				179.759372	-0.699370	-39.545389
00062	1726674	0.136756	0.135113	-9.807130				-0.003199	-0.001382	-0.000744				179.760441	-0.698729	-39.545904
00063	1726724	0.145266	0.109146	-9.802135				-0.005837	-0.003341	-0.002128				179.758762	-0.697769	-39.545296
00064	1726774	0.151422	0.119907	-9.836440				-0.005493	-0.002106	-0.003117				179.759166	-0.696918	-39.545120
00065	1726824	0.156827	0.131490	-9.846297				-0.004001	0.000804	0.000873				179.758023	-0.697149	-39.545363
00066	1726874	0.149696	0.122238	-9.830683				-0.008378	0.000400	0.000848				179.757614	-0.697020	-39.546331
00067	1726924	0.135851	0.113897	-9.801609				-0.001162	0.002410	0.001963				179.757288	-0.697713	-39.546891
00068	1726974	0.141175	0.115701	-9.816735				-0.004551	0.001824	-0.000470				179.757971	-0.697991	-39.547477
00069	1727024	0.160663	0.119242	-9.818753				-0.003958	0.001284	-0.001758				179.756830	-0.698357	-39.546964
00070	1727074	0.139725	0.117648	-9.866339				-0.006378	-0.000177	0.000872				179.756994	-0.698062	-39.547953
00071	1727124	0.146760	0.119867	-9.841928				-0.003456	0.002520	-0.001942				179.755998	-0.698782	-39.547381
00072	1727174	0.139813	0.114576	-9.810496				-0.001717	-0.002780	-0.001688				179.757487	-0.697739	-39.547618
00073	1727224	0.153622	0.120426	-9.812490				-0.000245	-0.001688	-0.002229				179.757409	-0.697253	-39.546982
00074	1727274	0.151800	0.124751	-9.838359				-0.005821	-0.003564	0.000371				179.757727	-0.695989	-39.547824
00075	1727324	0.155530	0.136114	-9.839580				-0.004256	0.001404	-0.004065				179.756494	-0.696386	-39.546657
00076	1727374	0.137490	0.136295	-9.815520				-0.004151	-0.000720	-0.000420				179.757290	-0.695935	-39.547263
00077	1727424	0.134143	0.128087	-9.826284				-0.005109	0.001037	-0.001783				179.755820	-0.696230	-39.546748
00078	1727474	0.151529	0.093695	-9.816063				-0.003437	-0.002065	-0.000556				179.756821	-0.695393	-39.547281
00079	1727524	0.156859	0.113627	-9.823521				-0.005161	-0.001192	-0.000291				179.755341	-0.695051	-39.547194
00080	1727574	0.176973	0.101121	-9.831062				-0.003483	-0.004946	-0.001377				179.756324	-0.693389	-39.547543
00081	1727624	0.128503	0.128931	-9.810688				-0.003909	-0.001402	-0.003731				179.755192	-0.692983	-39.546474
00082	1727674	0.142028	0.124321	-9.794452				-0.001570	-0.000522	-0.004721				179.756711	-0.692584	-39.545855
00083	1727724	0.137340	0.110520	-9.823420				-0.004537	-0.002997	-0.003447				179.755399	-0.691721	-39.544876
00084	1727774	0.153389	0.136828	-9.834782				-0.007377	-0.005047	0.000752				179.755273	-0.690031	-39.545811
00085	1727824	0.163762	0.119193	-9.829547				-0.002054	-0.001267	-0.000814				179.754682	-0.689667	-39.545579
00086	1727874	0.128684	0.112882	-9.814515				-0.005280	-0.002554	-0.001229				179.755149	-0.688690	-39.545946
00087	1727924	0.146047	0.114173	-9.808135				-0.003449	-0.001772	-0.000782				179.754158	-0.688181	-39.545723
00088	1727974	0.148491	0.112603	-9.843380				-0.003892	0.001315	-0.000921				179.755025	-0.688312	-39.546172
00089	1728024	0.151627	0.118989	-9.840041				-0.005086	-0.003880	-0.003546				179.753556	-0.687196	-39.545162
00090	1728074	0.136940	0.110301	-9.823421				-0.003736	0.001157	-0.002558				179.754461	-0.687280	-39.545130
00091	1728124	0.144846	0.116754	-9.811007				-0.004471	0.000138	-0.003237				179.753169	-0.687316	-39.544203
00092	1728174	0.132882	0.131229	-9.820057				-0.002826	0.002149	0.000333				179.754344	-0.687688	-39.544998
00093	1728224	0.162352	0.116494	-9.825711				-0.002941	0.000558	-0.000162				179.753501	-0.687848	-39.544942
00094	1728274	0.162707	0.125669	-9.843688				-0.006519	0.005274	-0.003172				179.753605	-0.689111	-39.544767
00095	1728324	0.144640	0.107080	-9.817949				-0.002448	0.003282	-0.001042				179.752901	-0.690050	-39.544457
00096	1728374	0.126882	0.124088	-9.805886				-0.002810	0.000437	0.000516				179.754082	-0.689932	-39.545330
00097	1728424	0.131989	0.118525	-9.812609				0.000820	-0.001893	0.000048				179.754317	-0.689389	-39.545347
00098	1728474	0.158203	0.108617	-9.836228				-0.004246	-0.000990	-0.002924				179.755072	-0.688858	-39.545256
00099	1728524	0.142411	0.120716	-9.802604				-0.005319	-0.000159	-0.000671				179.753546	-0.688812	-39.545067
00100	1728574	0.125396	0.123523	-9.816420				-0.003658	0.004033	-0.002187				179.754472	-0.689721	-39.545149
00101	1728624	0.129980	0.124026	-9.805180				-0.000872	-0.002059	-0.002070				179.754215	-0.689129	-39.544563
00102	1728674	0.148964	0.101662	-9.827083				-0.003324	0.000390	-0.000896				179.755242	-0.688995	-39.545025
00103	1728724	0.154432	0.113942	-9.849874				-0.003093	-0.000607	0.000671				179.754358	-0.688822	-39.545211
00104	1728774	0.157909	0.118027	-9.835514				-0.004305	0.002051	-0.002491				179.755096	-0.689163	-39.545211
00105	1728824	0.127514	0.110336	-9.803246				-0.005145	-0.000641	-0.000189				179.753621	-0.688979	-39.545156
00106	1728874	0.114116	0.116358	-9.807010				-0.002816	-0.000540	-0.002373				179.754788	-0.688578	-39.545207
00107	1728924	0.148889	0.117724	-9.851524				-0.005439	-0.001325	0.000670				179.753232	-0.688199	-39.545407
00108	1728974	0.160570	0.134683	-9.835294				-0.003385	0.001396	-0.001280				179.754239	-0.688353	-39.545745
00109	1729024	0.156626	0.113755	-9.821604				-0.004011	-0.001010	0.001085				179.753094	-0.688066	-39.546060
00110	1729074	0.145882	0.120828	-9.797585				-0.002617	-0.001735	-0.002514				179.754315	-0.687322	-39.546080
00111	1729124	0.145693	0.106826	-9.812683				-0.002564	0.000054	0.002497				179.753589	-0.687340	-39.546789
00112	1729174	0.139265	0.131899	-9.849800				0.000063	0.001812	-0.000960				179.755582	-0.687615	-39.547239
00113	1729224	0.165145	0.113617	-9.822608				-0.002080	-0.002632	-0.002936				179.754976	-0.686857	-39.546404
00114	1729274	0.132165	0.119767	-9.815965				-0.001036	-0.003093	-0.002654				179.756648	-0.685724	-39.546393
00115	1729324	0.148420	0.116412	-9.812942				-0.005275	-0.001815	-0.003152				179.755126	-0.685201	-39.545500
00116	1729374	0.141515	0.116088	-9.832559				-0.002432	0.001501	-0.004423				179.756393	-0.685382	-39.544929
00117	1729424	0.152081	0.112092	-9.844347				-0.000785	0.002047	-0.003751				179.756155	-0.685964	-39.543842
00118	1729474	0.132665	0.133723	-9.830116				-0.000060	0.000542	-0.002824				179.758107	-0.685872	-39.543776
00119	1729524	0.130203	0.126878	-9.812608				-0.003167	-0.002546	-0.001587				179.757194	-0.685141	-39.543331
00120	1729574	0.136058	0.102292	-9.807838				-0.008640	0.001825	0.002847				179.756705	-0.685424	-39.544848
00121	1729624	0.132574	0.133272	-9.824367				-0.004895	-0.000377	0.000740				179.755306	-0.685317	-39.545064
00122	1729674	0.160471	0.111848	-9.860209				-0.003383	0.001094	-0.003654				179.756301	-0.685382	-39.544744
00123	1729724	0.138829	0.112444	-9.828228				-0.001102	-0.000698	-0.000135				179.755985	-0.685182	-39.544705
00124	1729774	0.148475	0.110107	-9.814611				-0.006866	-0.001735	0.002148				179.756002	-0.684444	-39.546033
00125	1729824	0.153753	0.112822	-9.814640				0.000896	0.001085	0.001178				179.756263	-0.684756	-39.546373
00126	1729874	0.160747	0.112902	-9.832649				-0.005424	-0.001109	-0.001524				179.756679	-0.684194	-39.546668
00127	1729924	0.124296	0.142165	-9.842297				-0.005281	0.001737	-0.000262				179.755166	-0.684691	-39.546590
00128	1729974	0.153032	0.130493	-9.820395				-0.000277	-0.001439	-0.000045				179.757062	-0.684036	-39.547283
00129	1730024	0.145021	0.125266	-9.806216				-0.002387	0.002399	-0.001910				179.756372	-0.684721	-39.546729
00130	1730074	0.150628	0.108633	-9.842181				-0.005482	-0.000638	-0.004964				179.756762	-0.684288	-39.546044
00131	1730124	0.154944	0.119281	-9.822559				-0.007144	0.000795	-0.001107				179.754711	-0.684515	-39.545720
00132	1730174	0.156960	0.132347	-9.840784				-0.003844	-0.000244	-0.000218				179.755585	-0.684202	-39.546378
00133	1730224	0.153100	0.115886	-9.827821				-0.001718	0.001378	-0.000635				179.755090	-0.684596	-39.546191
00134	1730274	0.123707	0.138063	-9.806349				-0.002547	0.004563	-0.000735				179.756334	-0.685659	-39.546697
00135	1730324	0.121656	0.130761	-9.821192				0.001017	-0.000897	0.000410				179.756627	-0.685402	-39.546816
00136	1730374	0.133698	0.133112	-9.849771				-0.004099	-0.001187	-0.000186				179.757427	-0.684819	-39.547495
00137	1730424	0.159350	0.120788	-9.824738				-0.005210	-0.003728	-0.000940				179.755931	-0.683750	-39.547234
00138	1730474	0.149429	0.095629	-9.808626				-0.000936	0.000578	-0.004074				179.757623	-0.683667	-39.546783
00139	1730524	0.131420	0.116640	-9.790568				-0.006205	0.002493	-0.001573				179.755840	-0.684379	-39.546336
00140	1730574	0.136756	0.122725	-9.810009				-0.000359	0.002076	-0.000855				179.757707	-0.684731	-39.546786
00141	1730624	0.153941	0.123154	-9.827585				-0.003563	-0.001916	0.001663				179.756692	-0.684184	-39.547268
00142	1730674	0.158921	0.126149	-9.828576				-0.002185	0.000883	-0.001182				179.758036	-0.684192	-39.547662
00143	1730724	0.133819	0.117105	-9.793691				-0.004374	0.000227	-0.002910				179.756773	-0.684253	-39.546819
00144	1730774	0.125400	0.129568	-9.794134				-0.003039	0.001610	-0.002585				179.757867	-0.684468	-39.546788
00145	1730824	0.148578	0.117622	-9.832112				-0.002185	0.000045	0.000163				179.757241	-0.684482	-39.546830
00146	1730874	0.152081	0.114212	-9.821348				-0.003207	0.000933	-0.000761				179.758293	-0.684505	-39.547353
00147	1730924	0.131694	0.131398	-9.821724				-0.001222	0.001062	-0.000633				179.757941	-0.684808	-39.547169
00148	1730974	0.127468	0.122028	-9.809235				-0.004287	0.000782	-0.000210				179.758685	-0.684789	-39.547829
00149	1731024	0.142915	0.127253	-9.817950				-0.001919	0.001857	0.000234				179.758136	-0.685321	-39.547897
00150	1731074	0.169899	0.096197	-9.832933				-0.007994	0.003500	0.000356				179.757820	-0.686081	-39.548718
00151	1731124	0.164781	0.129166	-9.848735				-0.001805	0.004019	-0.004214				179.757288	-0.687227	-39.547504
00152	1731174	0.139209	0.124827	-9.826797				-0.003622	0.002830	-0.001258				179.758219	-0.687794	-39.547855
00153	1731224	0.139904	0.112025	-9.796838				-0.003856	0.002914	-0.006237				179.757093	-0.688621	-39.546059
00154	1731274	0.138648	0.132114	-9.823202				-0.002778	0.003521	-0.003535				179.758255	-0.689382	-39.545758
00155	1731324	0.154352	0.123989	-9.821836				-0.004882	-0.000808	0.001127				179.756861	-0.689152	-39.546077
00156	1731374	0.128520	0.146374	-9.831776				-0.005145	0.003383	-0.002761				179.757348	-0.689875	-39.546013
00157	1731424	0.145489	0.116896	-9.825863				0.000288	0.004634	-0.004507				179.757415	-0.691197	-39.544715
00158	1731474	0.131602	0.115812	-9.787210				-0.004541	-0.001649	-0.002374				179.758074	-0.690479	-39.544759
00159	1731524	0.163984	0.104983	-9.813740				-0.004274	0.004505	0.000161				179.756851	-0.691770	-39.544796
00160	1731574	0.160772	0.111830	-9.825941				-0.005930	0.002618	-0.004691				179.757106	-0.692273	-39.544172
00161	1731624	0.134717	0.114459	-9.816462				-0.005326	0.000826	-0.002612				179.755571	-0.692506	-39.543423
00162	1731674	0.140102	0.123035	-9.818171				-0.004821	0.000090	-0.002367				179.756152	-0.692286	-39.543452
00163	1731724	0.121652	0.134833	-9.817841				-0.002992	0.001130	-0.001977				179.755288	-0.692608	-39.542878
00164	1731774	0.153422	0.127845	-9.829268				-0.002927	0.000832	-0.004351				179.756404	-0.692599	-39.542362
00165	1731824	0.134498	0.113807	-9.830361				-0.001689	-0.001026	-0.006774				179.755897	-0.692296	-39.540424
00166	1731874	0.137624	0.140725	-9.813851				-0.002497	-0.002191	0.000989				179.757155	-0.691427	-39.541426
00167	1731924	0.114895	0.118841	-9.804383				-0.000878	0.003462	-0.001391				179.756898	-0.692417	-39.541015
00168	1731974	0.143042	0.123736	-9.816504				-0.001216	-0.002760	-0.004923				179.758499	-0.691378	-39.540341
00169	1732024	0.147115	0.134600	-9.825642				-0.004101	-0.000146	0.000551				179.757326	-0.691337	-39.540495
00170	1732074	0.140091	0.127329	-9.836864				-0.003295	-0.001528	-0.000902				179.758349	-0.690655	-39.540957
00171	1732124	0.147417	0.124719	-9.817486				-0.001871	-0.000791	-0.000356				179.757812	-0.690428	-39.540853
00172	1732174	0.128468	0.126458	-9.805408				-0.002295	-0.001539	0.000800				179.759124	-0.689746	-39.541809
00173	1732224	0.122061	0.138083	-9.811607				-0.003205	0.003035	0.000121				179.758206	-0.690616	-39.541830
00174	1732274	0.149769	0.111824	-9.850569				-0.005416	0.003798	-0.002982				179.758613	-0.691457	-39.541701
00175	1732324	0.138366	0.135098	-9.837100				-0.002445	-0.001967	-0.000490				179.757910	-0.690893	-39.541563
00176	1732374	0.130765	0.131650	-9.818125				-0.001258	0.003029	-0.003348				179.759505	-0.691514	-39.541315
00177	1732424	0.139294	0.120072	-9.807862				-0.005799	-0.001341	-0.000380				179.757843	-0.691130	-39.541204
00178	1732474	0.154514	0.124598	-9.814407				-0.006212	-0.001322	-0.000250				179.758029	-0.690508	-39.541860
00179	1732524	0.157496	0.128481	-9.836473				-0.002908	-0.000220	0.001863				179.757203	-0.690447	-39.542388
00180	1732574	0.133647	0.114668	-9.837307				-0.003825	0.001980	-0.003446				179.758062	-0.690767	-39.542125
00181	1732624	0.136744	0.124987	-9.814078				-0.002906	0.001648	0.000396				179.757231	-0.691240	-39.542234
00182	1732674	0.151261	0.126683	-9.813677				-0.005691	0.003371	-0.003339				179.757553	-0.691962	-39.541949
00183	1732724	0.130774	0.131889	-9.796562				-0.006056	-0.000320	-0.003356				179.755807	-0.691866	-39.540993
00184	1732774	0.147491	0.130111	-9.836425				-0.007226	0.001013	-0.004629				179.755687	-0.691908	-39.540397
00185	1732824	0.138355	0.127427	-9.814570				-0.001536	0.000602	-0.002435				179.755238	-0.692078	-39.539700
00186	1732874	0.150950	0.114845	-9.817986				-0.004102	0.001983	0.000082				179.756028	-0.692404	-39.540432
00187	1732924	0.140287	0.129074	-9.812901				-0.003181	0.003997	-0.003725				179.755104	-0.693544	-39.539352
00188	1732974	0.151179	0.117704	-9.818467				-0.003402	0.003424	0.001722				179.756101	-0.694285	-39.540587
00189	1733024	0.153585	0.117723	-9.825425				-0.000828	0.002683	-0.001141				179.755860	-0.695052	-39.540252
00190	1733074	0.143623	0.122810	-9.817470				-0.005063	0.001031	0.000818				179.756377	-0.695106	-39.541216
00191	1733124	0.130555	0.143736	-9.803026				-0.001582	0.004421	0.000664				179.755926	-0.696373	-39.541389
00192	1733174	0.149966	0.144032	-9.828526				-0.006793	0.002164	0.001083				179.755947	-0.696752	-39.542439
00193	1733224	0.153175	0.135131	-9.831423				-0.007783	0.001982	0.001216				179.753722	-0.697321	-39.542784
00194	1733274	0.152821	0.119421	-9.837409				-0.002886	-0.000592	-0.005867				179.754836	-0.696903	-39.541819
00195	1733324	0.138724	0.137414	-9.815535				-0.003992	0.001500	-0.001427				179.753687	-0.697331	-39.541405
00196	1733374	0.140007	0.126767	-9.814099				-0.004242	-0.001063	-0.002854				179.754424	-0.696780	-39.541310
00197	1733424	0.160221	0.114618	-9.828332				-0.001109	-0.000714	-0.001801				179.754100	-0.696574	-39.540799
00198	1733474	0.160980	0.124171	-9.847755				-0.001615	0.001215	-0.000250				179.755600	-0.696679	-39.541422
00199	1733524	0.163490	0.136180	-9.823089				-0.003207	-0.000942	0.002311				179.754689	-0.696412	-39.542084
00200	1733574	0.155971	0.123125	-9.801720				-0.002130	0.001603	0.001837				179.756047	-0.696632	-39.543347
00201	1733624	0.134453	0.128647	-9.809515				-0.007387	-0.001664	-0.001468				179.753925	-0.696153	-39.542926
00202	1733674	0.140236	0.131320	-9.817694				-0.002759	0.000001	0.000133				179.755098	-0.695911	-39.543694
00203	1733724	0.155036	0.116500	-9.832384				-0.002382	0.001036	-0.002787				179.754405	-0.696205	-39.542894
00204	1733774	0.140261	0.117907	-9.826080				-0.002761	0.000734	-0.005029				179.755558	-0.696167	-39.542193
00205	1733824	0.138320	0.129860	-9.821519				-0.001303	-0.000586	-0.000321				179.755184	-0.695999	-39.542104
00206	1733874	0.149879	0.124824	-9.820617				-0.003255	0.001448	-0.000084				179.756212	-0.696172	-39.542796
00207	1733924	0.155675	0.128911	-9.818968				-0.003099	-0.001425	0.000031				179.755324	-0.695764	-39.542806
00208	1733974	0.144605	0.124297	-9.821792				-0.002567	-0.000224	-0.002499				179.756541	-0.695455	-39.542833
00209	1734024	0.141972	0.129990	-9.820817				-0.004330	0.001809	-0.003993				179.755287	-0.695968	-39.541684
00210	1734074	0.152396	0.109235	-9.819908				-0.004385	0.000653	-0.001308				179.755985	-0.695912	-39.542027
00211	1734124	0.140655	0.117686	-9.822486				-0.005905	0.000075	-0.001364				179.754288	-0.695932	-39.541637
00212	1734174	0.164172	0.114391	-9.839139				-0.004103	0.001619	-0.004064				179.755058	-0.696150	-39.541186
00213	1734224	0.162974	0.113800	-9.848003				-0.003485	0.000303	-0.002848				179.754050	-0.696233	-39.540367
00214	1734274	0.143835	0.109769	-9.821543				-0.002728	-0.000031	-0.000633				179.755224	-0.695982	-39.540905
00215	1734324	0.151057	0.132267	-9.814395				-0.001076	-0.002489	0.001524				179.754922	-0.695271	-39.541344
00216	1734374	0.131985	0.129381	-9.824843				-0.000720	0.001197	-0.003262				179.756663	-0.695368	-39.541137
00217	1734424	0.176632	0.139901	-9.839220				-0.003971	-0.001609	-0.002505				179.755516	-0.694904	-39.540415
00218	1734474	0.147172	0.127610	-9.834266				-0.003194	-0.002594	-0.000777				179.756559	-0.693918	-39.540935
00219	1734524	0.143785	0.119928	-9.832086				-0.001913	-0.000966	-0.005618				179.755991	-0.693634	-39.539334
00220	1734574	0.142165	0.136824	-9.805243				-0.003377	-0.000588	0.001608				179.756987	-0.693226	-39.540496
00221	1734624	0.144008	0.135037	-9.824665				-0.003482	-0.000396	-0.000603				179.755988	-0.693112	-39.540324
00222	1734674	0.149213	0.118566	-9.836192				-0.001775	-0.001657	0.002016				179.757445	-0.692398	-39.541627
00223	1734724	0.149047	0.123099	-9.848886				-0.001042	-0.000872	-0.001835				179.757140	-0.692146	-39.541103
00224	1734774	0.131403	0.129787	-9.800878				-0.005075	0.004353	-0.002277				179.757634	-0.693149	-39.541155
00225	1734824	0.137282	0.131053	-9.803776				-0.003575	0.001246	-0.002520				179.756601	-0.693503	-39.540431
00226	1734874	0.146081	0.129618	-9.842403				-0.004818	-0.000975	-0.002338				179.757171	-0.692979	-39.540487
00227	1734924	0.166027	0.107067	-9.855202				-0.003819	0.002919	-0.002129				179.756070	-0.693813	-39.539868
00228	1734974	0.156235	0.117187	-9.824483				-0.005995	0.002948	-0.002410				179.756300	-0.694413	-39.539898
00229	1735024	0.125661	0.124757	-9.804914				-0.002023	-0.000279	-0.002917				179.755710	-0.694329	-39.539055
00230	1735074	0.153625	0.140684	-9.815602				-0.001460	-0.001791	-0.002413				179.757238	-0.693572	-39.539087
00231	1735124	0.149709	0.117638	-9.818937				-0.001119	0.001480	-0.003650				179.756905	-0.693992	-39.538035
00232	1735174	0.149800	0.133934	-9.829481				-0.002444	0.000940	-0.003039				179.758148	-0.694017	-39.537873
00233	1735224	0.143372	0.125836	-9.815790				-0.001750	0.001011	-0.005895				179.757626	-0.694299	-39.536179
00234	1735274	0.138353	0.123554	-9.819598				-0.004313	0.000129	-0.003034				179.758335	-0.694091	-39.536057
00235	1735324	0.139759	0.123728	-9.825121				-0.000630	0.002556	-0.000724				179.758152	-0.694823	-39.535853
00236	1735374	0.151807	0.123146	-9.833329				-0.002068	-0.000728	-0.000483				179.759513	-0.694372	-39.536423
00237	1735424	0.153488	0.115017	-9.827104				-0.004657	-0.002204	-0.003370				179.758167	-0.693737	-39.535458
00238	1735474	0.152503	0.124909	-9.824702				-0.002650	0.001356	-0.002171				179.759354	-0.693882	-39.535569
00239	1735524	0.129365	0.132231	-9.787683				-0.006615	0.003389	-0.003207				179.757448	-0.694849	-39.534645
00240	1735574	0.145183	0.125567	-9.814123				-0.003109	-0.003468	-0.001615				179.758506	-0.693612	-39.534881
00241	1735624	0.158395	0.134648	-9.842465				0.002254	-0.000919	-0.004248				179.759137	-0.693344	-39.533670
00242	1735674	0.142628	0.122334	-9.841425				0.000962	-0.000424	-0.002891				179.761356	-0.692978	-39.533569
00243	1735724	0.154569	0.107635	-9.814646				-0.002035	0.001045	-0.003298				179.760762	-0.693273	-39.532620
00244	1735774	0.135318	0.110332	-9.815271				-0.003204	-0.004832	-0.004991				179.761780	-0.691642	-39.531908
00245	1735824	0.136705	0.128859	-9.799219				-0.004356	-0.003355	-0.000457				179.760530	-0.690680	-39.531778
00246	1735874	0.158070	0.126553	-9.818501				-0.004577	-0.000715	-0.003973				179.761158	-0.690229	-39.531370
00247	1735924	0.141452	0.126622	-9.835194				-0.004714	-0.003397	-0.002734				179.759798	-0.689253	-39.530588
00248	1735974	0.134906	0.116218	-9.812386				-0.004853	0.000189	-0.000951				179.760357	-0.689065	-39.531011
00249	1736024	0.145727	0.111152	-9.816280				-0.002808	0.001754	0.000911				179.759556	-0.689568	-39.531267
00250	1736074	0.155243	0.106331	-9.827587				-0.006856	-0.004077	0.001597				179.759549	-0.688160	-39.532453
00251	1736124	0.135520	0.133473	-9.821737				-0.003164	0.001381	-0.003837				179.758630	-0.688551	-39.531348
00252	1736174	0.158204	0.111200	-9.807953				-0.003311	0.000186	-0.000571				179.759632	-0.688362	-39.531899
00253	1736224	0.135542	0.121709	-9.814311				-0.004014	0.001210	-0.000209				179.758481	-0.688709	-39.531832
00254	1736274	0.162785	0.117105	-9.817324				-0.004035	0.001426	-0.003964				179.759263	-0.688871	-39.531415
00255	1736324	0.143871	0.132638	-9.839277				-0.001106	-0.001684	-0.001553				179.758941	-0.688387	-39.530972
00256	1736374	0.150334	0.112354	-9.838829				-0.004339	0.000101	-0.001496				179.759642	-0.688173	-39.531276
00257	1736424	0.165616	0.114710	-9.807509				-0.000709	0.001840	-0.003870				179.759426	-0.688695	-39.530164
00258	1736474	0.151429	0.112033	-9.818704				-0.003461	0.001697	-0.003226				179.760373	-0.688937	-39.529944
00259	1736524	0.143229	0.116185	-9.831603				-0.006241	0.003754	-0.001635				179.758579	-0.690010	-39.529473
00260	1736574	0.136644	0.143490	-9.840446				-0.003444	0.001509	0.001172				179.759546	-0.690203	-39.530513
00261	1736624	0.169143	0.110599	-9.824306				-0.001595	0.001601	-0.002015				179.759082	-0.690659	-39.529933
00262	1736674	0.164605	0.103054	-9.808460				-0.005766	-0.000345	-0.000925				179.759376	-0.690318	-39.530411
00263	1736724	0.152844	0.116058	-9.796185				-0.006974	-0.001793	-0.003044				179.757368	-0.689801	-39.529534
00264	1736774	0.141541	0.111524	-9.837828				-0.004771	0.001444	-0.004923				179.757934	-0.689968	-39.528830
00265	1736824	0.134201	0.137468	-9.835877				-0.004899	-0.003795	-0.004853				179.756514	-0.688874	-39.527445
00266	1736874	0.149961	0.123872	-9.824450				-0.002854	0.002136	0.000820				179.757649	-0.689246	-39.528390
00267	1736924	0.121433	0.133352	-9.808495				-0.004406	0.003268	-0.002699				179.756377	-0.690179	-39.527619
00268	1736974	0.146331	0.114916	-9.798786				-0.001371	0.003074	0.002808				179.757942	-0.690822	-39.529131
00269	1737024	0.139771	0.128966	-9.818889				-0.005063	-0.001267	-0.000252				179.756490	-0.690459	-39.529067
00270	1737074	0.154238	0.124569	-9.843408				-0.004685	-0.001302	-0.003878				179.757081	-0.689841	-39.528692
00271	1737124	0.149566	0.138834	-9.820861				-0.002147	-0.001992	0.002012				179.756473	-0.689273	-39.529269
00272	1737174	0.140540	0.132558	-9.806918				-0.002210	-0.000447	-0.003334				179.757775	-0.688900	-39.529045
00273	1737224	0.147130	0.128245	-9.820361				0.000149	-0.001915	-0.000238				179.757817	-0.688351	-39.528983
00274	1737274	0.149324	0.119166	-9.840982				-0.001987	-0.001948	0.002270				179.759202	-0.687555	-39.530337
00275	1737324	0.146967	0.114933	-9.841208				-0.003096	-0.000295	0.001482				179.758321	-0.687473	-39.530758
00276	1737374	0.154457	0.110770	-9.814885				-0.002395	-0.000542	-0.000001				179.759582	-0.687076	-39.531489
00277	1737424	0.126101	0.134547	-9.813311				-0.001654	0.000274	-0.004264				179.759094	-0.687150	-39.530268
00278	1737474	0.156245	0.110184	-9.830228				-0.005751	-0.000993	-0.002943				179.759382	-0.686621	-39.530154
00279	1737524	0.152872	0.121494	-9.846754				-0.004605	0.000451	-0.002523				179.758054	-0.686748	-39.529422
00280	1737574	0.170402	0.121510	-9.829349				-0.005513	0.000856	-0.001620				179.758414	-0.686751	-39.529667
00281	1737624	0.153023	0.125021	-9.804812				-0.000928	-0.001428	-0.003183				179.758137	-0.686338	-39.528757
00282	1737674	0.146447	0.125928	-9.804061				-0.001891	0.003061	0.001015				179.759544	-0.686975	-39.529755
00283	1737724	0.140114	0.124389	-9.830157				-0.004029	-0.001441	-0.000034				179.758390	-0.686562	-39.529747
00284	1737774	0.153943	0.109313	-9.829982				-0.001824	0.000529	-0.002662				179.759804	-0.686470	-39.529723
00285	1737824	0.154132	0.110221	-9.825670				-0.003422	0.003707	-0.000934				179.758821	-0.687531	-39.529443
00286	1737874	0.141165	0.132639	-9.812901				-0.002933	0.000320	-0.001983				179.759918	-0.687380	-39.529592
00287	1737924	0.137461	0.116472	-9.811925				-0.001801	0.000018	-0.000926				179.759398	-0.687384	-39.529326
00288	1737974	0.149404	0.121983	-9.809351				-0.002709	0.003556	-0.001359				179.760560	-0.688161	-39.529645
00289	1738024	0.134789	0.144394	-9.814795				-0.000021	0.001401	-0.002018				179.760547	-0.688560	-39.529066
00290	1738074	0.140136	0.122075	-9.820806				-0.002111	0.000591	-0.002047				179.761881	-0.688487	-39.529220
00291	1738124	0.151473	0.113972	-9.822303				-0.003735	0.002508	0.000245				179.760811	-0.689206	-39.529277
00292	1738174	0.145549	0.125873	-9.827779				-0.004469	-0.001004	-0.002304				179.761466	-0.688675	-39.529359
00293	1738224	0.148480	0.130685	-9.817973				-0.002801	-0.003105	-0.002576				179.760654	-0.687782	-39.528627
00294	1738274	0.133753	0.124618	-9.833957				-0.001926	0.001218	0.002127				179.762051	-0.687894	-39.529949
00295	1738324	0.127252	0.125261	-9.821943				-0.003082	0.001258	0.000977				179.761172	-0.688255	-39.530226
00296	1738374	0.138636	0.117843	-9.822479				-0.003385	-0.003529	0.001786				179.762150	-0.687007	-39.531465
00297	1738424	0.143227	0.126004	-9.824422				-0.004227	0.002919	-0.000200				179.760938	-0.687843	-39.531394
00298	1738474	0.155148	0.106267	-9.828785				-0.004686	0.002036	-0.000204				179.761537	-0.688186	-39.532052
00299	1738524	0.151101	0.123767	-9.837875				-0.005779	-0.000897	-0.001306				179.759877	-0.687928	-39.531679
00300	1738574	0.158893	0.109740	-9.818744				-0.003286	0.003219	-0.004502				179.760861	-0.688604	-39.531119
00301	1738624	0.144577	0.112624	-9.831603				-0.003365	-0.001170	-0.000259				179.759896	-0.688268	-39.531057
00302	1738674	0.147277	0.105313	-9.830184				-0.004151	0.000199	-0.002623				179.760639	-0.688082	-39.531033
00303	1738724	0.171333	0.112638	-9.828874				-0.002343	0.003920	-0.002577				179.759959	-0.689202	-39.530277
00304	1738774	0.173794	0.128333	-9.816665				-0.001972	-0.001766	-0.000717				179.761333	-0.688455	-39.530814
00305	1738824	0.148019	0.116386	-9.816294				-0.002360	0.001293	-0.002525				179.760648	-0.688822	-39.530086
00306	1738874	0.125586	0.137819	-9.811157				0.000831	0.001002	-0.001281				179.762821	-0.688868	-39.530446
00307	1738924	0.149778	0.111325	-9.826127				-0.001064	-0.000133	-0.001796				179.762510	-0.688828	-39.529932
00308	1738974	0.154124	0.116845	-9.808173				-0.004074	-0.001025	-0.000994				179.763278	-0.688293	-39.530375
00309	1739024	0.160215	0.132018	-9.816601				-0.004898	0.000510	-0.002619				179.761866	-0.688436	-39.529625
00310	1739074	0.141311	0.109259	-9.801634				-0.005177	-0.000557	0.000679				179.762325	-0.688038	-39.530521
00311	1739124	0.144293	0.126422	-9.816515				-0.004899	-0.000589	-0.003265				179.760910	-0.687866	-39.529585
00312	1739174	0.124647	0.148526	-9.837273				-0.005013	0.001119	-0.002867				179.761402	-0.687943	-39.529483
00313	1739224	0.144416	0.115368	-9.845034				-0.001992	0.002185	0.000849				179.760834	-0.688570	-39.529715
00314	1739274	0.145830	0.123309	-9.820114				-0.001001	0.001708	-0.004255				179.762471	-0.688815	-39.529218
00315	1739324	0.152348	0.131548	-9.823986				-0.003099	-0.000688	-0.002532				179.761574	-0.688615	-39.528491
00316	1739374	0.146270	0.131139	-9.834741				-0.003905	0.000361	-0.003484				179.762381	-0.688474	-39.528201
00317	1739424	0.164720	0.115274	-9.834104				-0.003975	-0.002450	-0.002702				179.761233	-0.687769	-39.527431
00318	1739474	0.141651	0.119712	-9.833512				-0.005698	0.000494	-0.003388				179.761528	-0.687666	-39.527173
00319	1739524	0.154894	0.129629	-9.823036				-0.000621	0.004076	-0.004053				179.761336	-0.688829	-39.526004
00320	1739574	0.139421	0.134785	-9.806907				-0.004097	0.002919	-0.000422				179.762098	-0.689425	-39.526604
00321	1739624	0.158279	0.125479	-9.827126				-0.002777	0.002320	-0.004126				179.761288	-0.690085	-39.525416
00322	1739674	0.144849	0.131381	-9.835930				-0.004852	-0.000745	-0.000477				179.761834	-0.689631	-39.526004
00323	1739724	0.140831	0.127610	-9.836868				-0.004791	-0.000947	-0.004004				179.760447	-0.689355	-39.524852
00324	1739774	0.152765	0.113968	-9.814156				-0.008989	-0.000924	-0.003512				179.759796	-0.688846	-39.524561
00325	1739824	0.146829	0.118225	-9.805742				-0.006664	0.004844	-0.002911				179.757877	-0.690230	-39.523721
00326	1739874	0.149447	0.131863	-9.834754				-0.001526	0.003584	-0.000913				179.759370	-0.691017	-39.524167
00327	1739924	0.160378	0.114181	-9.841039				-0.006431	0.002359	-0.003897				179.757514	-0.691688	-39.523045
00328	1739974	0.139781	0.129441	-9.816252				-0.006215	0.002657	-0.002895				179.757658	-0.692207	-39.522945
00329	1740024	0.132466	0.125656	-9.793212				-0.005563	-0.001726	-0.001062				179.756061	-0.691711	-39.522646
00330	1740074	0.145881	0.115147	-9.811729				-0.002491	0.001463	-0.001698				179.757276	-0.691889	-39.522851
00331	1740124	0.122424	0.130674	-9.822162				-0.002764	0.000906	-0.003877				179.756470	-0.692144	-39.521738
00332	1740174	0.145912	0.110788	-9.837849				-0.001608	0.001732	-0.002597				179.757934	-0.692398	-39.521720
00333	1740224	0.137681	0.122488	-9.830139				-0.004658	0.005534	0.000164				179.756600	-0.693983	-39.521752
00334	1740274	0.142488	0.120267	-9.806924				-0.003598	0.003320	-0.000431				179.757501	-0.694694	-39.522361
00335	1740324	0.150620	0.123430	-9.834037				-0.004208	-0.000023	-0.001185				179.756292	-0.694686	-39.522024
00336	1740374	0.162514	0.113280	-9.837218				-0.000642	0.001981	0.000063				179.758044	-0.695014	-39.522760
00337	1740424	0.150341	0.132725	-9.826610				-0.001294	0.002801	-0.006057				179.757652	-0.695809	-39.521021
00338	1740474	0.154357	0.103444	-9.813688				-0.003557	-0.000399	-0.001801				179.758562	-0.695453	-39.521216
00339	1740524	0.138977	0.135535	-9.807862				-0.002282	0.001948	-0.002401				179.757900	-0.696008	-39.520526
00340	1740574	0.148592	0.127666	-9.824445				-0.000419	-0.001512	-0.004638				179.759695	-0.695331	-39.519909
00341	1740624	0.138171	0.148915	-9.839975				-0.003634	-0.000720	0.000127				179.758655	-0.695125	-39.519945
00342	1740674	0.152990	0.117930	-9.816317				-0.004136	0.000791	-0.001375				179.759397	-0.695111	-39.520242
00343	1740724	0.142691	0.124603	-9.801171				-0.000643	0.002956	-0.000060				179.759212	-0.695957	-39.520221
00344	1740774	0.131840	0.136026	-9.812142				-0.001220	0.002677	-0.003874				179.760783	-0.696480	-39.519815
00345	1740824	0.149775	0.109483	-9.853209				-0.005928	0.001595	-0.002935				179.759074	-0.696933	-39.518967
00346	1740874	0.138574	0.151228	-9.815296				-0.006165	0.002337	-0.001489				179.759233	-0.697362	-39.519262
00347	1740924	0.146509	0.127019	-9.826355				-0.003394	0.000505	-0.003172				179.758249	-0.697503	-39.518351
00348	1740974	0.152197	0.112084	-9.811277				-0.000694	0.002266	-0.004648				179.759966	-0.697908	-39.517726
00349	1741024	0.131417	0.126376	-9.825797				-0.004504	0.005537	-0.001602				179.758670	-0.699492	-39.517254
00350	1741074	0.137735	0.123446	-9.816238				-0.002743	0.002228	-0.004292				179.759799	-0.699886	-39.516748
00351	1741124	0.145078	0.122770	-9.832094				-0.002613	0.005798	0.000606				179.759052	-0.701548	-39.516906
00352	1741174	0.126965	0.131349	-9.829844				-0.005240	0.000255	0.000008				179.759481	-0.701382	-39.517630
00353	1741224	0.148756	0.088185	-9.797357				-0.005386	0.001698	-0.003643				179.757926	-0.701864	-39.516589
00354	1741274	0.148779	0.104616	-9.825395				-0.007407	0.002895	-0.001901				179.757727	-0.702452	-39.516730
00355	1741324	0.153109	0.129625	-9.834056				-0.005228	-0.003368	-0.002227				179.756222	-0.701484	-39.516085
00356	1741374	0.163230	0.135808	-9.840585				-0.004850	0.003231	-0.002291				179.756752	-0.702168	-39.516133
00357	1741424	0.151754	0.124635	-9.817986				-0.004773	0.001415	-0.004928				179.755368	-0.702568	-39.514720
00358	1741474	0.143608	0.139094	-9.828736				-0.004109	0.003381	0.001526				179.756125	-0.703299	-39.515874
00359	1741524	0.138389	0.124871	-9.812653				-0.005122	0.001811	0.000370				179.754659	-0.703818	-39.515980
00360	1741574	0.140785	0.134964	-9.835190				-0.003912	0.000861	0.000390				179.755468	-0.703826	-39.516817
00361	1741624	0.130331	0.127041	-9.828909				-0.001724	0.001377	-0.003721				179.754961	-0.704216	-39.515742
00362	1741674	0.143163	0.107296	-9.825613				-0.004263	0.000787	-0.000762				179.755664	-0.704202	-39.516227
00363	1741724	0.147147	0.127832	-9.810536				-0.005717	0.001246	-0.002009				179.754019	-0.704556	-39.515647
00364	1741774	0.151700	0.118711	-9.853938				-0.003716	-0.001667	-0.004724				179.754865	-0.703834	-39.515014
00365	1741824	0.155889	0.135072	-9.847965				-0.004993	0.002617	-0.001683				179.753428	-0.704581	-39.514526
00366	1741874	0.153347	0.124164	-9.803622				-0.003911	0.001792	-0.003038				179.754227	-0.704852	-39.514372
00367	1741924	0.142100	0.119649	-9.830158				-0.003512	-0.000755	-0.002541				179.753212	-0.704632	-39.513642
00368	1741974	0.134531	0.136093	-9.810953				-0.002459	0.004095	0.003804				179.754448	-0.705571	-39.515465
00369	1742024	0.148702	0.105525	-9.830667				-0.005741	-0.001020	-0.000577				179.752801	-0.705278	-39.515306
00370	1742074	0.138778	0.130567	-9.807625				-0.000669	0.000626	-0.001287				179.754532	-0.705217	-39.515638
00371	1742124	0.147399	0.128492	-9.816052				-0.003190	0.001554	0.000104				179.753619	-0.705663	-39.515657
00372	1742174	0.142861	0.114240	-9.797094				-0.005964	-0.001154	-0.002147				179.753828	-0.705091	-39.515747
00373	1742224	0.126060	0.134439	-9.811153				-0.007182	0.000930	-0.000722				179.751768	-0.705356	-39.515536
00374	1742274	0.156227	0.118739	-9.832146				-0.006751	0.000519	-0.000662				179.751755	-0.705266	-39.516078
00375	1742324	0.148674	0.123879	-9.848889				-0.006178	-0.004383	0.001588				179.749991	-0.704012	-39.516543
00376	1742374	0.159864	0.116416	-9.824978				-0.002030	-0.003155	-0.001850				179.751326	-0.702867	-39.516707
00377	1742424	0.164887	0.110682	-9.811104				-0.003967	-0.002339	0.001398				179.750195	-0.702199	-39.517117
00378	1742474	0.140841	0.121682	-9.810262				-0.003820	0.002118	-0.001563				179.751019	-0.702566	-39.517374
00379	1742524	0.154410	0.119964	-9.825673				-0.002880	-0.001155	0.002080				179.750201	-0.702238	-39.517967
00380	1742574	0.141839	0.123867	-9.828006				-0.003341	0.001933	-0.002207				179.751159	-0.702550	-39.518054
00381	1742624	0.142612	0.117160	-9.834717				-0.002726	0.000873	-0.001764				179.750372	-0.702798	-39.517546
00382	1742674	0.151125	0.122805	-9.828531				-0.003195	0.000319	-0.001732				179.751375	-0.702649	-39.517772
00383	1742724	0.154827	0.120795	-9.846520				-0.002763	0.001041	0.000224				179.750584	-0.702947	-39.517831
00384	1742774	0.143327	0.132417	-9.828018				-0.003064	-0.000679	-0.001223				179.751626	-0.702513	-39.518192
00385	1742824	0.148771	0.123061	-9.830426				-0.002095	0.003574	0.000558				179.751028	-0.703538	-39.518348
00386	1742874	0.134803	0.125800	-9.820296				-0.001518	0.000290	0.000415				179.752517	-0.703383	-39.519179
00387	1742924	0.152813	0.125666	-9.838841				-0.004676	0.000783	0.001003				179.751180	-0.703608	-39.519460
00388	1742974	0.138479	0.133178	-9.815289				-0.004350	-0.001477	0.000988				179.751861	-0.702948	-39.520469
00389	1743024	0.144557	0.128737	-9.816280				-0.004449	0.002723	-0.000944				179.750583	-0.703727	-39.520188
00390	1743074	0.145181	0.146211	-9.808136				-0.005091	0.000676	-0.000536				179.751046	-0.703682	-39.520760
00391	1743124	0.133936	0.131765	-9.806399				-0.001178	-0.001482	-0.000174				179.750707	-0.703257	-39.520709
00392	1743174	0.181266	0.110291	-9.821492				-0.003826	0.002083	-0.002526				179.751524	-0.703612	-39.520708
00393	1743224	0.163317	0.115905	-9.826192				-0.006389	0.000200	-0.000314				179.749693	-0.703669	-39.520617
00394	1743274	0.141954	0.102856	-9.837345				-0.002448	0.001911	-0.004292				179.750897	-0.703973	-39.520110
00395	1743324	0.149110	0.132082	-9.832840				-0.002414	0.000035	-0.003310				179.750194	-0.703978	-39.519159
00396	1743374	0.155883	0.127696	-9.841978				-0.007634	-0.000080	-0.002011				179.749922	-0.703715	-39.519320
00397	1743424	0.155028	0.125861	-9.827592				-0.001162	-0.001605	0.004125				179.749603	-0.703260	-39.520512
00398	1743474	0.150952	0.115718	-9.830928				-0.003848	-0.000276	-0.002248				179.750413	-0.702940	-39.520557
00399	1743524	0.140181	0.123698	-9.845732				-0.005466	-0.000922	-0.003558				179.748834	-0.702671	-39.519541
00400	1743574	0.148363	0.139600	-9.808151				-0.002537	-0.000054	-0.000934				179.750024	-0.702416	-39.519988
00401	1743624	0.148694	0.127518	-9.813179				-0.002463	0.005694	-0.003502				179.749306	-0.704043	-39.518981
00402	1743674	0.149359	0.104829	-9.815581				-0.003911	0.000691	-0.002982				179.750094	-0.703999	-39.518830
00403	1743724	0.140841	0.115628	-9.814336				-0.003281	-0.000811	-0.000039				179.749154	-0.703767	-39.518813
00404	1743774	0.157094	0.131220	-9.806039				0.000693	-0.000171	-0.005499				179.751253	-0.703473	-39.517966
00405	1743824	0.138596	0.125468	-9.811456				-0.001681	0.002488	0.001100				179.750775	-0.704187	-39.518267
00406	1743874	0.156051	0.103238	-9.802908				-0.003111	0.004039	-0.001360				179.751798	-0.705105	-39.518612
00407	1743924	0.139712	0.118686	-9.832306				-0.002741	-0.001036	-0.003115				179.751002	-0.704804	-39.517719
00408	1743974	0.156100	0.119038	-9.828067				-0.001355	-0.001035	-0.000878				179.752528	-0.704268	-39.518186
00409	1744024	0.153268	0.121341	-9.831899				-0.007914	0.000751	-0.002357				179.750253	-0.704480	-39.517515
00410	1744074	0.132555	0.142243	-9.809992				-0.002915	-0.003259	0.000881				179.751338	-0.703310	-39.518474
00411	1744124	0.138861	0.108918	-9.814321				-0.002828	0.000969	-0.002535				179.750519	-0.703585	-39.517740
00412	1744174	0.157531	0.117007	-9.815143				-0.003200	0.000574	-0.002986				179.751507	-0.703508	-39.517603
00413	1744224	0.129173	0.124988	-9.835367				-0.001282	-0.000456	-0.002731				179.751130	-0.703373	-39.516816
00414	1744274	0.141160	0.111750	-9.816733				0.000729	-0.000066	-0.002258				179.753247	-0.703114	-39.516896
00415	1744324	0.140904	0.131631	-9.804039				-0.003860	0.003442	-0.000174				179.752141	-0.704100	-39.516834
00416	1744374	0.140990	0.116910	-9.803553				-0.004777	-0.001359	-0.002889				179.752679	-0.703469	-39.516705
00417	1744424	0.160410	0.122589	-9.832412				-0.005027	-0.000454	-0.000484				179.751237	-0.703339	-39.516574
00418	1744474	0.144602	0.131213	-9.838798				-0.003542	-0.001917	-0.001936				179.752131	-0.702549	-39.516701
00419	1744524	0.122376	0.147246	-9.820483				-0.002242	-0.000248	-0.001770				179.751483	-0.702476	-39.516192
00420	1744574	0.144715	0.129887	-9.813646				-0.003456	-0.000233	-0.000546				179.752406	-0.702170	-39.516757
00421	1744624	0.141039	0.116788	-9.841660				-0.003777	0.001537	-0.002205				179.751316	-0.702608	-39.516128
00422	1744674	0.139205	0.127113	-9.831348				-0.006820	0.001845	0.000629				179.751278	-0.702899	-39.517006
00423	1744724	0.135372	0.133136	-9.820786				-0.000716	-0.002194	-0.003099				179.751062	-0.702267	-39.516119
00424	1744774	0.138235	0.123661	-9.812407				-0.005096	0.002641	-0.004151				179.751502	-0.702781	-39.515644
00425	1744824	0.145543	0.131248	-9.830900				0.000282	0.001733	-0.003562				179.751570	-0.703273	-39.514625
00426	1744874	0.160932	0.118692	-9.832656				-0.001385	-0.000127	-0.000073				179.753089	-0.702998	-39.515306
00427	1744924	0.158016	0.125212	-9.841746				-0.002676	-0.001067	-0.004662				179.752306	-0.702686	-39.513970
00428	1744974	0.156150	0.116385	-9.828788				0.000534	-0.000100	-0.002453				179.754364	-0.702417	-39.513992
00429	1745024	0.142980	0.137033	-9.825377				-0.000560	-0.001896	-0.001495				179.754199	-0.701872	-39.513567
00430	1745074	0.136770	0.122758	-9.821508				-0.003237	-0.000429	-0.003722				179.755174	-0.701506	-39.513218
00431	1745124	0.142012	0.124189	-9.833044				-0.003432	-0.000268	-0.001800				179.754184	-0.701427	-39.512704
00432	1745174	0.135733	0.133641	-9.833722				-0.003095	-0.001650	-0.000525				179.755208	-0.700716	-39.513268
00433	1745224	0.121035	0.138411	-9.844437				-0.004635	0.001491	-0.001942				179.753874	-0.701141	-39.512715
00434	1745274	0.130815	0.131286	-9.793201				-0.004095	0.002795	0.000085				179.754615	-0.701704	-39.513437
00435	1745324	0.135480	0.138150	-9.829418				-0.005724	0.001736	0.001233				179.752979	-0.702203	-39.513782
00436	1745374	0.142577	0.111995	-9.823449				-0.004636	-0.001878	-0.003791				179.753549	-0.701422	-39.513439
00437	1745424	0.147747	0.109281	-9.831621				-0.001244	0.000743	-0.000834				179.753189	-0.701634	-39.513197
00438	1745474	0.141350	0.120988	-9.821293				-0.004011	0.000919	-0.001120				179.753948	-0.701658	-39.513593
00439	1745524	0.123888	0.124995	-9.817854				-0.005352	0.000864	-0.001306				179.752410	-0.701904	-39.513218
00440	1745574	0.140236	0.130979	-9.815301				-0.000498	0.002568	0.001129				179.754184	-0.702403	-39.514251
00441	1745624	0.138835	0.124995	-9.803302				-0.006905	0.001357	-0.000112				179.752205	-0.702791	-39.514216
00442	1745674	0.169453	0.092412	-9.839877				-0.002655	0.001721	-0.000603				179.753353	-0.703046	-39.514770
00443	1745724	0.140789	0.118457	-9.817698				-0.001481	-0.001236	-0.001775				179.752922	-0.702690	-39.514264
00444	1745774	0.158469	0.108424	-9.826407				-0.002991	-0.000001	-0.002217				179.753968	-0.702449	-39.514319
00445	1745824	0.152251	0.137023	-9.837882				-0.005169	0.003129	-0.002258				179.752479	-0.703343	-39.513665
00446	1745874	0.146454	0.136221	-9.826117				-0.001862	0.002798	-0.003613				179.753844	-0.703902	-39.513328
00447	1745924	0.143501	0.139291	-9.825138				-0.003327	0.000537	-0.002179				179.752883	-0.704053	-39.512704
00448	1745974	0.145162	0.139488	-9.816999				-0.005605	0.001964	0.000276				179.753186	-0.704378	-39.513479
00449	1746024	0.145574	0.126498	-9.826107				-0.004236	0.000176	0.001160				179.751976	-0.704430	-39.513809
00450	1746074	0.149733	0.121770	-9.808389				-0.001036	-0.001804	0.000173				179.753588	-0.703676	-39.514580
00451	1746124	0.145461	0.116256	-9.857736				-0.001585	0.001860	-0.005382				179.753115	-0.704203	-39.513035
00452	1746174	0.158434	0.114156	-9.802210				-0.000980	0.000259	-0.002060				179.754735	-0.704037	-39.513155
00453	1746224	0.144966	0.116554	-9.839519				-0.004295	-0.002351	-0.000877				179.753502	-0.703362	-39.512909
00454	1746274	0.134675	0.119825	-9.816467				-0.002409	0.001819	-0.001051				179.754717	-0.703645	-39.513297
00455	1746324	0.158117	0.101828	-9.810344				-0.005567	-0.000526	-0.000543				179.753120	-0.703493	-39.513140
00456	1746374	0.157932	0.124997	-9.824492				-0.004292	-0.001222	0.000476				179.753800	-0.702906	-39.513986
00457	1746424	0.136592	0.135436	-9.813125				-0.002487	0.001334	-0.001889				179.753081	-0.703286	-39.513445
00458	1746474	0.146185	0.128691	-9.807420				-0.005432	0.002247	-0.003417				179.753419	-0.703688	-39.513180
00459	1746524	0.144886	0.136950	-9.838084				-0.003824	0.003313	-0.000720				179.752321	-0.704636	-39.512973
00460	1746574	0.144452	0.104286	-9.839272				-0.000035	-0.000305	-0.001201				179.754213	-0.704310	-39.513335
00461	1746624	0.147735	0.123623	-9.822528				-0.003328	0.000509	-0.002597				179.753250	-0.704452	-39.512584
00462	1746674	0.147058	0.127442	-9.807183				-0.003021	-0.001132	-0.002382				179.754282	-0.703888	-39.512605
00463	1746724	0.139867	0.138089	-9.825121				-0.005886	-0.001537	-0.000257				179.752595	-0.703447	-39.512540
00464	1746774	0.130891	0.115612	-9.817882				-0.006748	-0.000675	-0.000573				179.752567	-0.703016	-39.513086
00465	1746824	0.156290	0.119350	-9.821847				-0.005905	0.001181	0.000460				179.750877	-0.703354	-39.513216
00466	1746874	0.136605	0.144771	-9.809050				-0.006995	-0.001848	-0.000290				179.750777	-0.702587	-39.513845
00467	1746924	0.131185	0.138162	-9.824601				-0.003242	0.002162	0.000362				179.749850	-0.703207	-39.513938
00468	1746974	0.134102	0.109006	-9.815745				-0.006946	0.002813	-0.000713				179.749763	-0.703774	-39.514450
00469	1747024	0.140790	0.140406	-9.836872				-0.004783	0.003906	-0.003469				179.748380	-0.704889	-39.513440
00470	1747074	0.146341	0.119499	-9.832102				-0.003580	-0.001626	-0.001357				179.749253	-0.704184	-39.513786
00471	1747124	0.134439	0.125339	-9.833480				-0.004984	0.000156	-0.002978				179.747815	-0.704225	-39.512926
00472	1747174	0.127519	0.134712	-9.809246				-0.000418	0.001753	-0.004490				179.749584	-0.704485	-39.512348
00473	1747224	0.152041	0.120311	-9.819189				-0.002807	0.001261	-0.002916				179.748769	-0.704842	-39.511510
00474	1747274	0.149114	0.135013	-9.833796				-0.005501	0.001604	-0.000438				179.749095	-0.705064	-39.512095
00475	1747324	0.151657	0.119220	-9.843624				-0.000823	-0.000677	-0.001680				179.748853	-0.704868	-39.511611
00476	1747374	0.138156	0.128491	-9.817919				-0.005715	0.001283	-0.000339				179.749117	-0.704997	-39.512204
00477	1747424	0.123278	0.133213	-9.814253				-0.004030	0.001862	0.001396				179.747968	-0.705532	-39.512599
00478	1747474	0.133562	0.128116	-9.812145				-0.006122	0.001017	0.000752				179.748120	-0.705587	-39.513532
00479	1747524	0.150811	0.114836	-9.834755				-0.003882	0.001890	-0.001177				179.747003	-0.706128	-39.513186
00480	1747574	0.161929	0.099851	-9.834817				-0.004692	0.000165	-0.000931				179.747559	-0.705936	-39.513634
00481	1747624	0.143460	0.110810	-9.811953				-0.004641	-0.001452	-0.000710				179.746227	-0.705519	-39.513435
00482	1747674	0.140817	0.112026	-9.803545				-0.007857	-0.000989	-0.000925				179.745876	-0.704997	-39.513888
00483	1747724	0.159466	0.116177	-9.826175				-0.000610	0.000454	-0.004274				179.745687	-0.705122	-39.512664
00484	1747774	0.137792	0.142641	-9.802583				-0.001764	-0.002404	-0.002616				179.747074	-0.704192	-39.512616
00485	1747824	0.142615	0.131261	-9.822255				-0.006598	-0.000390	-0.001566				179.745178	-0.704079	-39.512172
00486	1747874	0.140175	0.132909	-9.816494				-0.003020	0.002036	-0.001467				179.746205	-0.704423	-39.512446
00487	1747924	0.138131	0.147056	-9.839737				-0.005183	-0.002627	-0.001197				179.744716	-0.703669	-39.512108
00488	1747974	0.161535	0.129413	-9.830263				-0.003754	0.000989	0.000357				179.745542	-0.703716	-39.512918
00489	1748024	0.144399	0.131968	-9.828736				-0.003435	0.001094	-0.000702				179.744555	-0.704029	-39.512714
00490	1748074	0.139706	0.118327	-9.820565				-0.004601	0.002531	-0.000397				179.745136	-0.704516	-39.513293
00491	1748124	0.138650	0.144244	-9.813139				-0.004273	0.002206	-0.001784				179.743905	-0.705146	-39.512779
00492	1748174	0.160588	0.124219	-9.817319				-0.004650	0.001941	-0.001784				179.744467	-0.705463	-39.512977
00493	1748224	0.158558	0.117482	-9.832159				-0.002891	-0.002063	0.000852				179.743642	-0.704873	-39.513231
00494	1748274	0.135218	0.148138	-9.808569				-0.001672	0.002930	-0.002391				179.745054	-0.705472	-39.513259
00495	1748324	0.146661	0.138944	-9.833301				-0.003900	0.001602	0.000075				179.743937	-0.705931	-39.513284
00496	1748374	0.152659	0.119924	-9.809847				-0.002618	-0.000738	-0.001961				179.745079	-0.705480	-39.513414
00497	1748424	0.158057	0.116831	-9.822332				-0.001873	0.000344	0.000414				179.744544	-0.705579	-39.513526
00498	1748474	0.126488	0.120004	-9.834158				-0.002947	0.003749	-0.000944				179.745595	-0.706415	-39.513962
00499	1748524	0.143347	0.112928	-9.818667				-0.005674	0.000661	-0.003839				179.743956	-0.706599	-39.512854
00500	1748574	0.147396	0.128826	-9.821327				-0.003956	-0.000861	-0.002766				179.744711	-0.706112	-39.512798
00501	1748624	0.131786	0.130447	-9.830588				-0.002489	0.003335	-0.003094				179.743987	-0.707063	-39.511907
00502	1748674	0.146795	0.114460	-9.811495				-0.004817	-0.000936	-0.000743				179.744501	-0.706558	-39.512418
00503	1748724	0.155930	0.105651	-9.805308				-0.001568	0.000971	0.002724				179.744061	-0.706839	-39.513189
00504	1748774	0.142330	0.115113	-9.827046				-0.003554	-0.001535	-0.003155				179.744928	-0.706158	-39.513005
00505	1748824	0.137961	0.111030	-9.823191				-0.004684	0.003106	-0.001906				179.743579	-0.707046	-39.512451
00506	1748874	0.131331	0.137548	-9.809505				-0.006822	0.002908	-0.001289				179.743515	-0.707640	-39.512795
00507	1748924	0.150728	0.127849	-9.812480				-0.004943	0.000868	-0.003615				179.742086	-0.707885	-39.511755
00508	1748974	0.139899	0.123962	-9.819847				-0.004553	0.001879	-0.001910				179.742672	-0.708183	-39.511899
00509	1749024	0.130330	0.110445	-9.821229				0.002024	0.003909	0.001839				179.743258	-0.709305	-39.512415
00510	1749074	0.148141	0.118991	-9.805027				0.001227	0.000657	-0.000394				179.745504	-0.709256	-39.513027
00511	1749124	0.146490	0.111123	-9.796395				-0.002783	0.000422	-0.003271				179.744695	-0.709373	-39.512086
00512	1749174	0.143032	0.128325	-9.822980				-0.002491	-0.001376	0.000952				179.745880	-0.708743	-39.513065
00513	1749224	0.148813	0.128291	-9.836906				-0.000717	-0.003034	-0.001181				179.745671	-0.707872	-39.512734
00514	1749274	0.160895	0.123832	-9.829536				0.000776	0.000621	-0.000845				179.747785	-0.707812	-39.513192
00515	1749324	0.134667	0.128417	-9.809279				-0.001592	0.000015	-0.005141				179.747311	-0.707810	-39.511717
00516	1749374	0.136785	0.118749	-9.821987				-0.004966	-0.001129	0.000322				179.747784	-0.707250	-39.512533
00517	1749424	0.148306	0.102802	-9.826836				-0.004392	0.002887	-0.001559				179.746520	-0.708075	-39.512081
00518	1749474	0.156119	0.118552	-9.821606				-0.006719	0.000555	0.000461				179.746493	-0.707998	-39.512917
00519	1749524	0.134184	0.133095	-9.811673				-0.005415	0.000193	0.003379				179.744953	-0.708057	-39.513885
00520	1749574	0.135632	0.129026	-9.809522				-0.005451	-0.000306	-0.002819				179.745275	-0.707729	-39.513767
00521	1749624	0.130373	0.127822	-9.839454				-0.005903	0.000215	0.001613				179.743590	-0.707793	-39.514227
00522	1749674	0.135822	0.140579	-9.829180				-0.000658	-0.001603	0.000014				179.745295	-0.707097	-39.514954
00523	1749724	0.135343	0.121534	-9.831085				-0.006004	-0.004158	-0.002196				179.743568	-0.705903	-39.514328
00524	1749774	0.141899	0.133346	-9.826567				-0.003193	-0.000750	-0.002762				179.744535	-0.705448	-39.514255
00525	1749824	0.148330	0.115136	-9.829473				-0.001562	0.000574	-0.000421				179.744086	-0.705612	-39.514130
00526	1749874	0.130725	0.138675	-9.820221				-0.005487	-0.000691	0.001292				179.744412	-0.705179	-39.515215
00527	1749924	0.148852	0.135325	-9.832975				-0.002781	-0.000293	-0.000089				179.743615	-0.705095	-39.515188
00528	1749974	0.143349	0.142207	-9.838705				-0.004181	0.000290	-0.001751				179.744302	-0.704939	-39.515394
00529	1750024	0.135395	0.125608	-9.813014				-0.004260	0.001709	-0.003801				179.743068	-0.705423	-39.514304
00530	1750074	0.151867	0.128489	-9.827956				-0.005706	-0.000255	-0.003546				179.743313	-0.705109	-39.513992
00531	1750124	0.154268	0.125491	-9.832758				-0.004506	-0.000621	-0.002528				179.742013	-0.704928	-39.513268
00532	1750174	0.160753	0.120096	-9.824642				-0.001100	-0.000015	-0.004070				179.743575	-0.704682	-39.512817
00533	1750224	0.136067	0.143665	-9.816619				-0.002422	-0.000651	-0.003240				179.742869	-0.704491	-39.511886
00534	1750274	0.147355	0.129493	-9.839196				-0.002459	0.000551	-0.001367				179.744050	-0.704411	-39.512182
00535	1750324	0.151174	0.107539	-9.826506				-0.004391	-0.000931	0.001899				179.742799	-0.704147	-39.512718
00536	1750374	0.134382	0.141947	-9.859026				-0.002181	-0.001224	-0.000963				179.744062	-0.703558	-39.513156
00537	1750424	0.146420	0.126803	-9.829845				-0.005408	0.001460	-0.003826				179.742499	-0.703972	-39.512061
00538	1750474	0.149030	0.127979	-9.832973				-0.004299	0.002135	-0.001134				179.743153	-0.704345	-39.512434
00539	1750524	0.144476	0.116509	-9.845163				-0.004479	-0.001554	-0.001633				179.741865	-0.703898	-39.511967
00540	1750574	0.155676	0.096768	-9.831799				-0.003339	0.002187	0.001205				179.742801	-0.704289	-39.513032
00541	1750624	0.152084	0.112077	-9.831307				-0.002824	0.001568	-0.005468				179.741973	-0.704731	-39.511458
00542	1750674	0.131251	0.138744	-9.821624				-0.004831	0.002637	-0.002958				179.742468	-0.705246	-39.511319
00543	1750724	0.142666	0.111346	-9.819041				-0.004605	0.000477	-0.001170				179.741144	-0.705381	-39.510989
00544	1750774	0.124779	0.106930	-9.835246				-0.006547	0.001957	-0.004559				179.741142	-0.705699	-39.510372
00545	1750824	0.160267	0.100842	-9.827278				-0.006004	0.000132	-0.002038				179.739414	-0.705735	-39.509788
00546	1750874	0.155959	0.120638	-9.834920				-0.000183	-0.001712	-0.003828				179.741235	-0.705003	-39.509385
00547	1750924	0.135600	0.119493	-9.836981				0.000007	0.000856	0.001193				179.741242	-0.705249	-39.509726
00548	1750974	0.154047	0.118378	-9.822212				-0.002572	-0.000170	-0.002365				179.742386	-0.704961	-39.509756
00549	1751024	0.144118	0.129867	-9.810903				-0.000805	0.000767	-0.004359				179.742140	-0.705175	-39.508503
00550	1751074	0.166962	0.133963	-9.826833				-0.000192	-0.000588	-0.006295				179.743949	-0.704762	-39.507408
00551	1751124	0.148803	0.127503	-9.847112				-0.003701	-0.002134	-0.005522				179.742869	-0.704144	-39.505822
00552	1751174	0.149948	0.126926	-9.810207				-0.003580	-0.004741	-0.001591				179.743724	-0.702548	-39.506091
00553	1751224	0.163452	0.121320	-9.808362				-0.002030	-0.000963	-0.001320				179.743138	-0.702270	-39.505712
00554	1751274	0.125457	0.130663	-9.839088				-0.002994	0.001418	-0.000462				179.744166	-0.702439	-39.506276
00555	1751324	0.122113	0.137375	-9.810786				-0.007234	-0.000344	-0.001458				179.742088	-0.702338	-39.505868
00556	1751374	0.162396	0.125487	-9.831847				-0.002451	0.001961	-0.006270				179.743250	-0.702655	-39.504769
00557	1751424	0.147548	0.127191	-9.821700				-0.005522	0.001007	-0.003672				179.741655	-0.702939	-39.503708
00558	1751474	0.159373	0.112368	-9.825114				-0.004531	-0.000041	-0.004129				179.742228	-0.702686	-39.503256
00559	1751524	0.146839	0.119891	-9.822894				-0.001740	-0.001366	0.004233				179.741745	-0.702300	-39.504472
00560	1751574	0.162407	0.109266	-9.811229				-0.000074	-0.000158	-0.003113				179.743596	-0.702014	-39.504304
00561	1751624	0.148998	0.123152	-9.828656				-0.001553	0.000376	0.000041				179.743151	-0.702122	-39.504317
00562	1751674	0.127836	0.134662	-9.807704				-0.003602	0.000069	-0.003713				179.743991	-0.701901	-39.503964
00563	1751724	0.131851	0.144146	-9.798862				-0.004026	-0.002350	0.000479				179.742839	-0.701228	-39.504109
00564	1751774	0.144096	0.128039	-9.812098				-0.002138	0.000656	0.000237				179.744111	-0.701180	-39.504875
00565	1751824	0.148066	0.113644	-9.837761				-0.004154	0.001689	0.001272				179.742925	-0.701666	-39.505238
00566	1751874	0.151356	0.119291	-9.821959				-0.003027	-0.004120	-0.003832				179.743928	-0.700244	-39.504862
00567	1751924	0.148326	0.117262	-9.804444				-0.000922	0.001805	0.000301				179.743665	-0.700762	-39.504942
00568	1751974	0.131326	0.139016	-9.821626				-0.003807	-0.001415	-0.001664				179.744452	-0.700118	-39.505196
00569	1752024	0.152945	0.105704	-9.799437				-0.003467	0.001113	-0.000887				179.743456	-0.700436	-39.504935
00570	1752074	0.151061	0.130631	-9.820761				-0.002628	0.000869	-0.000951				179.744581	-0.700447	-39.505349
00571	1752124	0.147435	0.118298	-9.786946				-0.005586	0.000337	0.000980				179.742984	-0.700545	-39.505628
00572	1752174	0.135118	0.140086	-9.831228				-0.001546	0.004020	-0.003982				179.744410	-0.701455	-39.505178
00573	1752224	0.141494	0.123531	-9.836524				-0.007077	0.000329	-0.006168				179.742361	-0.701542	-39.503418
00574	1752274	0.133971	0.142334	-9.819481				-0.006341	-0.000494	-0.002810				179.742417	-0.701160	-39.503322
00575	1752324	0.163516	0.114881	-9.838319				-0.000899	-0.000034	0.000896				179.742163	-0.701152	-39.503573
00576	1752374	0.140252	0.119658	-9.835565				-0.003583	-0.001379	0.000162				179.743018	-0.700520	-39.504326
00577	1752424	0.149052	0.109243	-9.800853				-0.003364	0.000860	-0.000724				179.742052	-0.700766	-39.504111
00578	1752474	0.149504	0.126820	-9.834414				-0.003292	-0.000896	-0.005769				179.742969	-0.700265	-39.503157
00579	1752524	0.149276	0.134811	-9.811404				-0.004007	-0.000255	-0.002077				179.741814	-0.700190	-39.502555
00580	1752574	0.137578	0.121079	-9.817342				-0.000694	0.000419	-0.001631				179.743491	-0.700071	-39.502801
00581	1752624	0.164113	0.109440	-9.807156				-0.001162	0.001022	-0.001853				179.743151	-0.700361	-39.502263
00582	1752674	0.151375	0.109246	-9.817643				-0.000600	0.002287	-0.005443				179.744841	-0.700773	-39.501422
00583	1752724	0.156933	0.121559	-9.821019				-0.002721	0.000639	-0.003392				179.744049	-0.700952	-39.500455
00584	1752774	0.144730	0.120350	-9.813538				-0.006808	0.001083	-0.003215				179.743966	-0.701022	-39.500243
00585	1752824	0.149391	0.115234	-9.833930				-0.006726	-0.000668	-0.005857				179.742018	-0.700823	-39.498564
00586	1752874	0.115667	0.141472	-9.825860				-0.003894	-0.000937	-0.004869				179.742766	-0.700313	-39.497882
00587	1752924	0.169695	0.118536	-9.811978				-0.007647	-0.000678	-0.003385				179.740563	-0.700114	-39.496920
00588	1752974	0.143435	0.120278	-9.825749				-0.004826	0.002377	-0.002348				179.741050	-0.700557	-39.496956
00589	1753024	0.156459	0.126634	-9.815756				-0.003964	-0.002978	-0.004720				179.739898	-0.699697	-39.495609
00590	1753074	0.136975	0.114944	-9.824045				-0.005035	-0.002115	-0.001089				179.740331	-0.698854	-39.496003
00591	1753124	0.155926	0.127031	-9.834682				0.000153	0.001784	-0.004257				179.740360	-0.699359	-39.494780
00592	1753174	0.149622	0.128812	-9.821470				-0.003461	-0.000216	-0.001822				179.741239	-0.699059	-39.494955
00593	1753224	0.150005	0.124063	-9.818119				-0.007068	0.003407	-0.002401				179.739206	-0.700032	-39.494271
00594	1753274	0.152094	0.123370	-9.818363				-0.004879	0.000054	-0.001305				179.739681	-0.699810	-39.494616
00595	1753324	0.147291	0.107370	-9.819777				-0.003739	0.001395	-0.003099				179.738599	-0.700206	-39.493718
00596	1753374	0.124561	0.128660	-9.819192				-0.003152	-0.001954	-0.002021				179.739566	-0.699407	-39.493845
00597	1753424	0.138053	0.122471	-9.803920				-0.005255	0.003890	-0.002979				179.738050	-0.700518	-39.492984
00598	1753474	0.146881	0.132939	-9.843024				-0.006295	0.001160	-0.002736				179.738113	-0.700611	-39.492901
00599	1753524	0.167515	0.113296	-9.818927				-0.004470	0.001416	-0.001942				179.736825	-0.701015	-39.492339
00600	1753574	0.132941	0.131605	-9.819950				-0.002610	0.002186	-0.004186				179.737939	-0.701400	-39.491843
00601	1753624	0.130444	0.117231	-9.812509				-0.003086	0.001417	0.000594				179.737057	-0.701807	-39.492004
00602	1753674	0.153648	0.121269	-9.834435				-0.007572	0.002072	-0.002601				179.736754	-0.702161	-39.491981
00603	1753724	0.157261	0.119013	-9.834689				0.000392	0.000537	-0.002087				179.736859	-0.702312	-39.491386
00604	1753774	0.135654	0.122797	-9.809660				-0.005260	0.001085	-0.000364				179.737227	-0.702387	-39.491967
00605	1753824	0.150520	0.133047	-9.808777				-0.003034	0.002443	-0.004310				179.736342	-0.703081	-39.490731
00606	1753874	0.134156	0.116480	-9.821155				-0.002883	-0.004404	-0.002005				179.737386	-0.701581	-39.490861
00607	1753924	0.144564	0.133011	-9.822405				-0.002663	0.001197	0.000976				179.736627	-0.701925	-39.491146
00608	1753974	0.149578	0.127782	-9.832253				-0.003401	0.002181	-0.001489				179.737521	-0.702312	-39.491403
00609	1754024	0.137016	0.133455	-9.824764				-0.005263	0.001082	-0.000811				179.736011	-0.702621	-39.491172
00610	1754074	0.140324	0.135751	-9.827658				-0.006649	0.000279	-0.001875				179.735974	-0.702462	-39.491362
00611	1754124	0.155834	0.114542	-9.830127				-0.004251	0.000320	-0.003134				179.734745	-0.702550	-39.490463
00612	1754174	0.154653	0.106748	-9.820773				-0.002522	-0.000750	-0.003272				179.735884	-0.702095	-39.490234
00613	1754224	0.137602	0.131980	-9.811106				-0.002987	-0.000983	-0.001343				179.735023	-0.701812	-39.489847
00614	1754274	0.134123	0.127640	-9.807970				-0.002043	0.000516	-0.004164				179.736299	-0.701718	-39.489353
00615	1754324	0.139457	0.121906	-9.847059				-0.004070	0.001945	-0.001229				179.735128	-0.702274	-39.488993
00616	1754374	0.136365	0.127324	-9.829555				-0.005665	-0.000413	-0.001042				179.735375	-0.701918	-39.489417
00617	1754424	0.137080	0.127191	-9.824758				-0.002118	-0.000190	-0.002658				179.734759	-0.701860	-39.488651
00618	1754474	0.150657	0.139559	-9.822679				-0.006975	-0.000302	0.001556				179.734639	-0.701540	-39.489811
00619	1754524	0.163979	0.109864	-9.827537				-0.004462	0.001898	-0.003864				179.733347	-0.702079	-39.488698
00620	1754574	0.137408	0.131181	-9.816618				-0.004487	0.000837	-0.001490				179.733927	-0.702081	-39.488949
00621	1754624	0.153066	0.122773	-9.830355				-0.003520	-0.000309	-0.000890				179.732916	-0.701992	-39.488688
00622	1754674	0.146049	0.111699	-9.825283				-0.002673	-0.001653	0.000925				179.734025	-0.701283	-39.489679
00623	1754724	0.134028	0.131647	-9.800545				-0.005961	-0.001495	-0.005253				179.732299	-0.700848	-39.488164
00624	1754774	0.122884	0.130750	-9.832126				-0.004341	0.003491	-0.000385				179.732926	-0.701612	-39.488750
00625	1754824	0.148625	0.115638	-9.814035				-0.005523	0.001436	0.000375				179.731345	-0.702024	-39.488851
00626	1754874	0.151913	0.112948	-9.825559				-0.004036	-0.002223	0.000674				179.732063	-0.701153	-39.489758
00627	1754924	0.123238	0.131621	-9.825650				-0.004400	0.001194	-0.001390				179.730798	-0.701493	-39.489351
00628	1754974	0.146078	0.117329	-9.840145				-0.002167	-0.000675	-0.002019				179.732042	-0.701061	-39.489499
00629	1755024	0.142604	0.120528	-9.809694				-0.006393	0.003520	-0.001535				179.730205	-0.702067	-39.489048
00630	1755074	0.156840	0.127016	-9.822709				-0.004452	-0.000158	0.000070				179.730799	-0.701788	-39.489780
00631	1755124	0.144441	0.108109	-9.826471				-0.002201	0.000516	-0.003074				179.730158	-0.701931	-39.488896
00632	1755174	0.135862	0.131499	-9.830033				-0.000721	0.001925	-0.006146				179.731799	-0.702239	-39.487857
00633	1755224	0.139276	0.131762	-9.811596				-0.002218	-0.001099	-0.002726				179.731154	-0.701921	-39.487081
00634	1755274	0.144296	0.123470	-9.809938				-0.001119	0.004734	-0.003985				179.732689	-0.703036	-39.486640
00635	1755324	0.153181	0.126339	-9.814067				-0.004055	0.000558	0.000369				179.731528	-0.703196	-39.486739
00636	1755374	0.149539	0.126109	-9.835851				-0.002092	0.000139	-0.000639				179.732797	-0.702999	-39.487263
00637	1755424	0.163711	0.127600	-9.825381				-0.003265	-0.001275	0.000192				179.731862	-0.702635	-39.487317
00638	1755474	0.138503	0.110076	-9.829081				-0.004599	0.001155	-0.003926				179.732401	-0.702724	-39.486910
00639	1755524	0.134797	0.122541	-9.797905				-0.002253	-0.000772	-0.001378				179.731751	-0.702501	-39.486517
00640	1755574	0.142644	0.133746	-9.822877				-0.005347	-0.001314	-0.000989				179.732084	-0.701888	-39.486932
00641	1755624	0.127868	0.116527	-9.816565				-0.002393	-0.000450	0.000326				179.731399	-0.701760	-39.487029
00642	1755674	0.138040	0.130363	-9.822376				-0.005751	0.002695	0.001892				179.731626	-0.702299	-39.488273
00643	1755724	0.142913	0.129417	-9.808496				-0.003438	0.001241	-0.000689				179.730638	-0.702653	-39.488070
00644	1755774	0.150044	0.121089	-9.828660				-0.005158	0.001795	-0.002158				179.731021	-0.702929	-39.488164
00645	1755824	0.119788	0.118074	-9.815565				-0.003804	0.002792	0.000795				179.729935	-0.703730	-39.488387
00646	1755874	0.142067	0.121675	-9.834608				-0.000290	0.003213	0.000785				179.731723	-0.704416	-39.489324
00647	1755924	0.136764	0.131434	-9.831710				-0.004690	-0.000814	0.000108				179.730379	-0.704183	-39.489358
00648	1755974	0.146295	0.122194	-9.830323				-0.002678	0.003519	-0.001194				179.731472	-0.704954	-39.489692
00649	1756024	0.152436	0.106133	-9.812612				-0.001870	-0.001030	-0.002377				179.730928	-0.704656	-39.489015
00650	1756074	0.151524	0.126070	-9.843763				-0.004175	0.000297	0.000331				179.731599	-0.704506	-39.489829
00651	1756124	0.152123	0.112087	-9.814056				-0.003281	-0.000691	-0.000058				179.730659	-0.704308	-39.489811
00652	1756174	0.143817	0.125726	-9.838460				-0.005702	0.000110	0.002388				179.730898	-0.704108	-39.491196
00653	1756224	0.150456	0.115406	-9.833220				-0.003132	0.003536	-0.004081				179.729986	-0.705115	-39.490019
00654	1756274	0.132066	0.126456	-9.829291				-0.008065	-0.001625	-0.003292				179.729530	-0.704410	-39.489788
00655	1756324	0.146342	0.133575	-9.813547				-0.002791	-0.002640	-0.007578				179.728704	-0.703643	-39.487611
00656	1756374	0.156999	0.140393	-9.843082				-0.004666	-0.000527	-0.001497				179.729225	-0.703255	-39.487902
00657	1756424	0.139648	0.126042	-9.818313				-0.005902	0.000072	-0.000112				179.727534	-0.703276	-39.487868
00658	1756474	0.131772	0.130868	-9.817067				-0.003274	0.002118	-0.000747				179.728458	-0.703646	-39.488356
00659	1756524	0.154116	0.116935	-9.824604				-0.000267	0.001975	-0.003710				179.728369	-0.704207	-39.487283
00660	1756574	0.166300	0.122946	-9.845762				-0.002187	0.000202	0.001130				179.729611	-0.704031	-39.488322
00661	1756624	0.140309	0.124591	-9.808004				-0.000767	-0.000264	-0.001448				179.729387	-0.703953	-39.487910
00662	1756674	0.138408	0.114801	-9.822128				0.000165	0.001431	-0.003712				179.731285	-0.704124	-39.487558
00663	1756724	0.147341	0.118212	-9.810198				-0.006400	0.000743	0.000246				179.729452	-0.704337	-39.487623
00664	1756774	0.143007	0.112488	-9.832701				-0.002894	0.001025	-0.003101				179.730477	-0.704391	-39.487442
00665	1756824	0.150258	0.113798	-9.816674				-0.004529	0.000155	-0.002009				179.729172	-0.704433	-39.486864
00666	1756874	0.161778	0.112435	-9.833280				-0.002457	0.000450	-0.001722				179.730325	-0.704324	-39.487081
00667	1756924	0.142439	0.131346	-9.809697				-0.002345	-0.000096	-0.002051				179.729646	-0.704294	-39.486491
00668	1756974	0.135121	0.123931	-9.795512				-0.005005	0.002154	-0.001001				179.730071	-0.704674	-39.486915
00669	1757024	0.157243	0.108451	-9.818627				-0.004590	-0.000678	0.001580				179.728762	-0.704482	-39.487369
00670	1757074	0.159450	0.117837	-9.829426				-0.003650	0.003925	-0.000935				179.729573	-0.705370	-39.487809
00671	1757124	0.140584	0.111950	-9.816871				-0.001852	0.002824	0.000212				179.729043	-0.706180	-39.487859
00672	1757174	0.135794	0.136810	-9.801996				-0.002604	-0.002041	-0.002217				179.730151	-0.705357	-39.487923
00673	1757224	0.159907	0.103529	-9.818642				-0.005574	-0.002451	-0.003371				179.728543	-0.704650	-39.486975
00674	1757274	0.153607	0.112242	-9.807830				-0.002978	0.000634	-0.003329				179.729538	-0.704593	-39.486705
00675	1757324	0.158277	0.134056	-9.829428				-0.007363	0.001691	-0.002315				179.727421	-0.705074	-39.486039
00676	1757374	0.142489	0.130238	-9.830539				-0.004491	-0.000940	0.000552				179.727998	-0.704570	-39.486907
00677	1757424	0.135603	0.132053	-9.816367				-0.000802	0.003001	-0.002131				179.727760	-0.705427	-39.486282
00678	1757474	0.141726	0.133730	-9.818317				-0.007569	0.001270	0.000702				179.727453	-0.705557	-39.487205
00679	1757524	0.145476	0.114415	-9.845656				-0.004774	0.002068	0.000761				179.726088	-0.706150	-39.487412
00680	1757574	0.150345	0.115775	-9.840163				-0.003281	-0.001920	-0.000131				179.727006	-0.705365	-39.488071
00681	1757624	0.159856	0.111034	-9.830626				-0.003729	-0.001965	-0.002186				179.725930	-0.704799	-39.487449
00682	1757674	0.140343	0.132331	-9.828617				-0.003486	-0.000274	0.000266				179.726792	-0.704486	-39.488234
00683	1757724	0.139280	0.129894	-9.822622				-0.003637	0.004767	-0.000249				179.725749	-0.705851	-39.488159
00684	1757774	0.137320	0.129006	-9.832670				-0.002728	0.000025	-0.001470				179.726823	-0.705622	-39.488463
00685	1757824	0.137543	0.128355	-9.824291				-0.000758	-0.000324	0.000351				179.726607	-0.705529	-39.488561
00686	1757874	0.134065	0.117038	-9.818041				-0.000275	0.001460	-0.000602				179.728383	-0.705712	-39.489074
00687	1757924	0.144361	0.117052	-9.823124				-0.001872	0.002203	-0.003002				179.727836	-0.706339	-39.488203
00688	1757974	0.142946	0.108469	-9.815914				-0.004870	-0.000402	-0.002846				179.728290	-0.705985	-39.488112
00689	1758024	0.149264	0.131905	-9.836810				-0.004243	0.001191	-0.003835				179.727061	-0.706321	-39.487015
00690	1758074	0.172788	0.095465	-9.832850				-0.007712	0.002456	-0.003307				179.726696	-0.706786	-39.486766
00691	1758124	0.158814	0.125046	-9.800668				-0.003706	-0.001441	0.000317				179.725636	-0.706373	-39.486857
00692	1758174	0.154157	0.133233	-9.830842				-0.003866	-0.000410	0.000200				179.726387	-0.706021	-39.487620
00693	1758224	0.140983	0.112963	-9.817590				-0.003286	-0.000492	0.000165				179.725446	-0.705881	-39.487668
00694	1758274	0.141607	0.123490	-9.823345				-0.003080	-0.001145	-0.001183				179.726415	-0.705317	-39.488028
00695	1758324	0.148716	0.125061	-9.825783				-0.004041	-0.001226	-0.001791				179.725251	-0.704963	-39.487517
00696	1758374	0.142831	0.129712	-9.827430				-0.004625	0.000122	-0.001977				179.725777	-0.704761	-39.487688
00697	1758424	0.159414	0.119478	-9.811693				-0.002953	-0.002044	-0.000232				179.724930	-0.704175	-39.487623
00698	1758474	0.160068	0.131023	-9.820806				-0.003862	-0.000676	-0.001214				179.725676	-0.703745	-39.487966
00699	1758524	0.159144	0.121539	-9.832304				0.001372	0.002973	-0.003008				179.726059	-0.704592	-39.487102
00700	1758574	0.157406	0.120414	-9.826787				-0.002574	0.000323	0.000327				179.727178	-0.704450	-39.487908
00701	1758624	0.125705	0.129948	-9.816565				-0.000991	-0.001468	-0.003403				179.726883	-0.704025	-39.486935
00702	1758674	0.134714	0.131544	-9.826669				-0.004550	0.002970	-0.000644				179.727431	-0.704641	-39.487444
00703	1758724	0.145319	0.132655	-9.832236				-0.002095	-0.002103	-0.004016				179.726817	-0.704033	-39.486295
00704	1758774	0.147548	0.125225	-9.824814				-0.001982	-0.000415	-0.000799				179.728100	-0.703678	-39.486781
00705	1758824	0.133913	0.128281	-9.813725				-0.003041	-0.000266	-0.001341				179.727224	-0.703600	-39.486402
00706	1758874	0.134553	0.125221	-9.798866				-0.006244	-0.000060	0.002202				179.727298	-0.703351	-39.487748
00707	1758924	0.158569	0.131206	-9.813369				-0.006158	-0.001200	-0.002203				179.725526	-0.703005	-39.487118
00708	1758974	0.147194	0.112402	-9.848776				-0.005579	0.001144	0.000374				179.725782	-0.703099	-39.487917
00709	1759024	0.138707	0.134685	-9.826692				-0.005601	0.001395	-0.003568				179.724165	-0.703494	-39.486885
00710	1759074	0.138714	0.127480	-9.825494				-0.001710	0.000235	-0.001921				179.725521	-0.703324	-39.487038
00711	1759124	0.152205	0.117614	-9.823165				-0.001986	0.001880	-0.001077				179.724948	-0.703861	-39.486720
00712	1759174	0.147683	0.120914	-9.812112				-0.001594	-0.002340	0.000758				179.726348	-0.702957	-39.487651
00713	1759224	0.150031	0.116051	-9.825306				-0.004802	0.000095	0.002806				179.724982	-0.702988	-39.488456
00714	1759274	0.147998	0.114790	-9.827693				0.000091	0.000112	0.000256				179.726861	-0.702786	-39.489243
00715	1759324	0.143162	0.127080	-9.839415				-0.005300	0.003014	-0.004944				179.725325	-0.703642	-39.487820
00716	1759374	0.149449	0.130922	-9.834660				-0.005663	-0.001677	-0.003237				179.725545	-0.702923	-39.487612
00717	1759424	0.145488	0.132789	-9.816185				-0.007109	0.000296	-0.006299				179.723486	-0.702999	-39.485805
00718	1759474	0.154525	0.127567	-9.812632				-0.003663	-0.002225	-0.002952				179.724279	-0.702123	-39.485664
00719	1759524	0.138678	0.118395	-9.805360				-0.002409	-0.001004	-0.000996				179.723585	-0.701834	-39.485373
00720	1759574	0.156025	0.115495	-9.787704				-0.003243	-0.000592	0.002316				179.724516	-0.701433	-39.486746
00721	1759624	0.141654	0.121638	-9.821197				-0.006615	0.001418	0.000442				179.722622	-0.701840	-39.486870
00722	1759674	0.156623	0.126445	-9.818870				-0.003935	0.000487	-0.003389				179.723334	-0.701740	-39.486606
00723	1759724	0.150878	0.110892	-9.832020				-0.004967	0.001027	-0.000302				179.721910	-0.702033	-39.486519
00724	1759774	0.132702	0.115695	-9.836960				-0.003375	-0.001722	0.001219				179.722797	-0.701308	-39.487577
00725	1759824	0.136658	0.117649	-9.844890				-0.004191	0.002781	-0.001382				179.721592	-0.702103	-39.487174
00726	1759874	0.144221	0.130714	-9.815988				-0.004026	0.001523	-0.000843				179.722286	-0.702304	-39.487637
00727	1759924	0.150970	0.115920	-9.829003				-0.002974	0.001372	-0.004438				179.721418	-0.702691	-39.486359
00728	1759974	0.144021	0.125468	-9.816991				-0.005319	-0.002085	-0.000085				179.721746	-0.701858	-39.487046
00729	1760024	0.135843	0.144825	-9.818636				-0.005960	0.002844	-0.003396				179.720026	-0.702668	-39.486067
00730	1760074	0.139473	0.122308	-9.815769				-0.005382	0.003824	-0.003456				179.720322	-0.703525	-39.485762
00731	1760124	0.125407	0.127588	-9.814978				-0.006049	-0.002454	-0.000596				179.718586	-0.702821	-39.485599
00732	1760174	0.128629	0.131601	-9.832499				-0.002150	0.000776	-0.004347				179.719805	-0.702803	-39.485058
00733	1760224	0.151277	0.121550	-9.810803				-0.001238	0.001673	0.000820				179.719453	-0.703284	-39.485290
00734	1760274	0.153238	0.122113	-9.827582				-0.004991	-0.000206	0.000180				179.719873	-0.702990	-39.486057
00735	1760324	0.145884	0.130212	-9.820363				-0.002934	-0.000654	-0.000694				179.719030	-0.702802	-39.485860
00736	1760374	0.154245	0.117323	-9.821592				-0.003722	-0.000420	-0.005760				179.719791	-0.702440	-39.484905
00737	1760424	0.159130	0.123522	-9.827850				-0.000270	-0.001771	0.000481				179.719715	-0.701933	-39.485046
00738	1760474	0.147520	0.142859	-9.827083				-0.001732	0.000817	-0.001942				179.721061	-0.701930	-39.485214
00739	1760524	0.161769	0.114295	-9.835294				-0.003311	0.001078	-0.003412				179.720100	-0.702234	-39.484231
00740	1760574	0.158841	0.122982	-9.832408				-0.004450	0.003877	-0.001117				179.720668	-0.703110	-39.484609
00741	1760624	0.155910	0.110838	-9.830473				-0.003620	-0.002348	-0.001247				179.719627	-0.702435	-39.484248
00742	1760674	0.154055	0.111728	-9.825427				-0.007869	-0.001745	-0.002133				179.719214	-0.701698	-39.484355
00743	1760724	0.134886	0.126000	-9.816951				-0.002865	0.003488	-0.000511				179.718391	-0.702697	-39.484198
00744	1760774	0.128996	0.135151	-9.816681				-0.001149	0.000862	0.000180				179.719910	-0.702710	-39.484973
00745	1760824	0.152434	0.117824	-9.808405				-0.004067	-0.000352	-0.001457				179.718739	-0.702607	-39.484550
00746	1760874	0.159913	0.123526	-9.822591				-0.002768	0.002191	-0.002252				179.719786	-0.702997	-39.484598
00747	1760924	0.145952	0.106355	-9.808851				-0.004637	0.000641	-0.000940				179.718454	-0.703180	-39.484319
00748	1760974	0.134126	0.122740	-9.815746				-0.005685	0.000530	0.000892				179.718674	-0.703099	-39.485291
00749	1761024	0.141637	0.123034	-9.816504				-0.004902	-0.003243	-0.000094				179.717269	-0.702170	-39.485269
00750	1761074	0.139686	0.121573	-9.826073				-0.007714	-0.000680	-0.003793				179.716892	-0.701736	-39.484880
00751	1761124	0.146558	0.123777	-9.831624				-0.004277	0.000094	-0.003157				179.715656	-0.701758	-39.483976
00752	1761174	0.135547	0.139446	-9.810003				-0.004447	0.001546	-0.003114				179.716216	-0.701963	-39.483770
00753	1761224	0.145442	0.117104	-9.827307				-0.006438	-0.000130	0.000983				179.714376	-0.701927	-39.484053
00754	1761274	0.134410	0.137610	-9.817424				-0.002538	0.000328	0.001623				179.715498	-0.701790	-39.485209
00755	1761324	0.164335	0.126255	-9.831955				0.000860	-0.004312	-0.002459				179.715735	-0.700551	-39.484510
00756	1761374	0.148605	0.110659	-9.825640				-0.004029	-0.000280	0.002710				179.716434	-0.700241	-39.485996
00757	1761424	0.158232	0.114789	-9.823531				-0.004393	-0.003305	-0.002695				179.715166	-0.699291	-39.485237
00758	1761474	0.142047	0.126731	-9.837591				-0.006437	-0.000164	-0.000102				179.715166	-0.699010	-39.485917
00759	1761524	0.136785	0.124381	-9.815996				-0.004599	0.001283	-0.003569				179.713836	-0.699372	-39.484881
00760	1761574	0.143814	0.133751	-9.827298				0.000829	0.000867	-0.002045				179.715910	-0.699384	-39.484997
00761	1761624	0.143782	0.133658	-9.825379				-0.004810	-0.001080	-0.002330				179.714524	-0.699071	-39.484332
00762	1761674	0.134286	0.121274	-9.810711				-0.007065	-0.001895	-0.001879				179.714338	-0.698291	-39.484498
00763	1761724	0.146725	0.118132	-9.816762				-0.005483	-0.001284	-0.002810				179.712757	-0.697919	-39.483696
00764	1761774	0.142393	0.130235	-9.819853				-0.003815	-0.000091	-0.000882				179.713503	-0.697659	-39.484126
00765	1761824	0.159761	0.126851	-9.815876				-0.007271	-0.001350	-0.002840				179.711410	-0.697268	-39.483321
00766	1761874	0.139438	0.114999	-9.816965				-0.006671	0.000188	0.000539				179.711343	-0.697089	-39.484172
00767	1761924	0.138413	0.123006	-9.817207				-0.005250	0.001732	0.000351				179.709841	-0.697585	-39.484274
00768	1761974	0.133952	0.147670	-9.819825				-0.004614	0.002833	-0.003175				179.710349	-0.698159	-39.484075
00769	1762024	0.136829	0.113189	-9.794908				-0.003683	0.002787	-0.003466				179.709282	-0.698952	-39.483087
00770	1762074	0.162534	0.110918	-9.812048				-0.004905	-0.003145	0.000642				179.709721	-0.697818	-39.483941
00771	1762124	0.133796	0.121406	-9.829880				-0.001432	0.002035	0.004062				179.709325	-0.698407	-39.485095
00772	1762174	0.145646	0.118073	-9.818194				-0.003608	-0.000900	-0.005344				179.710115	-0.697908	-39.484277
00773	1762224	0.151340	0.125737	-9.831648				-0.004090	0.001556	-0.001128				179.708939	-0.698352	-39.483947
00774	1762274	0.138463	0.139248	-9.823436				-0.006191	-0.000368	-0.005046				179.708989	-0.698005	-39.483213
00775	1762324	0.149419	0.127255	-9.838111				-0.003485	0.000660	0.000405				179.707992	-0.698195	-39.483324
00776	1762374	0.142192	0.138748	-9.825136				-0.000956	-0.004628	-0.000432				179.709558	-0.696635	-39.483938
00777	1762424	0.126790	0.139900	-9.820024				-0.002735	-0.000712	0.000111				179.708775	-0.696431	-39.483970
00778	1762474	0.129457	0.135105	-9.807812				-0.003678	0.004052	0.001068				179.709566	-0.697360	-39.484959
00779	1762524	0.151718	0.129463	-9.829252				-0.001177	-0.000565	-0.002654				179.709220	-0.697194	-39.484205
00780	1762574	0.144749	0.131540	-9.828737				-0.002132	-0.001872	-0.001185				179.710446	-0.696422	-39.484560
00781	1762624	0.146121	0.112299	-9.803815				-0.006772	-0.000084	-0.005203				179.708488	-0.696390	-39.483069
00782	1762674	0.135765	0.122159	-9.812637				-0.002814	-0.001365	-0.001404				179.709517	-0.695763	-39.483367
00783	1762724	0.156342	0.124802	-9.828562				-0.004423	0.002071	0.000927				179.708253	-0.696358	-39.483621
00784	1762774	0.175570	0.107736	-9.859329				-0.003295	0.002699	-0.000967				179.709145	-0.696896	-39.484059
00785	1762824	0.150914	0.110039	-9.804562				-0.000992	0.001769	-0.001457				179.708856	-0.697401	-39.483636
00786	1762874	0.152141	0.123239	-9.826138				-0.001884	0.003695	-0.001508				179.710150	-0.698223	-39.483903
00787	1762924	0.134558	0.103593	-9.812868				-0.002103	0.000460	-0.001523				179.709542	-0.698353	-39.483468
00788	1762974	0.139524	0.130471	-9.814570				-0.001103	0.001147	-0.003064				179.711053	-0.698443	-39.483301
00789	1763024	0.136981	0.117504	-9.804737				-0.000992	0.002229	0.002367				179.710777	-0.699085	-39.483967
00790	1763074	0.141036	0.108406	-9.836390				-0.006660	-0.001697	-0.004798				179.710692	-0.698358	-39.483301
00791	1763124	0.130949	0.157067	-9.830835				-0.005724	0.000291	-0.005174				179.709034	-0.698434	-39.481820
00792	1763174	0.146184	0.124201	-9.799509				-0.002631	0.001002	-0.001296				179.710113	-0.698486	-39.482139
00793	1763224	0.145746	0.122665	-9.806931				-0.004404	0.000019	-0.004216				179.708836	-0.698486	-39.480924
00794	1763274	0.142852	0.121114	-9.830645				-0.003821	0.001070	-0.002673				179.709570	-0.698554	-39.480858
00795	1763324	0.151635	0.109283	-9.816066				-0.001495	-0.002801	-0.003693				179.709129	-0.697746	-39.479808
00796	1763374	0.163204	0.114771	-9.850400				-0.004246	-0.001040	-0.003582				179.709738	-0.697209	-39.479497
00797	1763424	0.148104	0.116377	-9.828273				-0.003389	-0.000638	-0.003774				179.708754	-0.697021	-39.478411
00798	1763474	0.160903	0.125010	-9.824269				-0.001758	0.004891	-0.001246				179.710084	-0.698187	-39.478730
00799	1763524	0.138606	0.134823	-9.832302				-0.004502	0.000087	-0.004344				179.708779	-0.698206	-39.477484
00800	1763574	0.162294	0.112270	-9.816603				-0.002939	-0.001562	-0.001728				179.709766	-0.697522	-39.477715
00801	1763624	0.166139	0.115584	-9.822379				-0.005641	-0.000320	-0.002939				179.708140	-0.697427	-39.476871
00802	1763674	0.150367	0.130242	-9.827815				-0.005540	0.003757	-0.001723				179.708382	-0.698267	-39.477071
00803	1763724	0.150293	0.108458	-9.819423				-0.004853	0.000886	-0.005016				179.706974	-0.698514	-39.475633
00804	1763774	0.155622	0.123610	-9.833821				-0.001312	0.000401	-0.005379				179.708416	-0.698387	-39.474805
00805	1763824	0.158713	0.131041	-9.834326				-0.003222	0.003476	-0.002182				179.707485	-0.699380	-39.474173
00806	1763874	0.154425	0.114536	-9.845559				0.000362	0.001469	-0.001816				179.709417	-0.699565	-39.474367
00807	1763924	0.124192	0.131536	-9.811861				-0.004375	0.000290	-0.002064				179.708157	-0.699645	-39.473776
00808	1763974	0.128232	0.121484	-9.817627				-0.003619	0.001657	-0.004110				179.708941	-0.699880	-39.473301
00809	1764024	0.127097	0.125881	-9.833443				-0.004038	0.002106	0.000094				179.707784	-0.700483	-39.473323
00810	1764074	0.122168	0.130114	-9.832220				-0.004311	-0.001653	-0.001400				179.708378	-0.699774	-39.473629
00811	1764124	0.147776	0.105175	-9.823471				-0.002464	0.002580	-0.003275				179.707661	-0.700509	-39.472682
00812	1764174	0.145353	0.121629	-9.818919				-0.002807	0.000481	-0.001522				179.708686	-0.700411	-39.472937
00813	1764224	0.142084	0.119383	-9.823210				-0.004870	0.000632	-0.003831				179.707277	-0.700586	-39.471842
00814	1764274	0.152589	0.118940	-9.821107				-0.004320	0.001650	-0.001159				179.707870	-0.700824	-39.472200
00815	1764324	0.143496	0.117219	-9.820099				-0.006475	0.001998	-0.000544				179.706013	-0.701395	-39.472046
00816	1764374	0.139200	0.128475	-9.804027				-0.002401	0.000008	0.001685				179.707165	-0.701167	-39.473234
00817	1764424	0.146807	0.126039	-9.835938				-0.006158	-0.000268	-0.003987				179.705387	-0.701084	-39.472098
00818	1764474	0.146940	0.138402	-9.834025				0.000079	0.001270	-0.003032				179.707232	-0.701210	-39.471912
00819	1764524	0.149928	0.112947	-9.819179				-0.003450	-0.000699	-0.002395				179.706235	-0.701007	-39.471227
00820	1764574	0.147375	0.114984	-9.827309				-0.003857	-0.002064	-0.003203				179.706952	-0.700177	-39.470996
00821	1764624	0.127879	0.146951	-9.830817				-0.001159	0.006429	-0.000113				179.706620	-0.702019	-39.470954
00822	1764674	0.147130	0.146302	-9.833306				-0.002177	0.004917	-0.001695				179.707822	-0.703192	-39.471163
00823	1764724	0.163902	0.113425	-9.828115				-0.001937	0.003102	-0.004593				179.707251	-0.704074	-39.469839
00824	1764774	0.132282	0.120591	-9.818849				-0.004787	0.002286	-0.002275				179.707703	-0.704491	-39.469870
00825	1764824	0.131440	0.116216	-9.816208				-0.001913	0.004499	-0.003877				179.707141	-0.705775	-39.468744
00826	1764874	0.135729	0.119857	-9.832768				-0.003124	0.002578	0.000287				179.708078	-0.706281	-39.469530
00827	1764924	0.146348	0.113848	-9.814847				-0.004527	0.001456	0.001981				179.706788	-0.706701	-39.470092
00828	1764974	0.144752	0.116321	-9.828267				-0.002795	-0.000948	-0.001436				179.707814	-0.706193	-39.470400
00829	1765024	0.149200	0.122141	-9.798086				-0.002421	-0.001913	-0.004619				179.707104	-0.705639	-39.469079
00830	1765074	0.152776	0.104760	-9.821107				-0.006120	0.002711	-0.004071				179.707168	-0.706176	-39.468600
00831	1765124	0.153073	0.136257	-9.825432				-0.002178	0.000446	-0.005437				179.706525	-0.706296	-39.467038
00832	1765174	0.155893	0.126658	-9.804355				-0.006685	0.001541	-0.001121				179.706437	-0.706503	-39.467406
00833	1765224	0.158037	0.098815	-9.815139				-0.006412	0.000931	-0.001258				179.704595	-0.706768	-39.467045
00834	1765274	0.151654	0.124837	-9.805534				-0.002873	0.002445	-0.003342				179.705591	-0.707230	-39.466782
00835	1765324	0.160212	0.104439	-9.833369				-0.002465	0.001644	-0.002644				179.704875	-0.707697	-39.466018
00836	1765374	0.147338	0.118715	-9.825875				-0.003622	-0.000081	-0.000981				179.705663	-0.707439	-39.466420
00837	1765424	0.145735	0.112591	-9.820115				-0.001305	0.001369	-0.004185				179.705275	-0.707825	-39.465218
00838	1765474	0.134982	0.122816	-9.815750				-0.001594	-0.001603	-0.001922				179.706640	-0.707131	-39.465376
00839	1765524	0.132205	0.117064	-9.830592				-0.008642	0.002439	-0.004259				179.704149	-0.707823	-39.464155
00840	1765574	0.141646	0.121938	-9.830882				-0.007495	0.001820	-0.001663				179.703825	-0.708109	-39.464381
00841	1765624	0.140533	0.133544	-9.822010				-0.007348	0.003175	-0.003516				179.701708	-0.709013	-39.463363
00842	1765674	0.152512	0.115450	-9.825659				-0.001713	-0.003066	-0.003760				179.703034	-0.707896	-39.462979
00843	1765724	0.136538	0.128063	-9.823910				-0.004759	0.002251	-0.003048				179.701660	-0.708536	-39.462102
00844	1765774	0.144964	0.122131	-9.840480				-0.000423	0.000037	-0.000954				179.703364	-0.708312	-39.462513
00845	1765824	0.143265	0.120489	-9.823218				-0.003983	0.000101	-0.002229				179.702215	-0.708338	-39.461880
00846	1765874	0.146581	0.124130	-9.835938				-0.005242	0.001238	-0.002953				179.702531	-0.708455	-39.461725
00847	1765924	0.142715	0.124096	-9.828007				-0.001356	-0.000986	-0.002337				179.702134	-0.708169	-39.461056
00848	1765974	0.152653	0.129007	-9.822788				-0.007619	0.000487	-0.003146				179.701768	-0.708071	-39.460875
00849	1766024	0.179675	0.109446	-9.810939				0.002225	0.000408	-0.000287				179.702404	-0.708188	-39.460794
00850	1766074	0.147910	0.121095	-9.811976				-0.001568	-0.001375	-0.002790				179.703772	-0.707557	-39.460706
00851	1766124	0.142476	0.128299	-9.835196				-0.004319	0.001513	-0.003631				179.702522	-0.707985	-39.459672
00852	1766174	0.134457	0.119160	-9.839951				-0.000366	-0.003368	-0.005979				179.704225	-0.706778	-39.458669
00853	1766224	0.143020	0.121175	-9.814115				-0.005449	0.003721	-0.004450				179.702648	-0.707837	-39.457382
00854	1766274	0.141265	0.120398	-9.818891				-0.002324	-0.001813	-0.002404				179.703801	-0.707081	-39.457404
00855	1766324	0.150419	0.119643	-9.821334				-0.004541	0.001447	-0.003853				179.702486	-0.707490	-39.456300
00856	1766374	0.138861	0.117371	-9.807860				-0.004713	-0.000872	0.002003				179.702969	-0.707010	-39.457572
00857	1766424	0.152597	0.109509	-9.801700				-0.006335	0.003712	-0.002138				179.701147	-0.708070	-39.456948
00858	1766474	0.127478	0.134397	-9.825538				-0.003853	0.004306	-0.001244				179.701865	-0.709068	-39.457298
00859	1766524	0.113114	0.146196	-9.822352				-0.003596	0.000077	-0.000720				179.700832	-0.709090	-39.457093
00860	1766574	0.143452	0.105685	-9.819134				-0.001918	0.002621	-0.002866				179.702098	-0.709603	-39.456967
00861	1766624	0.149794	0.139154	-9.840028				-0.003114	-0.001307	-0.002530				179.701197	-0.709225	-39.456241
00862	1766674	0.145855	0.121159	-9.823233				0.000479	0.001155	0.001072				179.703164	-0.709324	-39.457258
00863	1766724	0.149197	0.110327	-9.831153				-0.005370	0.004536	-0.001303				179.701621	-0.710622	-39.456884
00864	1766774	0.138081	0.120780	-9.832062				-0.001697	0.000826	0.000499				179.702961	-0.710627	-39.457716
00865	1766824	0.140220	0.116491	-9.814093				-0.002546	0.003290	-0.003500				179.702219	-0.711564	-39.456701
00866	1766874	0.153573	0.120769	-9.806020				-0.000651	0.000422	0.001355				179.703861	-0.711454	-39.457809
00867	1766924	0.152751	0.105325	-9.827333				-0.005623	-0.000932	-0.003418				179.702238	-0.711182	-39.456835
00868	1766974	0.140792	0.130462	-9.823445				-0.002396	0.002781	-0.001577				179.703370	-0.711743	-39.457071
00869	1767024	0.134755	0.126755	-9.819104				-0.002752	-0.001036	0.001165				179.702586	-0.711448	-39.457400
00870	1767074	0.152044	0.131289	-9.802176				-0.006114	-0.000194	0.000246				179.702660	-0.711159	-39.458181
00871	1767124	0.159250	0.112393	-9.821137				-0.003378	-0.001730	0.000488				179.701694	-0.710664	-39.458324
00872	1767174	0.149056	0.114007	-9.822770				-0.006583	0.001649	0.003626				179.701645	-0.710909	-39.460071
00873	1767224	0.129352	0.127917	-9.822190				-0.003711	0.001988	0.001891				179.700588	-0.711481	-39.460604
00874	1767274	0.135662	0.132241	-9.807851				-0.003355	0.001699	-0.000582				179.701448	-0.711734	-39.461132
00875	1767324	0.140274	0.124912	-9.813860				-0.005361	0.001306	-0.000262				179.699912	-0.712108	-39.461054
00876	1767374	0.135845	0.129693	-9.838280				-0.003957	0.001230	-0.001835				179.700594	-0.712225	-39.461224
00877	1767424	0.151829	0.126064	-9.820141				-0.005264	0.002046	-0.003817				179.699073	-0.712805	-39.460134
00878	1767474	0.152877	0.129731	-9.831655				-0.009335	-0.002330	-0.005437				179.698203	-0.711896	-39.459279
00879	1767524	0.139834	0.115075	-9.837818				-0.006262	0.000261	-0.000039				179.696408	-0.711971	-39.459268
00880	1767574	0.161997	0.121532	-9.831937				-0.001432	0.006901	-0.001012				179.697817	-0.713714	-39.459671
00881	1767624	0.143718	0.134655	-9.815321				-0.003688	-0.000320	-0.004447				179.696744	-0.713615	-39.458395
00882	1767674	0.152047	0.117603	-9.815837				-0.001501	0.001796	-0.000589				179.698135	-0.713896	-39.458911
00883	1767724	0.151263	0.122559	-9.828291				-0.003414	-0.003128	-0.004814				179.697140	-0.712993	-39.457536
00884	1767774	0.168426	0.103606	-9.821179				0.000849	-0.000782	-0.000903				179.699201	-0.712534	-39.457999
00885	1767824	0.150997	0.131123	-9.827569				-0.003494	-0.000051	-0.001112				179.698196	-0.712518	-39.457678
00886	1767874	0.142844	0.125066	-9.810040				-0.003877	0.000947	-0.000042				179.698907	-0.712556	-39.458374
00887	1767924	0.136743	0.126731	-9.826297				-0.005810	0.000197	-0.001033				179.697239	-0.712611	-39.458078
00888	1767974	0.150682	0.118544	-9.826131				-0.003649	0.001623	-0.003120				179.698004	-0.712838	-39.457888
00889	1768024	0.155860	0.123280	-9.824724				-0.002760	0.001261	0.002522				179.697222	-0.713203	-39.458605
00890	1768074	0.130161	0.119001	-9.829148				-0.003562	-0.001090	-0.001433				179.698016	-0.712656	-39.458890
00891	1768124	0.150424	0.104737	-9.809832				-0.003257	-0.002997	-0.004363				179.697068	-0.711791	-39.457645
00892	1768174	0.133684	0.124630	-9.824852				-0.002283	0.001235	-0.000111				179.698235	-0.711911	-39.458326
00893	1768224	0.133388	0.117343	-9.811666				-0.003348	-0.001893	-0.001822				179.697270	-0.711366	-39.457803
00894	1768274	0.147878	0.119861	-9.827790				-0.001428	0.001511	0.001457				179.698686	-0.711568	-39.458919
00895	1768324	0.139857	0.130594	-9.836622				-0.002177	0.000614	-0.003416				179.698050	-0.711739	-39.457941
00896	1768374	0.154089	0.143378	-9.824957				-0.000204	-0.001968	-0.002533				179.699802	-0.710938	-39.457905
00897	1768424	0.136914	0.141374	-9.809530				-0.003698	0.000136	-0.002035				179.698735	-0.710974	-39.457320
00898	1768474	0.140472	0.120832	-9.845011				-0.004327	-0.001329	-0.002588				179.699306	-0.710356	-39.457288
00899	1768524	0.127044	0.116690	-9.816183				-0.004587	-0.000811	0.001363				179.697997	-0.710126	-39.457673
00900	1768574	0.130311	0.120080	-9.811651				0.000828	0.002100	0.000719				179.700056	-0.710496	-39.458590
00901	1768624	0.119028	0.131998	-9.813508				-0.005983	0.000546	-0.002281				179.698334	-0.710649	-39.457940
00902	1768674	0.154579	0.119593	-9.842685				-0.005228	-0.000118	-0.003573				179.698642	-0.710377	-39.457586
00903	1768724	0.149158	0.132228	-9.836430				-0.004324	0.000775	-0.000523				179.697402	-0.710598	-39.457434
00904	1768774	0.158009	0.122118	-9.824250				-0.004038	-0.000389	-0.004025				179.698048	-0.710248	-39.456974
00905	1768824	0.135757	0.120205	-9.804966				-0.005198	0.001183	-0.001061				179.696555	-0.710585	-39.456667
00906	1768874	0.160795	0.113267	-9.827143				-0.006461	0.001647	0.001569				179.696527	-0.710826	-39.457811
00907	1768924	0.164789	0.107821	-9.842741				-0.003429	0.003023	-0.000545				179.695543	-0.711692	-39.457644
00908	1768974	0.156975	0.125732	-9.830956				-0.000685	-0.001743	0.000704				179.697167	-0.710961	-39.458576
00909	1769024	0.149535	0.124450	-9.822292				-0.004906	-0.000108	-0.001454				179.695756	-0.710928	-39.458163
00910	1769074	0.125986	0.125559	-9.823372				-0.005064	-0.001956	0.000172				179.696123	-0.710135	-39.458910
00911	1769124	0.139323	0.108054	-9.816964				-0.003913	0.001942	-0.003277				179.694990	-0.710687	-39.457963
00912	1769174	0.151099	0.128401	-9.835720				-0.002874	0.001211	-0.005592				179.695964	-0.710793	-39.457063
00913	1769224	0.140880	0.102045	-9.828232				-0.004154	-0.000416	-0.000274				179.694773	-0.710673	-39.456982
00914	1769274	0.158300	0.101353	-9.826649				-0.004160	0.000552	-0.001841				179.695392	-0.710595	-39.457173
00915	1769324	0.140911	0.116917	-9.793248				-0.002173	-0.000482	-0.002073				179.694762	-0.710454	-39.456581
00916	1769374	0.134447	0.137779	-9.828457				-0.002966	0.000603	0.000245				179.695730	-0.710394	-39.457354
00917	1769424	0.145947	0.114400	-9.836413				-0.004758	0.000410	-0.000107				179.694367	-0.710512	-39.457325
00918	1769474	0.147554	0.111731	-9.825633				-0.002284	-0.003903	0.001340				179.695533	-0.709163	-39.458417
00919	1769524	0.138035	0.119655	-9.832292				-0.002789	-0.000238	-0.002779				179.694725	-0.709091	-39.457621
00920	1769574	0.148324	0.134322	-9.833549				-0.007561	-0.002191	-0.000626				179.694371	-0.708229	-39.458142
00921	1769624	0.144459	0.118301	-9.822742				-0.000660	-0.000417	0.000488				179.694184	-0.708110	-39.458283
00922	1769674	0.141479	0.119034	-9.830399				-0.006545	0.003093	-0.002075				179.694117	-0.708760	-39.458362
00923	1769724	0.164539	0.112974	-9.807987				-0.004774	0.003903	-0.001825				179.692743	-0.709876	-39.457835
00924	1769774	0.139286	0.131828	-9.828709				0.000148	-0.001261	-0.006060				179.694579	-0.709272	-39.456804
00925	1769824	0.159499	0.114561	-9.822096				-0.002597	-0.000193	-0.000278				179.693834	-0.709217	-39.456727
00926	1769874	0.139123	0.124004	-9.815292				-0.007013	-0.000130	-0.000202				179.693639	-0.708946	-39.457372
00927	1769924	0.139376	0.117339	-9.833988				-0.004684	0.003123	-0.001793				179.692291	-0.709839	-39.456852
00928	1769974	0.146576	0.133650	-9.840732				-0.003918	0.002329	0.001214				179.692987	-0.710275	-39.457892
00929	1770024	0.160307	0.110146	-9.825940				-0.003246	0.002181	0.000057				179.692057	-0.710899	-39.457903
00930	1770074	0.151048	0.115833	-9.817745				-0.005236	-0.001802	-0.000539				179.692370	-0.710150	-39.458461
00931	1770124	0.141536	0.126500	-9.829443				-0.003004	0.000166	-0.005408				179.691490	-0.710189	-39.456906
00932	1770174	0.155979	0.123613	-9.812264				-0.004286	0.000539	-0.002485				179.692067	-0.710107	-39.456868
00933	1770224	0.129597	0.120324	-9.817160				-0.005013	-0.000928	-0.002649				179.690622	-0.709837	-39.456108
00934	1770274	0.140749	0.108563	-9.824642				-0.001584	0.001036	-0.003000				179.691970	-0.709897	-39.455955
00935	1770324	0.129564	0.113560	-9.824826				-0.005126	0.001823	-0.001572				179.690496	-0.710417	-39.455499
00936	1770374	0.127135	0.130662	-9.832482				-0.004729	-0.002928	-0.001983				179.690948	-0.709342	-39.455647
00937	1770424	0.148123	0.106830	-9.820367				-0.007194	-0.001873	-0.001558				179.688881	-0.708803	-39.455204
00938	1770474	0.148121	0.134631	-9.830436				0.000034	0.000352	-0.003875				179.690691	-0.708665	-39.454785
00939	1770524	0.123999	0.117356	-9.810896				-0.005634	0.001746	-0.000803				179.689074	-0.709164	-39.454548
00940	1770574	0.145327	0.121123	-9.826584				-0.006682	-0.001796	-0.000597				179.688971	-0.708416	-39.455095
00941	1770624	0.149359	0.113118	-9.839786				-0.007795	-0.001202	-0.001808				179.686732	-0.708069	-39.454585
00942	1770674	0.148849	0.123828	-9.823731				-0.001561	-0.001581	-0.001217				179.688092	-0.707382	-39.454935
00943	1770724	0.149826	0.124364	-9.823980				-0.002220	-0.000265	-0.003713				179.687443	-0.707300	-39.453867
00944	1770774	0.158817	0.120022	-9.838877				-0.004241	0.000061	0.000270				179.688042	-0.707085	-39.454639
00945	1770824	0.141313	0.124816	-9.824648				-0.006146	0.001737	-0.001062				179.686278	-0.707582	-39.454332
00946	1770874	0.173704	0.109769	-9.821929				-0.003539	0.003235	-0.001062				179.687072	-0.708274	-39.454719
00947	1770924	0.135355	0.128575	-9.815511				-0.002658	0.004968	-0.000601				179.686308	-0.709696	-39.454539
00948	1770974	0.152834	0.109739	-9.811757				-0.002646	-0.000753	-0.001243				179.687358	-0.709246	-39.454879
00949	1771024	0.150960	0.128611	-9.816072				-0.005271	0.000265	-0.000492				179.685846	-0.709321	-39.454736
00950	1771074	0.149475	0.117116	-9.817011				-0.001992	0.001940	-0.001745				179.687080	-0.709642	-39.454941
00951	1771124	0.132058	0.122839	-9.828434				-0.005765	-0.000031	0.000565				179.685431	-0.709634	-39.455103
00952	1771174	0.139221	0.134087	-9.816976				-0.002976	0.001594	-0.003024				179.686379	-0.709854	-39.454946
00953	1771224	0.152622	0.117948	-9.834533				-0.002976	-0.001439	-0.001921				179.685519	-0.709438	-39.454399
00954	1771274	0.165549	0.121712	-9.819498				-0.002842	-0.002599	-0.001255				179.686511	-0.708459	-39.454770
00955	1771324	0.148520	0.121962	-9.823732				-0.002068	0.002459	-0.000587				179.685917	-0.709162	-39.454595
00956	1771374	0.138712	0.120729	-9.825592				-0.003488	-0.001417	-0.002499				179.686719	-0.708520	-39.454565
00957	1771424	0.143081	0.123511	-9.802370				-0.002726	0.001631	-0.004756				179.685921	-0.708980	-39.453191
00958	1771474	0.140320	0.118996	-9.833031				-0.004911	0.003249	-0.000352				179.686323	-0.709678	-39.453800
00959	1771524	0.146958	0.120988	-9.849355				-0.004831	0.001666	-0.000166				179.684938	-0.710155	-39.453756
00960	1771574	0.141292	0.131828	-9.840943				-0.001395	0.000135	-0.002268				179.686341	-0.709957	-39.453799
00961	1771624	0.146811	0.127726	-9.820600				-0.004844	0.003018	-0.002883				179.684942	-0.710817	-39.452969
00962	1771674	0.149666	0.116677	-9.815822				-0.004905	0.000077	0.000209				179.685347	-0.710607	-39.453731
00963	1771724	0.144770	0.113436	-9.827538				-0.001707	-0.001393	-0.004424				179.684843	-0.710201	-39.452461
00964	1771774	0.155986	0.124831	-9.809136				0.001906	0.000262	-0.000741				179.687194	-0.710042	-39.452939
00965	1771824	0.167299	0.126421	-9.836045				-0.002362	-0.001658	-0.001413				179.686513	-0.709565	-39.452536
00966	1771874	0.151883	0.115209	-9.816312				-0.000591	0.001926	-0.005342				179.688134	-0.709876	-39.451712
00967	1771924	0.143729	0.121378	-9.827295				-0.006028	0.001062	-0.000001				179.686407	-0.710181	-39.451714
00968	1771974	0.129689	0.125030	-9.818601				-0.004244	0.003490	0.000133				179.687000	-0.710949	-39.452413
00969	1772024	0.160291	0.107760	-9.811567				-0.003629	0.002941	-0.003085				179.685949	-0.711786	-39.451512
00970	1772074	0.146335	0.107978	-9.804301				-0.003818	-0.000428	-0.004897				179.686645	-0.711423	-39.450832
00971	1772124	0.148529	0.131033	-9.811262				-0.001719	0.001327	-0.002328				179.686145	-0.711800	-39.450158
00972	1772174	0.149147	0.125828	-9.822292				-0.004166	-0.001070	0.001835				179.686766	-0.711264	-39.451387
00973	1772224	0.141634	0.105765	-9.819369				-0.004746	-0.001852	0.002126				179.685414	-0.710736	-39.452002
00974	1772274	0.151349	0.111396	-9.826853				-0.003132	0.003794	-0.000065				179.686324	-0.711591	-39.452685
00975	1772324	0.147986	0.123416	-9.826110				-0.001209	-0.000736	-0.003941				179.685964	-0.711374	-39.451559
00976	1772374	0.139532	0.119339	-9.825593				-0.004375	0.003152	-0.004906				179.686500	-0.712036	-39.450847
00977	1772424	0.156095	0.122929	-9.813944				-0.003938	-0.004756	-0.003091				179.685361	-0.710669	-39.449961
00978	1772474	0.144233	0.126083	-9.838800				-0.007266	0.000948	0.002562				179.685097	-0.710712	-39.451415
00979	1772524	0.144330	0.110499	-9.828013				0.000373	-0.000498	0.003143				179.685215	-0.710574	-39.452323
00980	1772574	0.136357	0.123665	-9.805691				-0.002115	-0.002560	-0.003467				179.686404	-0.709603	-39.452019
00981	1772624	0.138174	0.127163	-9.826549				-0.005230	-0.001188	-0.001462				179.684900	-0.709260	-39.451601
00982	1772674	0.133611	0.123302	-9.811418				-0.002032	-0.000036	-0.003071				179.686113	-0.709014	-39.451428
00983	1772724	0.128226	0.120352	-9.824101				-0.005027	-0.002514	-0.003846				179.684660	-0.708287	-39.450338
00984	1772774	0.140401	0.134035	-9.824646				-0.003026	-0.000597	0.000074				179.685600	-0.707884	-39.451043
00985	1772824	0.136675	0.123981	-9.843556				-0.002173	-0.000491	-0.000633				179.684975	-0.707743	-39.450862
00986	1772874	0.167571	0.115415	-9.810399				-0.003740	0.003656	-0.001185				179.685704	-0.708556	-39.451225
00987	1772924	0.144912	0.115247	-9.847431				-0.004763	0.001668	0.000220				179.684340	-0.709034	-39.451280
00988	1772974	0.159561	0.126244	-9.841042				-0.004394	0.002223	0.000441				179.684889	-0.709439	-39.452102
00989	1773024	0.154580	0.125393	-9.816329				-0.006559	0.001468	-0.002444				179.683002	-0.709856	-39.451408
00990	1773074	0.159776	0.127310	-9.811317				-0.006556	0.001404	-0.002056				179.682921	-0.710022	-39.451505
00991	1773124	0.146573	0.101776	-9.823709				-0.002324	0.002349	-0.001292				179.682251	-0.710693	-39.451127
00992	1773174	0.167098	0.105840	-9.809680				-0.001854	-0.000581	-0.003336				179.683512	-0.710289	-39.450881
00993	1773224	0.152332	0.116436	-9.826856				-0.003522	-0.000715	-0.004868				179.682486	-0.710076	-39.449480
00994	1773274	0.139014	0.114876	-9.812650				-0.003451	0.001462	-0.001707				179.683297	-0.710260	-39.449689
00995	1773324	0.146826	0.129133	-9.842415				-0.004195	-0.000327	-0.000405				179.682094	-0.710166	-39.449571
00996	1773374	0.163136	0.123798	-9.804864				-0.003076	0.001591	-0.004601				179.683001	-0.710382	-39.448947
00997	1773424	0.148647	0.115351	-9.838579				-0.004105	0.000635	-0.003155				179.681814	-0.710559	-39.448046
00998	1773474	0.149205	0.116637	-9.828276				-0.005249	-0.001347	0.000239				179.682115	-0.709941	-39.448815
00999	1773524	0.144149	0.124163	-9.828021				-0.003122	-0.000790	0.000782				179.681223	-0.709716	-39.449036
01000	1773574	0.140077	0.115913	-9.811460				-0.000010	-0.003103	-0.002354				179.683017	-0.708591	-39.449063
01001	1773624	0.154478	0.110087	-9.811766				-0.004929	-0.000473	-0.002138				179.681597	-0.708452	-39.448449
01002	1773674	0.142194	0.109270	-9.805716				-0.002882	0.003733	-0.003081				179.682564	-0.709285	-39.448271
01003	1773724	0.155335	0.118577	-9.822797				-0.005083	-0.001936	-0.004037				179.681094	-0.708724	-39.447120
01004	1773774	0.138118	0.123812	-9.810973				-0.003685	0.000380	-0.006144				179.681819	-0.708590	-39.446036
01005	1773824	0.144425	0.112791	-9.817224				-0.004259	-0.002170	0.001481				179.680604	-0.707971	-39.446469
01006	1773874	0.149001	0.135086	-9.817978				-0.006036	0.000959	-0.002766				179.680668	-0.708010	-39.446385
01007	1773924	0.139904	0.107060	-9.819845				-0.001892	0.004948	-0.002527				179.680117	-0.709423	-39.445655
01008	1773974	0.161881	0.120879	-9.833617				-0.002648	0.001048	-0.004956				179.681143	-0.709483	-39.444945
01009	1774024	0.152169	0.134317	-9.832619				-0.004355	0.000098	0.003482				179.679908	-0.709517	-39.445936
01010	1774074	0.152446	0.114090	-9.813915				-0.002585	0.003874	0.001730				179.680977	-0.710398	-39.447131
01011	1774124	0.152002	0.120590	-9.828533				0.000122	-0.002092	0.000375				179.681013	-0.709799	-39.447248
01012	1774174	0.133400	0.122209	-9.818136				-0.004970	0.000919	0.000088				179.681391	-0.709830	-39.447943
01013	1774224	0.147342	0.124602	-9.835462				-0.004544	0.000466	-0.003354				179.680077	-0.709959	-39.446985
01014	1774274	0.146135	0.120084	-9.819160				-0.006654	0.002769	-0.000025				179.679973	-0.710520	-39.447665
01015	1774324	0.123954	0.125071	-9.809941				-0.002812	-0.002629	-0.000580				179.679166	-0.709766	-39.447509
01016	1774374	0.166198	0.111806	-9.816862				-0.007077	0.003789	-0.000662				179.678938	-0.710618	-39.448004
01017	1774424	0.122174	0.112614	-9.822632				-0.002822	0.001927	-0.000554				179.678127	-0.711170	-39.447836
01018	1774474	0.161574	0.101722	-9.819714				-0.004973	0.001851	-0.002316				179.678497	-0.711464	-39.447861
01019	1774524	0.160518	0.106705	-9.815874				-0.007042	-0.000409	0.000821				179.676482	-0.711348	-39.448104
01020	1774574	0.145936	0.114126	-9.824430				-0.002886	-0.000308	-0.001787				179.677450	-0.711025	-39.448290
01021	1774624	0.147914	0.118118	-9.819161				-0.003824	-0.002041	-0.001471				179.676349	-0.710438	-39.447874
01022	1774674	0.145485	0.116235	-9.833293				-0.004178	0.000793	-0.006138				179.676931	-0.710424	-39.446805
01023	1774724	0.137285	0.118491	-9.823662				-0.000586	-0.000045	-0.001793				179.676757	-0.710408	-39.446290
01024	1774774	0.143281	0.108574	-9.817937				-0.003731	-0.002607	0.002985				179.677499	-0.709434	-39.447835
01025	1774824	0.157114	0.126183	-9.841748				-0.002968	0.000402	0.000429				179.676650	-0.709550	-39.447953
01026	1774874	0.132713	0.128315	-9.811905				-0.006218	-0.003438	-0.002917				179.676661	-0.708328	-39.447815
01027	1774924	0.153641	0.116711	-9.829506				-0.003815	0.002205	0.000666				179.675570	-0.708961	-39.448000
01028	1774974	0.147419	0.128232	-9.827561				-0.002892	0.001053	-0.000464				179.676541	-0.709029	-39.448581
01029	1775024	0.137063	0.135700	-9.823671				-0.004074	0.000064	0.000306				179.675375	-0.709048	-39.448663
01030	1775074	0.140353	0.123276	-9.824403				-0.009384	-0.000324	-0.001192				179.674482	-0.708722	-39.449019
01031	1775124	0.154424	0.115595	-9.823034				-0.001166	0.000178	0.000070				179.674148	-0.708773	-39.449037
01032	1775174	0.158921	0.115646	-9.802691				-0.003286	0.001399	-0.001968				179.674998	-0.708939	-39.449164
01033	1775224	0.147801	0.109904	-9.819643				-0.004845	-0.002346	-0.003590				179.673598	-0.708261	-39.448147
01034	1775274	0.152115	0.130799	-9.807215				-0.003386	0.001595	0.000343				179.674429	-0.708486	-39.448914
01035	1775324	0.134365	0.122965	-9.820774				-0.001444	-0.001255	-0.002113				179.674008	-0.708123	-39.448319
01036	1775374	0.141486	0.138011	-9.850531				-0.005792	-0.001522	-0.000598				179.674145	-0.707455	-39.448824
01037	1775424	0.157136	0.124392	-9.833117				-0.003896	0.002323	-0.002667				179.673020	-0.708116	-39.448068
01038	1775474	0.153561	0.107446	-9.812965				-0.003754	-0.001127	0.000232				179.673744	-0.707562	-39.448813
01039	1775524	0.140916	0.117410	-9.825128				-0.003248	0.000372	0.001521				179.672819	-0.707671	-39.449242
01040	1775574	0.146182	0.133425	-9.823957				-0.004569	0.000472	-0.000431				179.673307	-0.707573	-39.449836
01041	1775624	0.143349	0.136525	-9.811719				-0.006340	-0.002504	-0.002079				179.671483	-0.706852	-39.449250
01042	1775674	0.156916	0.114510	-9.826403				-0.000927	-0.000568	-0.003142				179.673005	-0.706453	-39.449023
01043	1775724	0.160726	0.120336	-9.845831				-0.001863	-0.000457	-0.004487				179.672456	-0.706315	-39.447738
01044	1775774	0.135762	0.118996	-9.804969				-0.003742	-0.000386	-0.001400				179.673177	-0.705970	-39.448057
01045	1775824	0.151986	0.136689	-9.835004				-0.003855	0.000998	-0.003319				179.672061	-0.706250	-39.447098
01046	1775874	0.138639	0.124865	-9.816728				-0.004012	0.001064	-0.001743				179.672702	-0.706320	-39.447281
01047	1775924	0.143512	0.122398	-9.805490				-0.004651	-0.001951	0.000649				179.671372	-0.705763	-39.447472
01048	1775974	0.146615	0.104176	-9.826587				-0.000790	0.001440	-0.000822				179.672940	-0.705942	-39.447949
01049	1776024	0.145473	0.127235	-9.817721				0.000730	-0.001185	-0.002378				179.673141	-0.705598	-39.447275
01050	1776074	0.140639	0.123335	-9.820813				-0.003561	0.003849	-0.003333				179.673907	-0.706464	-39.447032
01051	1776124	0.156154	0.113460	-9.820406				-0.002840	-0.000861	-0.004549				179.673078	-0.706209	-39.445721
01052	1776174	0.155683	0.116514	-9.818970				-0.000005	0.001973	-0.001333				179.674868	-0.706541	-39.446050
01053	1776224	0.157068	0.117742	-9.819210				-0.002928	0.000981	-0.002422				179.674020	-0.706818	-39.445352
01054	1776274	0.150612	0.114469	-9.808156				-0.003922	0.000998	-0.003284				179.674682	-0.706867	-39.445112
01055	1776324	0.147808	0.111210	-9.818450				-0.003243	-0.001188	-0.003172				179.673741	-0.706521	-39.444207
01056	1776374	0.148862	0.119195	-9.824685				-0.003697	-0.001906	-0.001630				179.674474	-0.705741	-39.444429
01057	1776424	0.159593	0.110741	-9.788073				-0.004741	-0.000110	0.000491				179.673118	-0.705710	-39.444571
01058	1776474	0.148836	0.096749	-9.835224				-0.001615	0.002338	0.000440				179.674454	-0.706149	-39.445423
01059	1776524	0.149279	0.113528	-9.831394				0.000494	-0.001603	0.000087				179.674596	-0.705690	-39.445451
01060	1776574	0.141136	0.127518	-9.829203				-0.005293	-0.005557	-0.003635				179.674864	-0.703860	-39.445098
01061	1776624	0.153144	0.114878	-9.835248				-0.002261	0.000022	-0.004229				179.674201	-0.703859	-39.443882
01062	1776674	0.166057	0.115863	-9.807998				-0.005841	0.001257	-0.000682				179.674322	-0.703986	-39.444393
01063	1776724	0.147921	0.129041	-9.799998				-0.005611	-0.002392	-0.002882				179.672705	-0.703296	-39.443577
01064	1776774	0.158516	0.112369	-9.803638				-0.005037	0.000946	-0.002515				179.673048	-0.703332	-39.443546
01065	1776824	0.143351	0.112504	-9.821543				-0.005706	0.001036	0.000796				179.671416	-0.703630	-39.443769
01066	1776874	0.149775	0.101034	-9.829959				-0.004219	0.002383	-0.003276				179.671992	-0.704076	-39.443525
01067	1776924	0.135914	0.110326	-9.815504				-0.002776	-0.000663	-0.002526				179.671188	-0.703882	-39.442805
01068	1776974	0.140751	0.117298	-9.835905				-0.000161	0.000544	-0.003521				179.672925	-0.703800	-39.442504
01069	1777024	0.153276	0.110460	-9.814630				-0.000419	-0.002430	-0.002415				179.672796	-0.703100	-39.441821
01070	1777074	0.153736	0.116706	-9.829741				-0.004353	-0.001565	-0.002848				179.673334	-0.702416	-39.441689
01071	1777124	0.134620	0.129662	-9.828928				0.000053	0.000972	-0.002559				179.673340	-0.702690	-39.440950
01072	1777174	0.148379	0.120052	-9.821809				-0.003009	-0.002213	0.001347				179.674277	-0.701827	-39.442053
01073	1777224	0.130671	0.121386	-9.811169				-0.004490	-0.004214	-0.000294				179.672990	-0.700619	-39.441984
01074	1777274	0.140844	0.119675	-9.816015				-0.006361	0.000344	-0.001422				179.672956	-0.700484	-39.442273
01075	1777324	0.139980	0.137430	-9.831594				-0.002400	0.000667	-0.001814				179.672262	-0.700672	-39.441748
01076	1777374	0.151849	0.133097	-9.814632				-0.004198	0.000161	0.002970				179.672864	-0.700491	-39.443304
01077	1777424	0.162600	0.122916	-9.828348				-0.001621	0.002400	-0.002451				179.672391	-0.701175	-39.442593
01078	1777474	0.159090	0.115810	-9.824257				-0.005129	0.002046	-0.000644				179.672714	-0.701528	-39.443113
01079	1777524	0.165747	0.118872	-9.833879				-0.004865	0.000727	0.000724				179.671322	-0.701737	-39.443318
01080	1777574	0.134921	0.116176	-9.823654				-0.003921	0.000124	-0.002101				179.671986	-0.701538	-39.443405
01081	1777624	0.146913	0.115734	-9.819398				-0.001808	0.001460	-0.000080				179.671467	-0.701956	-39.443377
01082	1777674	0.137700	0.121220	-9.807619				-0.005113	0.001399	-0.001707				179.671790	-0.702123	-39.443588
01083	1777724	0.148819	0.116947	-9.810781				-0.006086	-0.002466	-0.002079				179.670039	-0.701413	-39.442996
01084	1777774	0.141797	0.117934	-9.812667				-0.003529	0.001977	-0.001708				179.670816	-0.701744	-39.443202
01085	1777824	0.153249	0.119835	-9.819197				-0.000775	0.000761	-0.003652				179.670581	-0.701956	-39.442152
01086	1777874	0.141953	0.110587	-9.828241				-0.002934	-0.000928	-0.003009				179.671523	-0.701454	-39.441981
01087	1777924	0.137266	0.131824	-9.836846				-0.002964	0.001736	0.002141				179.670682	-0.701955	-39.442591
01088	1777974	0.139549	0.130037	-9.830153				-0.002230	-0.001556	0.000995				179.671837	-0.701280	-39.443574
01089	1778024	0.152121	0.116870	-9.830692				-0.001803	-0.000929	-0.000061				179.671321	-0.701014	-39.443556
01090	1778074	0.160734	0.128366	-9.816839				-0.000779	0.000984	-0.002784				179.672881	-0.701060	-39.443458
01091	1778124	0.155904	0.109212	-9.815370				-0.003672	-0.000773	-0.001625				179.671823	-0.700835	-39.442993
01092	1778174	0.139231	0.132427	-9.816973				-0.001489	0.000238	-0.000214				179.673189	-0.700671	-39.443626
01093	1778224	0.136758	0.125223	-9.829655				-0.001644	-0.001867	0.000064				179.672718	-0.700137	-39.443647
