// General information: 
//  MT Manager version: 2022.0.0 
//  XDA version: 2022.0.0 build 7085 rev 119802 built on 2022-11-08
// Device information: 
//  DeviceId: 037004D1
//  ProductCode: MTi-300-2A5G4
//  Firmware Version: 1.4.1
//  Hardware Version: 2.1.0
// Device settings: 
//  Filter Profile: general(39.16)
//  Option Flags: Orientation Smoother Disabled, Position/Velocity Smoother Disabled, Continuous Zero Rotation Update Disabled, AHS Disabled, ICC Disabled
// Coordinate system: ENU
PacketCounter	SampleTimeFine	Acc_X	Acc_Y	Acc_Z	AccHR_X	AccHR_Y	AccHR_Z	Gyr_X	Gyr_Y	Gyr_Z	GyrHR_X	GyrHR_Y	GyrHR_Z	Roll	Pitch	Yaw
00001	433798	0.054667	0.122915	-9.853510				0.000358	-0.002635	-0.001616				179.138519	-0.378184	-43.270488
00002	433848	0.010523	0.136427	-9.776842				-0.010028	-0.001431	-0.004209				179.135638	-0.377756	-43.269286
00003	433898	0.006072	0.134965	-9.771070				-0.005177	0.002405	-0.002852				179.136418	-0.378016	-43.269066
00004	433948	0.039610	0.117357	-9.863261				-0.005332	-0.002156	-0.003649				179.134884	-0.377383	-43.268028
00005	433998	0.063574	0.122357	-9.898616				-0.003405	0.005121	-0.001536				179.136173	-0.378427	-43.268185
00006	434048	0.057076	0.118526	-9.865749				-0.004762	0.001644	0.001629				179.134811	-0.378905	-43.268646
00007	434098	0.030895	0.127537	-9.765927				-0.003331	0.003860	-0.002787				179.136120	-0.379582	-43.268463
00008	434148	0.049274	0.096859	-9.791412				-0.003707	0.001433	-0.003252				179.135051	-0.379978	-43.267524
00009	434198	0.091141	0.093272	-9.850098				-0.002845	0.001706	-0.000369				179.136503	-0.380049	-43.268015
00010	434248	0.110267	0.108580	-9.889505				-0.003445	0.002309	-0.000462				179.135515	-0.380708	-43.267871
00011	434298	0.095320	0.100931	-9.816809				-0.004082	0.001264	-0.001653				179.136612	-0.380646	-43.268015
00012	434348	0.079732	0.139447	-9.758507				-0.005098	0.000022	0.000466				179.135153	-0.380654	-43.268143
00013	434398	0.090568	0.109630	-9.790192				-0.001586	0.002144	-0.002582				179.136961	-0.380841	-43.267993
00014	434448	0.123818	0.111877	-9.874472				-0.003736	0.000334	-0.000278				179.135891	-0.380935	-43.267911
00015	434498	0.136802	0.120970	-9.869745				-0.004325	0.001847	0.001078				179.136923	-0.381053	-43.268829
00016	434548	0.100626	0.114740	-9.788798				-0.002455	-0.000875	-0.002277				179.136215	-0.380792	-43.268185
00017	434598	0.066899	0.120703	-9.768502				-0.002927	-0.000044	-0.002944				179.137640	-0.380351	-43.267957
00018	434648	0.054512	0.119950	-9.810855				-0.001669	0.000019	0.001803				179.137166	-0.380364	-43.268472
00019	434698	0.087549	0.107291	-9.858705				-0.002466	-0.002559	-0.002988				179.138722	-0.379202	-43.268243
00020	434748	0.071370	0.102275	-9.851195				-0.002731	-0.001972	0.000868				179.137941	-0.378641	-43.268504
00021	434798	0.045335	0.110297	-9.773900				-0.002290	-0.000670	0.000005				179.139555	-0.378033	-43.269116
00022	434848	0.020905	0.122671	-9.776172				-0.004543	-0.002360	0.000229				179.138254	-0.377359	-43.269192
00023	434898	0.049614	0.102325	-9.850130				-0.006973	0.002707	0.001062				179.138528	-0.377722	-43.270105
00024	434948	0.057065	0.097342	-9.881796				-0.002444	0.006372	0.000429				179.137828	-0.379549	-43.270204
00025	434998	0.040059	0.120224	-9.851284				-0.004868	0.000736	-0.000779				179.138702	-0.379340	-43.270575
00026	435048	0.015761	0.120526	-9.783339				-0.003429	-0.001013	0.001231				179.137722	-0.379056	-43.270931
00027	435098	0.017142	0.128400	-9.780954				-0.006248	0.000969	-0.000455				179.138201	-0.378914	-43.271395
00028	435148	0.072462	0.117657	-9.845696				-0.003377	0.003248	-0.001797				179.137230	-0.379836	-43.270871
00029	435198	0.085087	0.110470	-9.861097				-0.003488	0.004601	-0.002597				179.138496	-0.380726	-43.270723
00030	435248	0.084997	0.102144	-9.811004				-0.002637	0.000899	-0.003707				179.137734	-0.380967	-43.269654
00031	435298	0.082761	0.117298	-9.773617				-0.008366	0.003801	-0.004640				179.137599	-0.381619	-43.268924
00032	435348	0.077412	0.125022	-9.806893				-0.007113	0.003726	-0.004128				179.135553	-0.382669	-43.267719
00033	435398	0.119216	0.142541	-9.868697				-0.002507	0.002004	-0.001429				179.137102	-0.382819	-43.267903
00034	435448	0.131013	0.124244	-9.855342				-0.001545	0.002088	-0.000311				179.136658	-0.383416	-43.267806
00035	435498	0.113153	0.106262	-9.793890				-0.002303	-0.001487	-0.001772				179.138266	-0.382565	-43.267900
00036	435548	0.077475	0.126695	-9.758733				-0.008464	0.000127	0.000698				179.135842	-0.382605	-43.268102
00037	435598	0.096908	0.125085	-9.808436				-0.005317	0.000694	-0.001523				179.136587	-0.382381	-43.268258
00038	435648	0.105779	0.119303	-9.857366				-0.005929	-0.001389	-0.001980				179.134885	-0.381974	-43.267699
00039	435698	0.100114	0.114160	-9.860933				-0.003760	-0.003193	-0.002158				179.136074	-0.380634	-43.267688
00040	435748	0.066813	0.115831	-9.772814				-0.004712	0.001767	-0.003794				179.134717	-0.381123	-43.266593
00041	435798	0.049139	0.105381	-9.771761				-0.003321	-0.003733	-0.002155				179.136032	-0.379629	-43.266613
00042	435848	0.035688	0.141694	-9.851747				-0.002211	-0.000423	-0.003646				179.135392	-0.379492	-43.265567
00043	435898	0.060953	0.133075	-9.879428				-0.007827	-0.003300	-0.003393				179.135414	-0.378116	-43.265231
00044	435948	0.041577	0.126841	-9.853208				-0.001403	-0.001562	0.000130				179.135013	-0.377669	-43.265271
00045	435998	0.013324	0.126440	-9.783090				-0.004549	0.000770	-0.002927				179.135975	-0.377460	-43.265065
00046	436048	0.033028	0.113290	-9.778629				-0.002413	0.000133	-0.001463				179.135281	-0.377492	-43.264644
00047	436098	0.049353	0.101001	-9.845580				-0.004294	0.001942	0.000216				179.136322	-0.377632	-43.265312
00048	436148	0.062094	0.113028	-9.864806				-0.001330	-0.000888	-0.001217				179.135939	-0.377372	-43.264964
00049	436198	0.057065	0.126323	-9.808713				-0.000079	0.000335	-0.000758				179.138186	-0.377047	-43.265355
00050	436248	0.041295	0.109354	-9.760701				-0.003520	-0.001343	-0.000861				179.137176	-0.376659	-43.265122
00051	436298	0.058336	0.124704	-9.818067				-0.004743	0.001902	0.000380				179.138090	-0.376788	-43.265840
00052	436348	0.103773	0.128708	-9.859035				-0.003519	0.008162	0.001879				179.137085	-0.379134	-43.266341
00053	436398	0.110770	0.126548	-9.889267				-0.000755	0.005192	-0.003986				179.139132	-0.380186	-43.265790
00054	436448	0.102806	0.107916	-9.801271				-0.004913	0.003386	0.000416				179.137725	-0.381158	-43.265902
00055	436498	0.080134	0.123623	-9.763059				-0.004273	-0.001911	-0.002790				179.138768	-0.380181	-43.265716
00056	436548	0.084111	0.122764	-9.794228				-0.006343	-0.002458	-0.001857				179.136948	-0.379469	-43.265191
00057	436598	0.108285	0.128861	-9.852110				-0.002925	0.002353	0.001270				179.138384	-0.379731	-43.266143
00058	436648	0.110884	0.129304	-9.846846				-0.002600	0.001066	0.001552				179.137642	-0.380043	-43.266583
00059	436698	0.067981	0.142440	-9.798225				-0.000589	-0.000972	-0.001060				179.139743	-0.379344	-43.266891
00060	436748	0.056435	0.124938	-9.790971				-0.003085	-0.003147	-0.001353				179.138856	-0.378436	-43.266517
00061	436798	0.073105	0.136038	-9.848097				-0.005783	-0.001544	0.000779				179.139473	-0.377580	-43.267357
00062	436848	0.091050	0.111284	-9.874784				-0.006833	0.001186	0.001404				179.137518	-0.377926	-43.267752
00063	436898	0.064596	0.127034	-9.849489				-0.001926	-0.002250	-0.000739				179.139237	-0.376862	-43.268141
00064	436948	0.032501	0.124940	-9.795170				-0.002462	0.000648	-0.001556				179.138528	-0.377041	-43.267691
00065	436998	0.039969	0.116645	-9.790890				-0.001448	0.001054	-0.000688				179.140384	-0.376922	-43.268100
00066	437048	0.032564	0.111146	-9.850046				-0.007643	0.000630	0.003365				179.138201	-0.377117	-43.269063
00067	437098	0.051973	0.109539	-9.871233				-0.005434	0.001073	-0.004561				179.138907	-0.376987	-43.268347
00068	437148	0.026003	0.138331	-9.824609				-0.002488	-0.002679	-0.001414				179.138192	-0.376213	-43.267959
00069	437198	0.034725	0.133382	-9.787033				-0.004046	0.002071	-0.002633				179.139299	-0.376377	-43.267805
00070	437248	0.043586	0.129119	-9.812956				-0.001766	0.002919	-0.002284				179.138789	-0.377203	-43.267127
00071	437298	0.082477	0.108491	-9.853168				-0.007930	-0.002548	0.001100				179.138791	-0.376060	-43.268065
00072	437348	0.079805	0.100867	-9.876639				-0.003198	0.002439	-0.003377				179.137869	-0.376744	-43.267087
00073	437398	0.096422	0.105720	-9.810334				0.001048	0.000102	0.001885				179.140444	-0.376363	-43.268248
00074	437448	0.076065	0.128856	-9.770941				-0.002186	-0.000227	-0.003233				179.139812	-0.376284	-43.267325
00075	437498	0.088522	0.118107	-9.816537				-0.003048	0.003665	-0.005426				179.141200	-0.376892	-43.266361
00076	437548	0.111097	0.131612	-9.847333				-0.000817	0.002125	-0.003096				179.140961	-0.377487	-43.265459
00077	437598	0.117106	0.124514	-9.856464				-0.003294	-0.001205	0.001221				179.142291	-0.376729	-43.266427
00078	437648	0.097247	0.120452	-9.781352				-0.000029	-0.000313	-0.001829				179.142279	-0.376632	-43.265900
00079	437698	0.065364	0.125212	-9.803004				-0.003621	-0.001281	-0.001149				179.143512	-0.375842	-43.266181
00080	437748	0.074982	0.136608	-9.840677				-0.002510	-0.000966	-0.001117				179.142791	-0.375560	-43.265867
00081	437798	0.087764	0.134321	-9.866865				-0.003757	-0.003224	-0.001483				179.143984	-0.374213	-43.266072
00082	437848	0.068528	0.122213	-9.850224				-0.001790	-0.002407	0.000153				179.143472	-0.373524	-43.266122
00083	437898	0.052531	0.116738	-9.782086				0.002392	0.001184	-0.002434				179.146424	-0.373435	-43.266028
00084	437948	0.041664	0.117132	-9.772684				-0.004654	-0.003081	-0.002278				179.145087	-0.372543	-43.265395
00085	437998	0.043770	0.113139	-9.832844				-0.004938	-0.001305	-0.002201				179.145940	-0.371741	-43.265373
00086	438048	0.071641	0.098629	-9.874682				-0.001517	-0.000116	-0.003006				179.145500	-0.371695	-43.264513
00087	438098	0.030264	0.118589	-9.814322				-0.005650	-0.001094	-0.004027				179.146146	-0.370947	-43.263968
00088	438148	0.039749	0.112339	-9.786577				-0.003050	0.001251	0.000405				179.145273	-0.371307	-43.264084
00089	438198	0.039594	0.124280	-9.803827				-0.006815	-0.003832	-0.004456				179.145585	-0.369772	-43.263412
00090	438248	0.050724	0.101662	-9.843423				-0.003522	0.001561	-0.002930				179.144571	-0.370206	-43.262568
00091	438298	0.097172	0.115660	-9.866187				-0.002186	0.002913	-0.002158				179.146213	-0.370613	-43.262550
00092	438348	0.050611	0.135963	-9.819705				-0.004609	-0.000132	0.001041				179.144895	-0.370580	-43.262844
00093	438398	0.059792	0.135524	-9.799625				-0.002482	0.001059	-0.004798				179.146447	-0.370444	-43.262082
00094	438448	0.067999	0.119349	-9.820274				-0.003979	0.003077	-0.001667				179.145304	-0.371318	-43.261594
00095	438498	0.112503	0.105598	-9.859317				-0.003790	0.004246	0.000702				179.146492	-0.372119	-43.262356
00096	438548	0.099686	0.121976	-9.843678				-0.001571	-0.001539	-0.002729				179.146037	-0.371666	-43.261571
00097	438598	0.102818	0.135695	-9.784501				-0.005445	0.001691	-0.002096				179.146746	-0.371723	-43.261593
00098	438648	0.104790	0.114337	-9.793375				-0.000947	0.001518	0.000490				179.146475	-0.372160	-43.261727
00099	438698	0.098487	0.114219	-9.828324				-0.003301	-0.001372	-0.001088				179.147801	-0.371344	-43.262020
00100	438748	0.106482	0.107374	-9.867908				-0.007267	0.001466	-0.002058				179.145715	-0.371755	-43.261420
00101	438798	0.121844	0.100416	-9.840669				-0.004920	-0.001022	-0.004231				179.146570	-0.371026	-43.260799
00102	438848	0.078792	0.110974	-9.779336				-0.001643	0.000211	-0.000314				179.146099	-0.371085	-43.260709
00103	438898	0.061106	0.120323	-9.792912				-0.004285	0.000487	-0.000915				179.147143	-0.370804	-43.261059
00104	438948	0.062572	0.122907	-9.834620				-0.006231	0.001287	-0.002028				179.145354	-0.371164	-43.260467
00105	438998	0.069554	0.119744	-9.862690				-0.001924	-0.001481	-0.001924				179.147072	-0.370314	-43.260531
00106	439048	0.059207	0.098690	-9.805601				-0.005145	-0.003896	-0.002123				179.145594	-0.369189	-43.259947
00107	439098	0.018930	0.117045	-9.774009				0.000088	0.002114	-0.000465				179.147892	-0.369375	-43.260399
00108	439148	0.011901	0.118289	-9.811361				-0.005124	-0.000700	-0.004666				179.146416	-0.369154	-43.259062
00109	439198	0.057202	0.121132	-9.851852				-0.003095	0.002082	-0.004788				179.147794	-0.369312	-43.258308
00110	439248	0.041089	0.114372	-9.854880				-0.002251	0.000973	-0.001362				179.147146	-0.369585	-43.257908
00111	439298	0.040242	0.146367	-9.823731				-0.004405	0.001027	-0.003057				179.148153	-0.369448	-43.257657
00112	439348	0.036825	0.136069	-9.787763				-0.005268	0.000207	-0.002550				179.146639	-0.369496	-43.256921
00113	439398	0.065815	0.110567	-9.801567				-0.005577	0.002622	-0.004554				179.147306	-0.369809	-43.256221
00114	439448	0.088698	0.111245	-9.848654				-0.002668	0.000635	-0.005796				179.146531	-0.369966	-43.254554
00115	439498	0.093648	0.116114	-9.851791				-0.001830	-0.000314	-0.001349				179.148278	-0.369451	-43.254783
00116	439548	0.083115	0.107508	-9.780801				-0.002852	0.001898	-0.002065				179.147457	-0.369986	-43.254191
00117	439598	0.082353	0.124021	-9.773610				-0.003825	0.000137	-0.001908				179.148631	-0.369599	-43.254246
00118	439648	0.111187	0.128072	-9.826957				-0.004706	-0.002560	-0.001641				179.147280	-0.368858	-43.253783
00119	439698	0.120965	0.101425	-9.862232				-0.003872	-0.001345	0.001030				179.148446	-0.368059	-43.254685
00120	439748	0.112472	0.126942	-9.830076				-0.003819	0.000075	0.000582				179.147353	-0.368083	-43.254849
00121	439798	0.092662	0.119772	-9.778456				-0.005117	-0.000235	0.001103				179.148163	-0.367602	-43.255784
00122	439848	0.055675	0.128456	-9.773717				-0.003688	0.000782	-0.002322				179.147102	-0.367817	-43.255119
00123	439898	0.068198	0.111928	-9.843756				-0.004723	0.001239	-0.002759				179.148017	-0.367742	-43.254931
00124	439948	0.089213	0.108492	-9.852247				-0.005852	0.000284	-0.002854				179.146336	-0.367811	-43.254112
00125	439998	0.057740	0.135949	-9.833163				0.000047	-0.001744	-0.001569				179.148620	-0.366886	-43.254283
00126	440048	0.049890	0.131153	-9.786150				-0.001134	-0.001925	-0.002656				179.148291	-0.366324	-43.253537
00127	440098	0.035058	0.116710	-9.808842				-0.007236	0.000843	-0.000633				179.148490	-0.366145	-43.253937
00128	440148	0.041608	0.114569	-9.862792				-0.009949	0.001143	-0.004217				179.145632	-0.366454	-43.252717
00129	440198	0.064661	0.122412	-9.867461				-0.004009	0.002165	0.000355				179.146759	-0.366657	-43.253422
00130	440248	0.049534	0.108322	-9.830236				-0.001262	-0.000532	0.001778				179.146400	-0.366513	-43.253934
00131	440298	0.039163	0.110324	-9.796400				-0.003548	0.003047	0.000749				179.147659	-0.366970	-43.254747
00132	440348	0.031558	0.124116	-9.818889				-0.003991	0.004516	-0.002737				179.146511	-0.368252	-43.253948
00133	440398	0.053431	0.146596	-9.864543				-0.000628	0.002940	0.001764				179.148609	-0.368682	-43.255045
00134	440448	0.058063	0.123593	-9.849935				-0.007382	-0.000741	-0.000513				179.146493	-0.368468	-43.254898
00135	440498	0.064802	0.133445	-9.800122				-0.001575	0.000369	0.002330				179.148320	-0.368165	-43.256178
00136	440548	0.059073	0.125337	-9.780201				-0.005926	-0.000805	0.002141				179.146627	-0.367943	-43.256795
00137	440598	0.068840	0.117843	-9.834648				-0.007057	0.003535	0.000472				179.146880	-0.368538	-43.257522
00138	440648	0.127797	0.105181	-9.864665				-0.006381	0.005419	0.002459				179.145056	-0.370101	-43.258201
00139	440698	0.099186	0.132719	-9.846314				-0.004538	0.003602	-0.001110				179.146028	-0.370709	-43.258477
00140	440748	0.084315	0.133726	-9.793757				-0.005658	0.001448	-0.003400				179.144401	-0.371109	-43.257494
00141	440798	0.088566	0.115842	-9.799277				-0.006980	-0.000218	-0.000547				179.144674	-0.370625	-43.257953
00142	440848	0.081501	0.109020	-9.826086				-0.006928	0.002205	-0.002073				179.142685	-0.371248	-43.257347
00143	440898	0.124849	0.115629	-9.853143				-0.003988	0.000118	-0.002351				179.143813	-0.370853	-43.257287
00144	440948	0.095038	0.111734	-9.829752				-0.001776	0.000162	-0.002037				179.143301	-0.370891	-43.256693
00145	440998	0.073599	0.117858	-9.805441				-0.006861	0.001109	-0.000895				179.143608	-0.370786	-43.257056
00146	441048	0.057882	0.103964	-9.814941				-0.003958	-0.000586	-0.001327				179.142471	-0.370613	-43.256672
00147	441098	0.044553	0.132313	-9.843876				-0.006332	-0.000700	-0.003434				179.142926	-0.369979	-43.256307
00148	441148	0.056428	0.103199	-9.858068				-0.003602	-0.001806	-0.000596				179.141893	-0.369459	-43.256151
00149	441198	0.029117	0.141307	-9.830623				-0.003237	-0.001192	-0.003764				179.143234	-0.368682	-43.255686
00150	441248	0.038273	0.110993	-9.791116				-0.007067	-0.002513	-0.000813				179.141208	-0.367959	-43.255466
00151	441298	0.040366	0.113256	-9.811980				-0.004758	0.001176	-0.003137				179.142114	-0.367863	-43.255171
00152	441348	0.045599	0.115907	-9.845074				-0.003400	0.001941	-0.003272				179.141134	-0.368405	-43.254229
00153	441398	0.070297	0.111790	-9.848793				-0.003956	-0.000851	-0.003731				179.142268	-0.367727	-43.253773
00154	441448	0.054421	0.116733	-9.811086				-0.006257	0.000314	-0.000576				179.140475	-0.367814	-43.253605
00155	441498	0.057274	0.121264	-9.796968				-0.004439	-0.000859	-0.004115				179.141471	-0.367131	-43.253030
00156	441548	0.067700	0.119149	-9.834165				-0.005554	0.005528	-0.000551				179.139878	-0.368712	-43.252852
00157	441598	0.078936	0.121391	-9.860585				-0.007273	0.003713	-0.003953				179.140063	-0.369339	-43.252306
00158	441648	0.100152	0.130741	-9.855427				-0.004461	0.000017	-0.002735				179.138780	-0.369332	-43.251521
00159	441698	0.095500	0.128279	-9.792849				-0.003071	-0.000209	-0.000302				179.140174	-0.368852	-43.252049
00160	441748	0.084798	0.129727	-9.791839				-0.001574	0.001071	-0.002028				179.139720	-0.369150	-43.251468
00161	441798	0.100647	0.114431	-9.822351				-0.005645	0.001228	0.000805				179.140380	-0.369086	-43.252306
00162	441848	0.107815	0.108066	-9.854738				-0.005066	-0.001091	-0.001200				179.138927	-0.368768	-43.251972
00163	441898	0.101792	0.116943	-9.824994				-0.000800	-0.001277	-0.002367				179.140969	-0.367974	-43.251905
00164	441948	0.072646	0.114626	-9.805199				-0.001293	0.000138	-0.001236				179.140596	-0.368008	-43.251549
00165	441998	0.078446	0.111840	-9.818401				-0.003131	-0.001677	-0.003581				179.141968	-0.367093	-43.251136
00166	442048	0.077671	0.126170	-9.833981				-0.005848	-0.000457	-0.000486				179.140292	-0.366961	-43.250997
00167	442098	0.070180	0.117617	-9.859826				-0.003750	0.001874	-0.001634				179.141490	-0.367072	-43.251146
00168	442148	0.052394	0.114870	-9.806768				-0.000000	-0.002867	0.003208				179.141495	-0.366264	-43.252074
00169	442198	0.035058	0.116845	-9.808361				-0.003185	0.001135	-0.003789				179.142852	-0.366154	-43.251611
00170	442248	0.038544	0.110392	-9.816043				-0.003067	0.000629	-0.001576				179.141971	-0.366327	-43.251160
00171	442298	0.020832	0.135980	-9.846874				-0.003119	0.003506	0.000652				179.143355	-0.366915	-43.251921
00172	442348	0.055820	0.116939	-9.848481				-0.001065	0.002313	-0.001025				179.143047	-0.367573	-43.251622
00173	442398	0.050931	0.125983	-9.818025				-0.002534	-0.000910	0.001653				179.144600	-0.366900	-43.252688
00174	442448	0.031754	0.105008	-9.789408				-0.005448	0.000970	-0.001635				179.143037	-0.367171	-43.252216
00175	442498	0.035988	0.136314	-9.833538				-0.006162	0.003517	0.000276				179.143548	-0.367760	-43.252892
00176	442548	0.057744	0.111810	-9.845377				-0.005282	0.001783	-0.001049				179.142032	-0.368266	-43.252584
00177	442598	0.083246	0.113896	-9.850303				-0.006468	0.002729	-0.003838				179.142449	-0.368612	-43.252086
00178	442648	0.089788	0.130899	-9.786352				-0.008156	0.001799	0.000367				179.140113	-0.369128	-43.252186
00179	442698	0.075276	0.110472	-9.783872				-0.007705	0.002150	-0.006886				179.140168	-0.369295	-43.250816
00180	442748	0.108992	0.124840	-9.831258				-0.005645	0.003934	-0.004669				179.138542	-0.370402	-43.249456
00181	442798	0.109332	0.114962	-9.866976				-0.006773	0.002406	-0.001050				179.138876	-0.370667	-43.249776
00182	442848	0.107478	0.122157	-9.823825				-0.000229	0.002064	-0.000751				179.138809	-0.371255	-43.249556
00183	442898	0.092653	0.126990	-9.787320				-0.003307	0.000232	-0.000050				179.140138	-0.370902	-43.250167
00184	442948	0.103112	0.117091	-9.793603				-0.005145	0.002559	-0.001983				179.138660	-0.371627	-43.249585
00185	442998	0.089610	0.130520	-9.840749				-0.008171	0.000381	0.002635				179.138601	-0.371328	-43.250947
00186	443048	0.106476	0.122591	-9.862401				-0.004864	-0.000313	-0.000460				179.137206	-0.371237	-43.250819
00187	443098	0.066688	0.144449	-9.817872				-0.002102	0.002519	-0.001859				179.138877	-0.371531	-43.250881
00188	443148	0.059464	0.112176	-9.787384				-0.005013	-0.000506	-0.000166				179.137440	-0.371386	-43.250826
00189	443198	0.041218	0.120803	-9.810550				-0.003552	0.000779	-0.002278				179.138695	-0.371180	-43.250767
00190	443248	0.055108	0.111976	-9.843208				-0.003900	0.002317	-0.004742				179.137569	-0.371824	-43.249408
00191	443298	0.057128	0.122077	-9.836272				-0.004027	0.001610	-0.002692				179.138687	-0.371854	-43.249249
00192	443348	0.033079	0.148171	-9.805005				-0.004876	0.004476	-0.000138				179.137290	-0.373136	-43.249183
00193	443398	0.043929	0.109028	-9.799780				-0.002822	0.002892	-0.002880				179.138753	-0.373532	-43.248946
00194	443448	0.058903	0.117985	-9.815426				-0.002585	0.001865	0.000290				179.138013	-0.374068	-43.249019
00195	443498	0.063678	0.113106	-9.851161				-0.000188	-0.000325	-0.001110				179.140233	-0.373550	-43.249317
00196	443548	0.047894	0.133386	-9.839584				-0.003281	-0.000772	-0.002895				179.139287	-0.373316	-43.248494
00197	443598	0.065771	0.119893	-9.809481				-0.004708	0.002021	-0.001372				179.140213	-0.373470	-43.248687
00198	443648	0.083688	0.112931	-9.805729				-0.002920	0.000980	-0.002512				179.139371	-0.373740	-43.247963
00199	443698	0.076778	0.102799	-9.831340				-0.005036	0.000845	-0.003592				179.140199	-0.373546	-43.247550
00200	443748	0.102101	0.109448	-9.844878				-0.002255	0.003057	-0.004043				179.139546	-0.374405	-43.246370
00201	443798	0.107656	0.126331	-9.827897				0.000358	-0.001647	-0.004072				179.141918	-0.373495	-43.245837
00202	443848	0.075258	0.135146	-9.804252				-0.005577	-0.001230	-0.002093				179.140316	-0.373134	-43.245247
00203	443898	0.087496	0.124894	-9.803358				-0.007404	-0.001132	-0.002509				179.140467	-0.372380	-43.245138
00204	443948	0.119630	0.119168	-9.841619				-0.004624	0.004512	0.000527				179.139144	-0.373674	-43.245271
00205	443998	0.103818	0.119820	-9.850647				-0.003713	-0.000063	0.000503				179.140359	-0.373239	-43.246022
00206	444048	0.105829	0.117720	-9.821658				-0.003432	0.001108	-0.000389				179.139375	-0.373555	-43.245912
00207	444098	0.070227	0.122790	-9.789846				-0.006554	0.003566	-0.002869				179.139768	-0.374145	-43.245668
00208	444148	0.092599	0.109875	-9.791632				-0.000521	-0.002048	-0.003334				179.139613	-0.373544	-43.244718
00209	444198	0.067348	0.123679	-9.844230				-0.001491	0.001393	-0.001802				179.141460	-0.373516	-43.244799
00210	444248	0.059080	0.118093	-9.844429				0.001778	0.002030	-0.005400				179.141959	-0.374074	-43.243242
00211	444298	0.054787	0.116973	-9.819005				-0.000891	-0.003374	-0.000868				179.143980	-0.372686	-43.243644
00212	444348	0.034152	0.134834	-9.801650				-0.006361	0.003769	0.001080				179.142160	-0.373770	-43.243929
00213	444398	0.046380	0.114860	-9.824952				-0.003247	0.000170	-0.001513				179.143504	-0.373393	-43.244112
00214	444448	0.063035	0.108998	-9.858829				-0.004534	0.000339	-0.001863				179.142201	-0.373482	-43.243584
00215	444498	0.045481	0.138612	-9.844364				-0.001804	0.000964	-0.004628				179.143953	-0.373319	-43.242836
00216	444548	0.055573	0.118436	-9.813258				-0.003984	0.002322	-0.001436				179.142809	-0.373978	-43.242412
00217	444598	0.051285	0.122576	-9.824980				-0.004590	0.002182	-0.001629				179.143769	-0.374176	-43.242552
00218	444648	0.059580	0.107348	-9.826454				-0.006935	0.000367	-0.000060				179.141782	-0.374281	-43.242527
00219	444698	0.092765	0.108114	-9.837889				-0.004242	0.001922	-0.005610				179.142834	-0.374387	-43.241528
00220	444748	0.087375	0.119945	-9.827317				-0.006489	0.003835	0.001685				179.140978	-0.375493	-43.241992
00221	444798	0.081995	0.129643	-9.802608				-0.001237	0.000825	0.001401				179.142904	-0.375315	-43.243001
00222	444848	0.082814	0.123694	-9.795424				-0.003227	0.002755	-0.002532				179.141975	-0.376094	-43.242262
00223	444898	0.106762	0.124345	-9.827659				-0.000463	0.002382	-0.001614				179.144117	-0.376350	-43.242409
00224	444948	0.120188	0.126167	-9.834435				-0.003944	0.003935	-0.002687				179.142982	-0.377465	-43.241619
00225	444998	0.123628	0.103183	-9.820546				-0.003702	-0.000914	-0.005697				179.144189	-0.376760	-43.240602
00226	445048	0.087164	0.127942	-9.794250				-0.002618	0.000370	-0.004116				179.143431	-0.376848	-43.239426
00227	445098	0.074497	0.115860	-9.802090				-0.004113	-0.001725	-0.001045				179.144528	-0.375931	-43.239742
00228	445148	0.095021	0.105676	-9.852993				-0.002198	0.001445	-0.001641				179.143895	-0.376338	-43.239269
00229	445198	0.080590	0.123385	-9.835910				-0.006402	-0.000408	-0.002185				179.144335	-0.375793	-43.239248
00230	445248	0.073600	0.092854	-9.802793				-0.006504	-0.001247	-0.002446				179.142467	-0.375425	-43.238552
00231	445298	0.041667	0.104552	-9.786825				-0.003542	-0.001583	-0.002258				179.143727	-0.374543	-43.238518
00232	445348	0.055536	0.105674	-9.837218				-0.003201	-0.002481	-0.002973				179.142804	-0.373820	-43.237676
00233	445398	0.051283	0.116389	-9.841279				-0.003408	0.002101	-0.002757				179.144101	-0.373990	-43.237478
00234	445448	0.045010	0.119062	-9.845071				-0.007649	0.000478	-0.002558				179.141905	-0.374116	-43.236744
00235	445498	0.043279	0.136577	-9.804090				-0.003149	-0.001697	0.001009				179.143284	-0.373215	-43.237640
00236	445548	0.046096	0.104021	-9.795951				-0.004194	-0.000106	0.000057				179.142083	-0.373185	-43.237660
00237	445598	0.050591	0.117252	-9.821386				-0.004327	0.001089	-0.000899				179.143120	-0.373074	-43.238007
00238	445648	0.098045	0.100284	-9.864512				-0.005510	0.002876	-0.002269				179.141537	-0.373888	-43.237345
00239	445698	0.063026	0.130860	-9.815214				-0.002682	0.001600	-0.002182				179.143044	-0.373917	-43.237330
00240	445748	0.064772	0.120022	-9.805153				-0.004466	0.002679	0.001293				179.141767	-0.374690	-43.237685
00241	445798	0.062807	0.136745	-9.782146				-0.003172	0.002180	0.000163				179.143138	-0.374896	-43.238330
00242	445848	0.108088	0.121611	-9.837969				-0.006698	0.002185	0.000747				179.141220	-0.375525	-43.238527
00243	445898	0.111695	0.119294	-9.843736				-0.002640	0.000174	-0.002612				179.142738	-0.375144	-43.238389
00244	445948	0.093140	0.143280	-9.817051				-0.001746	0.000527	0.000501				179.142239	-0.375297	-43.238533
00245	445998	0.094924	0.115565	-9.783502				-0.003738	0.000418	-0.002125				179.143444	-0.374988	-43.238551
00246	446048	0.086926	0.124246	-9.798556				-0.002603	-0.004354	-0.005584				179.142688	-0.373717	-43.236971
00247	446098	0.095812	0.122912	-9.849409				-0.001781	0.002687	0.000896				179.144458	-0.374071	-43.237826
00248	446148	0.083500	0.131533	-9.849348				-0.000583	0.002615	0.003237				179.144297	-0.374834	-43.238746
00249	446198	0.086938	0.117648	-9.804549				-0.002899	0.000365	-0.001905				179.145741	-0.374512	-43.238807
00250	446248	0.060948	0.118442	-9.795794				-0.004559	-0.000524	0.001115				179.144437	-0.374367	-43.239132
00251	446298	0.063599	0.110018	-9.827918				-0.005466	0.002191	-0.004898				179.145141	-0.374554	-43.238348
00252	446348	0.063513	0.122383	-9.853077				-0.002846	-0.002473	-0.001468				179.144323	-0.373840	-43.237942
00253	446398	0.062049	0.100396	-9.833175				-0.007553	-0.000686	-0.004010				179.144431	-0.373207	-43.237399
00254	446448	0.054338	0.118779	-9.823318				-0.004502	-0.001626	-0.000817				179.143140	-0.372737	-43.237181
00255	446498	0.035801	0.112205	-9.811715				-0.004227	-0.000004	0.000411				179.144209	-0.372319	-43.237908
00256	446548	0.032445	0.134335	-9.810266				-0.001845	-0.000749	-0.004699				179.143672	-0.372084	-43.236565
00257	446598	0.041327	0.128932	-9.848173				-0.002357	-0.001390	0.001752				179.145279	-0.371274	-43.237687
00258	446648	0.046505	0.126840	-9.843168				-0.005145	-0.002583	-0.001878				179.143802	-0.370526	-43.237162
00259	446698	0.050899	0.128883	-9.809883				-0.001251	0.000846	-0.003924				179.145715	-0.370332	-43.236643
00260	446748	0.066553	0.124661	-9.803965				0.001456	-0.001751	-0.002088				179.146129	-0.369821	-43.236057
00261	446798	0.085260	0.119079	-9.833065				-0.003960	-0.003886	-0.003011				179.147268	-0.368275	-43.235819
00262	446848	0.084497	0.109793	-9.846708				-0.005803	0.003196	-0.000048				179.145605	-0.369190	-43.235789
00263	446898	0.108754	0.112088	-9.814005				-0.002798	0.002244	-0.001480				179.147079	-0.369407	-43.235963
00264	446948	0.074690	0.140059	-9.804006				-0.002594	-0.000503	-0.005368				179.146327	-0.369240	-43.234426
00265	446998	0.093794	0.116572	-9.800268				-0.004185	-0.000624	-0.001967				179.147403	-0.368634	-43.234482
00266	447048	0.099685	0.117307	-9.826178				-0.007550	-0.000325	0.000349				179.145241	-0.368542	-43.234592
00267	447098	0.100988	0.131150	-9.834097				-0.001044	0.000695	0.000919				179.147223	-0.368326	-43.235477
00268	447148	0.080291	0.120176	-9.818409				-0.003191	-0.001546	-0.001849				179.146306	-0.367875	-43.234950
00269	447198	0.075781	0.108731	-9.790112				-0.001657	0.001584	-0.002668				179.148105	-0.367898	-43.234799
00270	447248	0.085210	0.114912	-9.822509				-0.005746	0.001126	-0.002757				179.146454	-0.368209	-43.234002
00271	447298	0.070926	0.126211	-9.817888				-0.003065	-0.000706	-0.004021				179.147848	-0.367570	-43.233464
00272	447348	0.074640	0.127228	-9.848340				-0.003656	-0.001064	-0.000367				179.146800	-0.367264	-43.233373
00273	447398	0.045237	0.119649	-9.815121				-0.000309	-0.002556	0.000130				179.148991	-0.366113	-43.234024
00274	447448	0.029432	0.137864	-9.808333				-0.001992	0.004198	-0.002011				179.148417	-0.367307	-43.233425
00275	447498	0.016353	0.117840	-9.828876				-0.001673	0.002367	0.000422				179.150218	-0.367567	-43.234134
00276	447548	0.055005	0.125906	-9.859509				-0.004046	0.000191	0.000185				179.149059	-0.367623	-43.234183
00277	447598	0.063706	0.124590	-9.837983				-0.004549	0.000758	-0.001314				179.150033	-0.367414	-43.234419
00278	447648	0.039218	0.130975	-9.815806				-0.000029	0.001842	-0.002379				179.150021	-0.367932	-43.233730
00279	447698	0.054415	0.114448	-9.805818				-0.003274	0.002474	0.001609				179.151365	-0.368227	-43.234775
00280	447748	0.067525	0.113946	-9.855496				-0.003053	0.001208	-0.000771				179.150488	-0.368570	-43.234550
00281	447798	0.052183	0.126496	-9.854941				-0.001444	0.000845	-0.002736				179.152350	-0.368379	-43.234353
00282	447848	0.062726	0.126146	-9.811860				0.000586	0.006664	-0.004666				179.152509	-0.370268	-43.232988
00283	447898	0.064605	0.112350	-9.798202				-0.004435	0.003149	-0.004159				179.153510	-0.370732	-43.232386
00284	447948	0.088811	0.101511	-9.803593				-0.002652	0.000633	-0.002351				179.152746	-0.370903	-43.231706
00285	447998	0.089151	0.109574	-9.851768				-0.001622	-0.001577	-0.000602				179.154560	-0.370029	-43.232132
00286	448048	0.115955	0.111306	-9.845676				-0.002925	0.004148	-0.002302				179.153717	-0.371207	-43.231451
00287	448098	0.103198	0.117808	-9.815656				-0.001600	0.000813	-0.001555				179.155536	-0.371013	-43.231633
00288	448148	0.096122	0.118561	-9.781586				-0.000458	0.002517	0.001756				179.155408	-0.371742	-43.232123
00289	448198	0.087411	0.123133	-9.811500				-0.005594	0.000216	-0.004686				179.156077	-0.371364	-43.231397
00290	448248	0.095215	0.114938	-9.833348				-0.004891	-0.000411	-0.000139				179.154676	-0.371245	-43.231361
00291	448298	0.104041	0.116729	-9.833151				-0.003963	0.001545	-0.001094				179.155819	-0.371264	-43.231631
00292	448348	0.073018	0.123873	-9.843061				-0.005901	-0.000206	-0.002956				179.154123	-0.371192	-43.230788
00293	448398	0.059486	0.121128	-9.813521				-0.006080	-0.001633	-0.004562				179.154653	-0.370285	-43.230096
00294	448448	0.064350	0.112552	-9.809945				-0.004771	-0.000214	-0.002635				179.153281	-0.370213	-43.229344
00295	448498	0.068772	0.113598	-9.837997				-0.007015	-0.002391	-0.003637				179.153546	-0.369093	-43.228926
00296	448548	0.053252	0.117987	-9.832173				-0.005249	-0.001252	0.001081				179.152044	-0.368739	-43.229246
00297	448598	0.049735	0.121117	-9.825449				-0.002477	-0.001657	0.000846				179.153616	-0.367848	-43.230100
00298	448648	0.038353	0.116303	-9.810293				-0.005976	-0.000128	0.003081				179.151910	-0.367824	-43.230984
00299	448698	0.055831	0.108443	-9.830031				-0.004693	0.001273	-0.001892				179.152842	-0.367761	-43.231039
00300	448748	0.057693	0.133312	-9.842752				-0.003665	0.001258	-0.001924				179.151789	-0.368113	-43.230478
00301	448798	0.077139	0.117211	-9.825825				-0.004547	0.002958	-0.001083				179.152764	-0.368535	-43.230777
00302	448848	0.069267	0.099225	-9.834651				-0.003617	0.001746	-0.002314				179.151724	-0.369026	-43.230105
00303	448898	0.052728	0.138201	-9.802465				-0.005794	0.003938	-0.002417				179.152339	-0.369723	-43.230025
00304	448948	0.073311	0.129101	-9.847381				-0.006278	0.002893	-0.001878				179.150537	-0.370544	-43.229474
00305	448998	0.100039	0.127985	-9.828573				-0.003783	-0.000132	-0.001229				179.151732	-0.370081	-43.229714
00306	449048	0.090054	0.106887	-9.821575				-0.004304	0.002249	-0.002180				179.150494	-0.370716	-43.229076
00307	449098	0.074476	0.134601	-9.792985				-0.008638	-0.000443	-0.000928				179.150298	-0.370165	-43.229425
00308	449148	0.123270	0.111770	-9.838524				-0.004744	0.003850	-0.004163				179.148931	-0.371250	-43.228219
00309	449198	0.104844	0.106877	-9.825246				-0.002821	0.000986	-0.002093				179.150400	-0.371104	-43.228228
00310	449248	0.077628	0.125908	-9.820558				-0.003292	0.000785	-0.000070				179.149456	-0.371328	-43.228204
00311	449298	0.082772	0.116930	-9.816270				-0.004752	-0.004995	-0.000516				179.150375	-0.369476	-43.228704
00312	449348	0.080298	0.110940	-9.818166				-0.004114	-0.005148	-0.002860				179.149191	-0.367989	-43.227907
00313	449398	0.089827	0.108870	-9.827564				-0.004800	0.001397	-0.005068				179.150087	-0.367947	-43.227058
00314	449448	0.050400	0.131043	-9.855892				-0.001964	-0.000907	-0.000466				179.149524	-0.367686	-43.226926
00315	449498	0.081942	0.110740	-9.836154				-0.003434	-0.000391	-0.004790				179.150811	-0.367134	-43.226182
00316	449548	0.027706	0.116431	-9.814791				-0.004152	-0.000587	-0.001161				179.149619	-0.366961	-43.225856
00317	449598	0.064275	0.094048	-9.811137				-0.005660	-0.005823	-0.003661				179.150272	-0.364858	-43.225453
00318	449648	0.046188	0.123107	-9.835020				-0.003804	0.003713	-0.001686				179.149179	-0.365915	-43.224950
00319	449698	0.053287	0.123424	-9.845358				-0.004422	-0.000440	-0.003790				179.150186	-0.365353	-43.224455
00320	449748	0.041531	0.121684	-9.857766				-0.002643	0.003310	-0.003967				179.149422	-0.366284	-43.223306
00321	449798	0.035078	0.108715	-9.819142				-0.002155	0.003226	-0.001791				179.151082	-0.366780	-43.223402
00322	449848	0.059646	0.105950	-9.819503				-0.003426	0.004346	0.003034				179.150106	-0.368038	-43.224253
00323	449898	0.052504	0.108842	-9.840799				-0.004304	0.001264	0.001474				179.151157	-0.367986	-43.225276
00324	449948	0.095919	0.109982	-9.843178				0.000988	0.002867	-0.002894				179.151435	-0.368795	-43.224441
00325	449998	0.069891	0.122834	-9.817166				-0.000264	0.003843	-0.005421				179.153630	-0.369452	-43.223462
00326	450048	0.090039	0.107290	-9.811507				0.000003	0.002892	-0.000104				179.153631	-0.370280	-43.223422
00327	450098	0.069683	0.116933	-9.818120				-0.001606	0.001755	-0.003726				179.155445	-0.370346	-43.222955
00328	450148	0.093726	0.129746	-9.830464				-0.000062	-0.003420	-0.000200				179.155427	-0.369366	-43.222911
00329	450198	0.095409	0.116863	-9.835740				-0.004482	-0.001625	-0.002843				179.156420	-0.368468	-43.222714
00330	450248	0.091919	0.115624	-9.837882				-0.002252	0.000069	0.000753				179.155776	-0.368491	-43.222920
00331	450298	0.089974	0.125416	-9.809357				-0.006873	0.000109	-0.003658				179.156082	-0.368086	-43.222491
00332	450348	0.073695	0.133442	-9.817183				-0.005189	-0.001345	-0.001492				179.154593	-0.367695	-43.222059
00333	450398	0.097032	0.120813	-9.827127				-0.004057	0.001426	-0.000385				179.155712	-0.367682	-43.222575
00334	450448	0.085808	0.126863	-9.836176				-0.003303	-0.001344	-0.002456				179.154761	-0.367286	-43.221877
00335	450498	0.061165	0.120042	-9.825984				-0.001142	-0.004600	0.000853				179.156718	-0.365552	-43.222747
00336	450548	0.056651	0.127341	-9.807994				-0.002069	0.002164	-0.004301				179.156117	-0.366154	-43.221512
00337	450598	0.082782	0.105242	-9.845028				-0.004778	-0.000468	-0.003411				179.157024	-0.365585	-43.221168
00338	450648	0.061951	0.122274	-9.844924				-0.002608	0.002392	0.000449				179.156278	-0.366272	-43.221277
00339	450698	0.050243	0.128458	-9.826415				-0.003182	0.000248	0.001276				179.157650	-0.365929	-43.222264
00340	450748	0.022620	0.133723	-9.822204				-0.002115	0.002781	-0.002722				179.157039	-0.366714	-43.221468
00341	450798	0.036224	0.125740	-9.812442				-0.005554	0.005436	-0.001190				179.157728	-0.367846	-43.221731
00342	450848	0.070503	0.093547	-9.831304				-0.005902	-0.000326	-0.003440				179.156031	-0.367738	-43.220747
00343	450898	0.056834	0.111289	-9.842497				-0.004143	0.002135	-0.002147				179.157122	-0.367920	-43.220720
00344	450948	0.057750	0.122394	-9.825731				-0.003846	0.002214	0.002184				179.156024	-0.368564	-43.221339
00345	450998	0.073943	0.100218	-9.815976				-0.003774	0.002627	-0.001212				179.157222	-0.368890	-43.221583
00346	451048	0.079833	0.098581	-9.818169				-0.003546	-0.000636	-0.001139				179.156204	-0.368703	-43.221263
00347	451098	0.079789	0.118682	-9.818170				-0.004206	-0.003035	0.000007				179.157282	-0.367413	-43.221892
00348	451148	0.102805	0.123124	-9.833147				-0.003916	0.003206	-0.000253				179.156160	-0.368330	-43.221803
00349	451198	0.086621	0.116032	-9.828032				-0.000365	0.002067	-0.002093				179.158334	-0.368493	-43.221799
00350	451248	0.081652	0.129854	-9.813875				-0.004270	0.002231	-0.001185				179.157108	-0.369127	-43.221453
00351	451298	0.092427	0.125299	-9.827814				-0.003806	-0.000805	-0.004668				179.158291	-0.368456	-43.220746
00352	451348	0.089859	0.135666	-9.843391				-0.005761	0.000618	-0.000232				179.156641	-0.368632	-43.220675
00353	451398	0.096720	0.120709	-9.818027				-0.006023	0.000479	-0.003436				179.157191	-0.368335	-43.220286
00354	451448	0.073053	0.122013	-9.801126				-0.004044	-0.001065	-0.002164				179.156028	-0.368021	-43.219671
00355	451498	0.065305	0.125422	-9.797731				-0.004757	-0.001593	0.001043				179.156950	-0.367149	-43.220588
00356	451548	0.077596	0.102176	-9.834695				-0.004470	0.002290	-0.000897				179.155668	-0.367801	-43.220322
00357	451598	0.062427	0.131981	-9.833425				-0.001281	0.000593	-0.004344				179.157574	-0.367532	-43.219679
00358	451648	0.050219	0.122983	-9.851578				-0.004350	-0.000454	-0.000296				179.156328	-0.367401	-43.219596
00359	451698	0.046004	0.126482	-9.821117				-0.005262	0.001885	-0.003878				179.157096	-0.367504	-43.219086
00360	451748	0.063956	0.116060	-9.810662				-0.002711	0.002450	-0.001766				179.156316	-0.368198	-43.218563
00361	451798	0.037212	0.133503	-9.843366				-0.009178	0.001137	-0.002455				179.155964	-0.368093	-43.218467
00362	451848	0.057272	0.106781	-9.845136				-0.004592	-0.002108	-0.001684				179.154645	-0.367483	-43.217992
00363	451898	0.053539	0.117749	-9.837930				-0.001531	0.000563	-0.000367				179.156488	-0.367222	-43.218491
00364	451948	0.042558	0.127210	-9.805525				-0.005851	0.000621	-0.000548				179.154811	-0.367397	-43.218337
00365	451998	0.061708	0.110986	-9.821195				-0.002419	0.003394	-0.000539				179.156399	-0.367946	-43.218781
00366	452048	0.049889	0.129243	-9.843667				-0.004730	0.001482	-0.000063				179.155044	-0.368370	-43.218758
00367	452098	0.081761	0.111383	-9.837114				0.001374	0.001580	-0.003930				179.157713	-0.368385	-43.218225
00368	452148	0.092083	0.119374	-9.831897				-0.004604	0.000644	0.001086				179.156396	-0.368574	-43.218540
00369	452198	0.097930	0.129855	-9.816113				-0.002674	-0.003243	-0.003850				179.157906	-0.367208	-43.218038
00370	452248	0.096448	0.120190	-9.825925				-0.003354	0.005969	0.002520				179.156949	-0.368928	-43.218741
00371	452298	0.093283	0.112054	-9.823746				0.001618	-0.001296	-0.005645				179.159685	-0.368113	-43.217740
00372	452348	0.101500	0.121448	-9.820677				-0.003886	-0.001160	-0.001591				179.158569	-0.367774	-43.217291
00373	452398	0.074777	0.131264	-9.821270				-0.001272	0.002542	-0.001702				179.160484	-0.368074	-43.217424
00374	452448	0.082837	0.125418	-9.819866				-0.000971	-0.001816	0.000002				179.160206	-0.367554	-43.217429
00375	452498	0.072330	0.126265	-9.814301				-0.005687	-0.000441	0.001051				179.160860	-0.367012	-43.218359
00376	452548	0.082530	0.121961	-9.832802				-0.007095	0.000079	-0.001094				179.158826	-0.367030	-43.218042
00377	452598	0.062435	0.121459	-9.818327				-0.007623	0.000550	-0.003397				179.158917	-0.366753	-43.217691
00378	452648	0.057529	0.131629	-9.809197				-0.005005	0.000051	-0.001486				179.157481	-0.366761	-43.217260
00379	452698	0.052011	0.119092	-9.820667				-0.000505	0.000286	-0.003733				179.159611	-0.366407	-43.216792
00380	452748	0.045942	0.129879	-9.827350				-0.003885	-0.000124	-0.002544				179.158494	-0.366361	-43.216069
00381	452798	0.067492	0.117372	-9.853578				-0.001251	0.000532	-0.003832				179.160410	-0.366077	-43.215592
00382	452848	0.048347	0.120644	-9.846293				-0.001425	0.001407	0.000410				179.160003	-0.366481	-43.215712
00383	452898	0.033180	0.126745	-9.808354				-0.001249	-0.002341	-0.001019				179.161924	-0.365386	-43.216017
00384	452948	0.046971	0.123680	-9.809142				-0.004297	0.005106	-0.002576				179.160689	-0.366838	-43.215267
00385	452998	0.056144	0.099627	-9.839134				-0.003862	0.000564	0.001664				179.161867	-0.366585	-43.216344
00386	453048	0.057199	0.113398	-9.837944				-0.004923	0.001243	-0.003912				179.160450	-0.366925	-43.215223
00387	453098	0.088962	0.112921	-9.818213				-0.001478	0.000790	-0.001812				179.162305	-0.366722	-43.215297
00388	453148	0.063545	0.105405	-9.807543				-0.006260	0.001258	-0.000349				179.160511	-0.367081	-43.215196
00389	453198	0.082760	0.112348	-9.813631				-0.004966	0.002158	0.002283				179.161374	-0.367287	-43.216446
00390	453248	0.093544	0.119493	-9.834056				-0.006285	0.002167	0.001994				179.159578	-0.367917	-43.217010
00391	453298	0.080664	0.146028	-9.817466				-0.002863	-0.000846	-0.000403				179.161040	-0.367251	-43.217503
00392	453348	0.105433	0.112673	-9.814229				-0.007115	0.001493	-0.003589				179.158995	-0.367664	-43.216468
00393	453398	0.081762	0.138320	-9.815788				0.000479	0.001594	-0.004442				179.161406	-0.367681	-43.215795
00394	453448	0.095189	0.112139	-9.823524				-0.002003	-0.000064	-0.003161				179.160826	-0.367649	-43.214889
00395	453498	0.090814	0.126923	-9.826140				-0.006638	0.003092	-0.000568				179.161206	-0.368112	-43.215323
00396	453548	0.087156	0.125711	-9.824437				0.000507	-0.000147	-0.002462				179.161347	-0.368059	-43.214620
00397	453598	0.078886	0.126772	-9.811698				-0.005937	-0.002099	-0.001653				179.161925	-0.367031	-43.214778
00398	453648	0.051003	0.113953	-9.802929				-0.006780	-0.000529	-0.000489				179.159982	-0.366877	-43.214641
00399	453698	0.057330	0.112197	-9.830754				-0.001433	-0.001401	0.000525				179.161855	-0.366057	-43.215408
00400	453748	0.074393	0.120118	-9.829405				-0.005178	-0.001925	-0.003324				179.160365	-0.365492	-43.214468
00401	453798	0.052473	0.125269	-9.827622				-0.007095	0.001176	-0.002269				179.160611	-0.365399	-43.214441
00402	453848	0.063635	0.104623	-9.821444				-0.003603	0.001537	0.000353				179.159579	-0.365840	-43.214537
00403	453898	0.051411	0.110565	-9.820184				-0.002901	0.001611	0.001248				179.161033	-0.365886	-43.215488
00404	453948	0.045926	0.124449	-9.813209				-0.003652	0.000689	-0.001834				179.159983	-0.366075	-43.214966
00405	453998	0.055106	0.116610	-9.839374				-0.002976	0.003072	0.002888				179.161419	-0.366546	-43.216400
00406	454048	0.075482	0.123087	-9.840918				-0.001592	0.004341	-0.004289				179.160955	-0.367772	-43.215159
00407	454098	0.056872	0.119806	-9.824294				-0.005554	0.004109	-0.004762				179.161637	-0.368508	-43.214388
00408	454148	0.070426	0.122704	-9.835143				-0.001945	0.001230	-0.004788				179.161071	-0.368841	-43.213013
00409	454198	0.087321	0.097630	-9.825392				-0.004912	0.002220	-0.000221				179.161946	-0.369055	-43.213560
00410	454248	0.104029	0.108324	-9.827398				-0.004975	-0.002084	-0.001180				179.160518	-0.368453	-43.213234
00411	454298	0.077694	0.122602	-9.816249				-0.006522	0.002182	-0.004642				179.160924	-0.368637	-43.212482
00412	454348	0.091141	0.112350	-9.810565				-0.002442	0.002908	-0.002276				179.160220	-0.369461	-43.211821
00413	454398	0.111700	0.110708	-9.823848				-0.004399	0.000831	-0.003826				179.161236	-0.369262	-43.211324
00414	454448	0.092475	0.108502	-9.830694				-0.004642	0.001772	0.000095				179.159906	-0.369770	-43.211334
00415	454498	0.091852	0.101500	-9.841953				-0.004584	-0.000331	-0.001550				179.160873	-0.369248	-43.211515
00416	454548	0.082812	0.114956	-9.827532				-0.004378	-0.000778	-0.002617				179.159614	-0.369014	-43.210771
00417	454598	0.086586	0.113053	-9.813891				-0.002372	0.001942	-0.000004				179.161218	-0.369150	-43.211364
00418	454648	0.066743	0.126379	-9.827692				-0.004371	0.001226	-0.000262				179.159966	-0.369500	-43.211291
00419	454698	0.086222	0.104215	-9.825864				-0.003169	-0.000697	-0.003128				179.161335	-0.368867	-43.210983
00420	454748	0.066623	0.117409	-9.837517				-0.000054	-0.000608	-0.001723				179.161317	-0.368685	-43.210496
00421	454798	0.064143	0.121017	-9.841334				-0.002273	-0.001717	-0.003614				179.162942	-0.367758	-43.210106
00422	454848	0.056864	0.118075	-9.819016				-0.004200	0.004175	0.001138				179.161741	-0.368958	-43.210405
00423	454898	0.057518	0.110470	-9.832677				-0.004795	0.002745	0.000648				179.162652	-0.369327	-43.211197
00424	454948	0.041149	0.133609	-9.824932				-0.005417	0.002015	-0.001758				179.161097	-0.369897	-43.210681
00425	454998	0.064835	0.110588	-9.809458				-0.000592	-0.001974	-0.002725				179.163206	-0.368899	-43.210540
00426	455048	0.044638	0.110155	-9.805766				0.001247	0.001071	0.000978				179.163565	-0.369210	-43.210809
00427	455098	0.072344	0.106709	-9.821966				-0.007099	0.000077	-0.002213				179.163811	-0.368802	-43.210790
00428	455148	0.065512	0.128908	-9.832483				-0.000287	-0.000350	-0.001430				179.163726	-0.368695	-43.210375
00429	455198	0.065440	0.120202	-9.829367				-0.003559	0.004088	-0.000244				179.164989	-0.369444	-43.210902
00430	455248	0.076837	0.136282	-9.818161				-0.004396	0.003164	-0.000313				179.163729	-0.370349	-43.210795
00431	455298	0.090435	0.109596	-9.808405				-0.008486	0.002836	0.000014				179.163582	-0.370740	-43.211385
00432	455348	0.081300	0.121150	-9.818660				-0.002307	0.001778	-0.001221				179.162918	-0.371244	-43.211029
00433	455398	0.099904	0.128852	-9.834094				-0.007342	0.003916	-0.002100				179.163094	-0.371937	-43.211017
00434	455448	0.072811	0.130068	-9.846661				-0.004346	0.002287	-0.002436				179.161845	-0.372582	-43.210304
00435	455498	0.078524	0.123545	-9.805943				-0.002403	0.001679	-0.001930				179.163436	-0.372633	-43.210372
00436	455548	0.089793	0.124069	-9.803603				-0.002796	0.004224	-0.001181				179.162633	-0.373838	-43.210018
00437	455598	0.078896	0.124047	-9.835661				-0.005095	-0.001080	0.000888				179.163458	-0.373111	-43.210882
00438	455648	0.095041	0.118026	-9.821124				-0.000510	-0.002491	-0.002023				179.163308	-0.372389	-43.210314
00439	455698	0.070851	0.118719	-9.811894				-0.000397	0.002398	-0.000875				179.165477	-0.372652	-43.210654
00440	455748	0.067107	0.116953	-9.802051				-0.004529	-0.002111	-0.002360				179.164175	-0.372037	-43.209992
00441	455798	0.065675	0.106278	-9.809228				-0.002852	-0.000533	-0.005597				179.165631	-0.371440	-43.208992
00442	455848	0.078118	0.121636	-9.822714				-0.003414	-0.002800	-0.000828				179.164651	-0.370635	-43.208763
00443	455898	0.059091	0.131246	-9.832932				-0.002728	0.000798	-0.003217				179.166147	-0.370429	-43.208457
00444	455948	0.075013	0.110909	-9.827009				0.000484	0.001831	-0.000045				179.166286	-0.370953	-43.208442
00445	455998	0.026275	0.134752	-9.826294				-0.001393	-0.001957	-0.001691				179.168168	-0.369965	-43.208575
00446	456048	0.039938	0.114199	-9.815095				-0.003514	0.003698	0.000364				179.167162	-0.371025	-43.208663
00447	456098	0.074050	0.126736	-9.819819				-0.000723	0.001124	-0.002100				179.169234	-0.370917	-43.208694
00448	456148	0.049789	0.112330	-9.823767				-0.004426	0.003100	-0.000470				179.167965	-0.371803	-43.208551
00449	456198	0.057976	0.116107	-9.815906				-0.003336	0.001120	0.001051				179.169295	-0.371708	-43.209443
00450	456248	0.063933	0.121295	-9.787657				-0.006663	0.000799	-0.000736				179.167385	-0.371934	-43.209232
00451	456298	0.069636	0.132370	-9.814290				-0.004781	-0.000209	-0.003407				179.168293	-0.371438	-43.208882
00452	456348	0.077262	0.114243	-9.836131				-0.002344	0.004140	-0.000795				179.167619	-0.372621	-43.208635
00453	456398	0.103784	0.115951	-9.830279				-0.006227	0.001195	-0.000481				179.168118	-0.372539	-43.209103
00454	456448	0.092001	0.123698	-9.825902				-0.001488	0.001243	-0.000270				179.167692	-0.372894	-43.209025
00455	456498	0.082267	0.123576	-9.834717				-0.002156	0.001042	-0.000713				179.169355	-0.372768	-43.209413
00456	456548	0.086677	0.118814	-9.811258				-0.005094	-0.000143	-0.000009				179.167896	-0.372727	-43.209406
00457	456598	0.083606	0.146595	-9.838571				-0.002002	-0.000805	-0.001238				179.169603	-0.372070	-43.209664
00458	456648	0.097431	0.112079	-9.836479				-0.001898	-0.000083	-0.000404				179.169059	-0.372045	-43.209546
00459	456698	0.083815	0.100605	-9.802849				-0.004242	0.000264	0.000153				179.170127	-0.371700	-43.210179
00460	456748	0.075202	0.123799	-9.811919				-0.003127	0.000340	-0.002864				179.169226	-0.371785	-43.209359
00461	456798	0.083733	0.116264	-9.825861				-0.002306	0.000480	-0.004407				179.170840	-0.371484	-43.208712
00462	456848	0.067540	0.127528	-9.823862				-0.006403	-0.002494	-0.001364				179.169003	-0.370764	-43.208332
00463	456898	0.049009	0.145832	-9.818500				-0.002360	-0.000520	-0.001907				179.170607	-0.370186	-43.208392
00464	456948	0.065778	0.098455	-9.816897				-0.005097	-0.000245	-0.002382				179.169143	-0.370106	-43.207711
00465	456998	0.064459	0.115301	-9.835109				-0.006094	-0.002329	-0.002004				179.169677	-0.369009	-43.207765
00466	457048	0.056613	0.111289	-9.830032				-0.004147	-0.002038	-0.002137				179.168485	-0.368417	-43.207159
00467	457098	0.064934	0.108991	-9.825521				-0.004239	-0.002433	-0.006373				179.169542	-0.367272	-43.205966
00468	457148	0.067006	0.098506	-9.820256				-0.005089	-0.000499	-0.001581				179.168081	-0.367123	-43.205520
00469	457198	0.061070	0.103233	-9.825502				-0.002827	0.001161	0.001180				179.169557	-0.367039	-43.206464
00470	457248	0.050300	0.124413	-9.824010				-0.003239	0.000828	-0.001257				179.168627	-0.367271	-43.206109
00471	457298	0.076276	0.110286	-9.828458				-0.003014	0.002895	-0.001950				179.170044	-0.367671	-43.206158
00472	457348	0.082017	0.114875	-9.840473				-0.004395	0.003335	0.002575				179.168789	-0.368637	-43.206885
00473	457398	0.074131	0.137942	-9.821022				-0.003052	0.000788	-0.003953				179.170191	-0.368425	-43.206355
00474	457448	0.083630	0.141267	-9.813405				-0.003801	0.001463	-0.001095				179.169100	-0.368840	-43.206038
00475	457498	0.088502	0.118165	-9.818699				-0.002132	0.001462	-0.000974				179.170771	-0.368833	-43.206370
00476	457548	0.097160	0.128033	-9.825933				-0.002328	0.000583	-0.000270				179.170103	-0.368999	-43.206291
00477	457598	0.072790	0.129811	-9.820292				-0.004179	-0.000609	0.001370				179.171192	-0.368409	-43.207290
00478	457648	0.079871	0.127604	-9.823927				-0.002006	0.003296	-0.004076				179.170610	-0.369336	-43.206110
00479	457698	0.071218	0.130234	-9.830118				-0.004272	0.000801	-0.004239				179.171661	-0.369127	-43.205503
00480	457748	0.080148	0.130840	-9.813387				-0.004996	0.000726	-0.002315				179.170226	-0.369326	-43.204835
00481	457798	0.086393	0.115732	-9.833781				-0.001886	-0.000416	-0.001944				179.171965	-0.368777	-43.204880
00482	457848	0.085761	0.123751	-9.829227				-0.003090	0.000145	-0.001456				179.171077	-0.368813	-43.204460
00483	457898	0.056767	0.125015	-9.808948				-0.004422	-0.004530	-0.002341				179.172089	-0.367084	-43.204429
00484	457948	0.048053	0.122715	-9.812262				-0.002522	-0.002520	-0.000507				179.171366	-0.366360	-43.204294
00485	457998	0.063949	0.118002	-9.824566				-0.004973	-0.000143	-0.002160				179.172220	-0.365889	-43.204292
00486	458048	0.077395	0.115097	-9.839728				-0.008208	0.000732	-0.003523				179.169862	-0.366084	-43.203282
00487	458098	0.071408	0.115917	-9.818372				-0.006174	0.003715	-0.001010				179.170375	-0.366723	-43.203593
00488	458148	0.041953	0.127651	-9.821818				-0.004154	0.001816	0.002182				179.169189	-0.367252	-43.204217
00489	458198	0.053479	0.141749	-9.823079				-0.003906	0.003486	-0.005315				179.170343	-0.367807	-43.203272
00490	458248	0.063812	0.116293	-9.842537				-0.001344	0.000695	-0.000847				179.169957	-0.368003	-43.203018
00491	458298	0.057466	0.129040	-9.833877				0.000006	0.002859	0.000058				179.172242	-0.368400	-43.203644
00492	458348	0.072420	0.120839	-9.817894				-0.002991	0.000051	-0.001615				179.171382	-0.368408	-43.203180
00493	458398	0.074659	0.117678	-9.815510				-0.003437	0.002917	-0.003749				179.172673	-0.368807	-43.202694
00494	458448	0.081153	0.135411	-9.812913				-0.006522	0.005616	-0.000744				179.170803	-0.370413	-43.202460
00495	458498	0.081760	0.136226	-9.807166				-0.006163	0.001027	-0.003752				179.171314	-0.370270	-43.201987
00496	458548	0.088095	0.127264	-9.830200				-0.000585	-0.001469	-0.006089				179.171136	-0.369824	-43.200247
00497	458598	0.090348	0.131305	-9.819187				-0.004757	-0.002919	-0.001371				179.172053	-0.368560	-43.200488
00498	458648	0.087552	0.114668	-9.826597				-0.003324	-0.000662	-0.001270				179.171098	-0.368365	-43.200122
00499	458698	0.075662	0.134917	-9.833736				-0.006345	-0.002004	0.002422				179.171567	-0.367380	-43.201440
00500	458748	0.107131	0.096404	-9.836275				-0.005150	0.000501	0.000252				179.170093	-0.367525	-43.201512
00501	458798	0.091775	0.116204	-9.815597				-0.002199	0.001391	-0.000395				179.171744	-0.367500	-43.202005
00502	458848	0.084005	0.126500	-9.820111				-0.005804	-0.000061	-0.000168				179.170081	-0.367482	-43.201961
00503	458898	0.059565	0.103343	-9.806327				-0.002722	0.002872	-0.000797				179.171582	-0.367881	-43.202329
00504	458948	0.061825	0.123667	-9.843001				-0.004255	0.001318	-0.004168				179.170356	-0.368241	-43.201136
00505	458998	0.064687	0.131927	-9.820971				-0.003894	-0.000636	0.000659				179.171524	-0.367640	-43.201923
00506	459048	0.059116	0.120278	-9.814707				0.000148	0.001074	-0.002640				179.171561	-0.367937	-43.201167
00507	459098	0.044313	0.124246	-9.823030				-0.000558	0.000295	0.000273				179.173684	-0.367602	-43.201845
00508	459148	0.048126	0.126229	-9.832150				-0.005727	-0.001907	-0.003252				179.172038	-0.367042	-43.200924
00509	459198	0.052651	0.113838	-9.832411				-0.002022	0.003145	0.000773				179.173742	-0.367525	-43.201726
00510	459248	0.060207	0.111903	-9.820710				-0.003171	0.002126	0.002696				179.172839	-0.368145	-43.202494
00511	459298	0.071476	0.101252	-9.824117				-0.004984	-0.000951	-0.001712				179.173691	-0.367444	-43.202621
00512	459348	0.083472	0.097957	-9.812912				-0.005811	0.001100	-0.002439				179.172021	-0.367749	-43.201915
00513	459398	0.075042	0.124200	-9.817192				-0.006507	0.001898	-0.002338				179.172435	-0.367862	-43.201855
00514	459448	0.085927	0.116727	-9.836420				-0.003374	-0.000386	-0.006399				179.171457	-0.367725	-43.200021
00515	459498	0.071358	0.123220	-9.823880				-0.001465	0.003506	-0.002562				179.173315	-0.368297	-43.199899
00516	459548	0.082637	0.114098	-9.820584				-0.003709	0.002758	0.000165				179.172253	-0.369088	-43.199943
00517	459598	0.093780	0.122520	-9.820398				-0.004578	-0.001364	-0.000048				179.173224	-0.368276	-43.200544
00518	459648	0.100214	0.113244	-9.822108				-0.007463	0.000621	-0.000963				179.171084	-0.368450	-43.200260
00519	459698	0.101925	0.128105	-9.833386				-0.004712	-0.001435	-0.003229				179.172011	-0.367604	-43.199944
00520	459748	0.092410	0.122885	-9.810567				-0.006785	0.001602	-0.001248				179.170065	-0.368058	-43.199580
00521	459798	0.077595	0.129941	-9.807142				-0.002978	0.003966	0.000329				179.171495	-0.368774	-43.200251
00522	459848	0.078948	0.122709	-9.795888				-0.004543	0.001543	-0.000998				179.170192	-0.369212	-43.199957
00523	459898	0.085244	0.095442	-9.810763				-0.003723	-0.002362	-0.002851				179.171403	-0.368103	-43.199763
00524	459948	0.083323	0.099167	-9.836159				-0.004677	0.001564	-0.003146				179.170057	-0.368537	-43.198854
00525	459998	0.060215	0.124433	-9.814001				-0.004972	0.001114	-0.000773				179.170915	-0.368433	-43.199252
00526	460048	0.054885	0.115091	-9.812299				-0.005948	-0.000519	0.000723				179.169212	-0.368287	-43.199458
00527	460098	0.044096	0.131709	-9.838130				-0.002591	0.000967	0.002167				179.170757	-0.368152	-43.200686
00528	460148	0.060280	0.125746	-9.827180				-0.001968	0.000028	-0.003418				179.170187	-0.368146	-43.199709
00529	460198	0.085191	0.114265	-9.829698				-0.004338	-0.001110	-0.001817				179.171224	-0.367399	-43.199815
00530	460248	0.053944	0.116314	-9.818516				-0.004309	-0.000075	-0.002965				179.169984	-0.367366	-43.198966
00531	460298	0.059667	0.120251	-9.802256				-0.005786	-0.001548	0.000723				179.170611	-0.366504	-43.199770
00532	460348	0.062122	0.119256	-9.848518				-0.005078	-0.000800	-0.001425				179.169153	-0.366268	-43.199366
00533	460398	0.069022	0.121124	-9.832254				-0.007328	0.002623	-0.001275				179.169335	-0.366593	-43.199599
00534	460448	0.079570	0.129984	-9.821527				-0.004766	0.002700	-0.000063				179.167969	-0.367366	-43.199574
00535	460498	0.069632	0.125410	-9.820288				-0.005765	0.005110	0.001077				179.168603	-0.368413	-43.200456
00536	460548	0.075659	0.133700	-9.819833				-0.004123	0.001450	-0.000714				179.167420	-0.368826	-43.200251
00537	460598	0.084770	0.129247	-9.819163				-0.001246	0.001693	-0.000655				179.169344	-0.368886	-43.200659
00538	460648	0.090061	0.125013	-9.830208				-0.004567	0.000147	-0.002579				179.168031	-0.368918	-43.199921
00539	460698	0.086341	0.113985	-9.826347				-0.002265	-0.002689	-0.001866				179.169662	-0.367718	-43.199997
00540	460748	0.091936	0.115158	-9.834530				-0.005233	0.001845	-0.004013				179.168155	-0.368230	-43.198841
00541	460798	0.083338	0.117984	-9.821546				-0.004985	0.004604	-0.000311				179.169009	-0.369127	-43.199331
00542	460848	0.084727	0.114863	-9.829216				-0.001907	0.000095	-0.002015				179.168459	-0.369145	-43.198757
00543	460898	0.076667	0.123410	-9.816717				-0.002682	-0.001626	-0.000734				179.169972	-0.368256	-43.199151
00544	460948	0.074182	0.128736	-9.806163				-0.004177	0.000960	-0.002702				179.168770	-0.368520	-43.198376
00545	460998	0.071085	0.118205	-9.807820				-0.002930	0.003280	-0.000516				179.170212	-0.369037	-43.198823
00546	461048	0.075173	0.112988	-9.822700				-0.000516	-0.000433	-0.002430				179.170060	-0.368902	-43.198132
00547	461098	0.053650	0.137209	-9.833386				-0.005259	0.004014	-0.002492				179.170831	-0.369621	-43.197995
00548	461148	0.067397	0.134967	-9.805411				-0.001827	-0.002492	-0.003559				179.170301	-0.368892	-43.196984
00549	461198	0.054565	0.117361	-9.811570				-0.002757	-0.000271	-0.000946				179.171792	-0.368390	-43.197351
00550	461248	0.062410	0.113471	-9.829826				-0.003312	0.001977	-0.002767				179.170838	-0.368945	-43.196548
00551	461298	0.059466	0.124516	-9.839641				-0.002353	0.000793	-0.005788				179.172437	-0.368727	-43.195496
00552	461348	0.067754	0.116503	-9.818827				-0.002673	0.001383	0.000406				179.171672	-0.369125	-43.195606
00553	461398	0.057675	0.132983	-9.848980				-0.005314	-0.001615	-0.003482				179.172426	-0.368227	-43.195245
00554	461448	0.067982	0.124192	-9.825299				-0.003245	0.002916	-0.003050				179.171491	-0.369049	-43.194367
00555	461498	0.070738	0.113275	-9.822199				-0.004285	0.002480	-0.001217				179.172544	-0.369333	-43.194599
00556	461548	0.064436	0.120496	-9.831277				-0.004946	0.000945	-0.004080				179.171120	-0.369587	-43.193428
00557	461598	0.079050	0.134443	-9.829432				-0.000152	0.003523	-0.002671				179.173354	-0.370163	-43.193252
00558	461648	0.098022	0.100901	-9.808918				-0.006390	-0.002116	-0.002429				179.171519	-0.369547	-43.192567
00559	461698	0.097258	0.115668	-9.806518				-0.001761	0.001817	-0.000241				179.173297	-0.369646	-43.193097
00560	461748	0.097704	0.112587	-9.805797				-0.001995	-0.000362	-0.004387				179.172717	-0.369524	-43.191835
00561	461798	0.075650	0.110303	-9.804966				-0.004444	0.002480	-0.002533				179.173722	-0.369802	-43.191724
00562	461848	0.100076	0.108871	-9.824741				-0.003437	0.001945	-0.002158				179.172734	-0.370351	-43.191099
00563	461898	0.075558	0.138932	-9.822229				-0.004100	-0.001393	-0.001913				179.173839	-0.369523	-43.191151
00564	461948	0.079051	0.108540	-9.815531				-0.003392	0.000689	-0.000015				179.172867	-0.369720	-43.191137
00565	461998	0.088769	0.110495	-9.829244				-0.004013	-0.001106	-0.000698				179.173999	-0.368980	-43.191556
00566	462048	0.060200	0.117138	-9.833643				-0.004427	-0.000174	-0.002352				179.172727	-0.368920	-43.190880
00567	462098	0.054751	0.130088	-9.828352				-0.006633	-0.000178	-0.000330				179.173109	-0.368447	-43.191404
00568	462148	0.048387	0.127316	-9.824485				-0.007020	0.000913	-0.001283				179.171096	-0.368703	-43.191035
00569	462198	0.058016	0.120605	-9.822372				-0.009038	0.002043	0.000653				179.170791	-0.368870	-43.191821
00570	462248	0.065346	0.119218	-9.815463				-0.003195	0.000527	-0.000818				179.169874	-0.369017	-43.191582
00571	462298	0.059452	0.117492	-9.830286				-0.004392	0.000732	-0.003505				179.170892	-0.368791	-43.191198
00572	462348	0.046634	0.117756	-9.822309				-0.005952	0.001712	-0.000286				179.169186	-0.369281	-43.191113
00573	462398	0.064178	0.120142	-9.834628				-0.001495	0.000332	-0.002266				179.171036	-0.368945	-43.191062
00574	462448	0.053549	0.127602	-9.829544				-0.002876	-0.001967	-0.005833				179.170202	-0.368357	-43.189401
00575	462498	0.053767	0.129183	-9.819720				-0.005151	-0.000571	-0.002165				179.171004	-0.367764	-43.189379
00576	462548	0.071473	0.120440	-9.828433				-0.002253	-0.003370	-0.004143				179.170351	-0.366781	-43.188214
00577	462598	0.071733	0.119003	-9.809746				-0.002608	0.001124	-0.002100				179.171883	-0.366673	-43.188228
00578	462648	0.076239	0.109108	-9.821268				-0.005081	0.003635	0.000778				179.170429	-0.367718	-43.188430
00579	462698	0.082266	0.129457	-9.810520				-0.000085	0.000356	-0.000601				179.172686	-0.367396	-43.188885
00580	462748	0.088885	0.103052	-9.820374				-0.003402	0.000877	-0.001869				179.171708	-0.367639	-43.188342
00581	462798	0.097054	0.103795	-9.834554				-0.003401	0.000716	-0.002293				179.173013	-0.367413	-43.188295
00582	462848	0.083041	0.101992	-9.836637				-0.002434	0.001670	-0.001424				179.172313	-0.367885	-43.187881
00583	462898	0.079246	0.118388	-9.806906				-0.005491	-0.002069	-0.002814				179.173017	-0.366860	-43.187683
00584	462948	0.083732	0.133862	-9.830895				-0.001422	-0.001090	-0.001822				179.172607	-0.366540	-43.187164
00585	462998	0.078524	0.127222	-9.827037				-0.005595	-0.002681	-0.000601				179.173286	-0.365349	-43.187607
00586	463048	0.073606	0.122008	-9.817183				-0.003709	-0.000615	-0.002325				179.172219	-0.365163	-43.186943
00587	463098	0.073293	0.105691	-9.818608				-0.006495	-0.001827	-0.002678				179.172637	-0.364207	-43.186819
00588	463148	0.069935	0.108321	-9.808055				-0.006518	0.000146	-0.002705				179.170764	-0.364238	-43.186041
00589	463198	0.065704	0.122679	-9.820498				-0.005582	-0.001933	0.000814				179.171450	-0.363267	-43.186902
00590	463248	0.074638	0.106693	-9.837070				-0.004970	0.000919	0.000409				179.170027	-0.363531	-43.187016
00591	463298	0.066542	0.122398	-9.833442				-0.005985	-0.000690	-0.003700				179.170589	-0.362897	-43.186562
00592	463348	0.050643	0.131432	-9.816830				-0.002515	0.000186	-0.002616				179.169864	-0.362939	-43.185815
00593	463398	0.051978	0.114891	-9.835047				-0.002707	0.003413	-0.000990				179.171369	-0.363492	-43.186131
00594	463448	0.085896	0.107744	-9.807663				-0.003222	0.001271	-0.002705				179.170441	-0.363845	-43.185348
00595	463498	0.056578	0.125030	-9.827885				-0.004610	-0.004442	-0.000001				179.171404	-0.362151	-43.185981
00596	463548	0.059338	0.138413	-9.838449				-0.002967	0.002436	-0.002284				179.170550	-0.362839	-43.185320
00597	463598	0.054010	0.119740	-9.819242				-0.007266	0.002982	0.001518				179.170754	-0.363278	-43.186354
00598	463648	0.070542	0.129290	-9.822441				-0.007617	0.003582	-0.001942				179.168568	-0.364296	-43.185785
00599	463698	0.076888	0.112092	-9.817198				-0.004919	0.001977	-0.005741				179.169431	-0.364417	-43.184745
00600	463748	0.076204	0.121999	-9.817435				-0.003085	0.000881	-0.002515				179.168543	-0.364659	-43.184021
00601	463798	0.071989	0.125290	-9.815976				-0.004069	0.002706	-0.002886				179.169655	-0.365000	-43.183773
00602	463848	0.081594	0.118368	-9.792532				-0.002941	-0.000601	-0.002750				179.168808	-0.364817	-43.182991
00603	463898	0.085623	0.120061	-9.829469				0.000446	-0.002188	-0.000743				179.171217	-0.363766	-43.183401
00604	463948	0.084541	0.120532	-9.833778				-0.004750	0.006057	-0.002675				179.169852	-0.365490	-43.182613
00605	463998	0.082164	0.115298	-9.835439				-0.006537	0.001924	-0.000993				179.170261	-0.365615	-43.182931
00606	464048	0.096970	0.107654	-9.841980				-0.000703	-0.002466	-0.001324				179.170057	-0.364903	-43.182563
00607	464098	0.074526	0.136045	-9.808317				-0.000828	-0.001471	-0.001345				179.172100	-0.364055	-43.182818
00608	464148	0.087440	0.118432	-9.806473				-0.002164	0.003156	-0.004365				179.171472	-0.364941	-43.181551
00609	464198	0.067431	0.132051	-9.807569				-0.007519	-0.000685	-0.002929				179.171596	-0.364312	-43.181322
00610	464248	0.062132	0.135177	-9.818089				-0.003804	0.002586	-0.001830				179.170502	-0.365045	-43.180786
00611	464298	0.061140	0.126718	-9.799387				-0.002820	0.004961	-0.001753				179.171974	-0.366037	-43.180858
00612	464348	0.057990	0.115152	-9.817340				-0.002708	0.000446	0.000688				179.171200	-0.366168	-43.181055
00613	464398	0.045186	0.130096	-9.813447				-0.003180	0.001308	0.000316				179.172572	-0.366123	-43.181744
00614	464448	0.059573	0.122501	-9.819987				-0.000441	0.000381	-0.003970				179.172439	-0.366215	-43.180604
00615	464498	0.064128	0.126548	-9.825769				-0.004834	0.001797	-0.001091				179.173335	-0.366304	-43.180915
00616	464548	0.054170	0.116237	-9.831223				-0.003206	-0.001252	-0.001881				179.172414	-0.365937	-43.180380
00617	464598	0.044960	0.112707	-9.838608				-0.002453	-0.004053	-0.002926				179.173989	-0.364342	-43.180169
00618	464648	0.070017	0.111267	-9.828425				-0.005978	0.000318	-0.001771				179.172273	-0.364426	-43.179654
00619	464698	0.075805	0.110220	-9.823427				-0.003467	0.003078	-0.000293				179.173563	-0.364885	-43.180174
00620	464748	0.074565	0.124245	-9.822462				-0.005308	0.000493	-0.000267				179.172041	-0.365025	-43.180098
00621	464798	0.074794	0.128464	-9.823181				-0.002240	0.001577	-0.002868				179.173677	-0.365043	-43.179860
00622	464848	0.071362	0.122407	-9.831552				-0.003216	0.002410	0.001027				179.172757	-0.365738	-43.180143
00623	464898	0.090183	0.108900	-9.811512				-0.005555	0.001066	-0.002123				179.173445	-0.365612	-43.180136
00624	464948	0.099381	0.114269	-9.842227				0.001523	0.001456	0.000779				179.173882	-0.366033	-43.180357
00625	464998	0.063806	0.106302	-9.809698				-0.002871	0.002278	-0.002088				179.175339	-0.366255	-43.180348
00626	465048	0.085237	0.111239	-9.818919				-0.004904	0.001722	-0.003181				179.173928	-0.366735	-43.179426
00627	465098	0.084884	0.104444	-9.824429				-0.003441	0.002107	-0.002733				179.175221	-0.366906	-43.179246
00628	465148	0.077605	0.127899	-9.831100				-0.002149	-0.001299	-0.002306				179.174601	-0.366524	-43.178584
00629	465198	0.072372	0.108045	-9.837061				-0.002530	-0.003563	-0.001578				179.176157	-0.365075	-43.178764
00630	465248	0.067099	0.121839	-9.830336				-0.001559	0.004564	-0.001983				179.175707	-0.366375	-43.178172
00631	465298	0.061417	0.117335	-9.820475				-0.001817	0.003789	0.000833				179.177471	-0.367042	-43.179010
00632	465348	0.068200	0.114034	-9.816434				-0.003128	0.000238	-0.001718				179.176572	-0.367103	-43.178511
00633	465398	0.057028	0.113029	-9.813745				-0.005433	-0.000577	-0.000910				179.177297	-0.366512	-43.178880
00634	465448	0.047055	0.130156	-9.829268				-0.004701	-0.002567	0.000297				179.175951	-0.365778	-43.178979
00635	465498	0.036357	0.131831	-9.810047				-0.002229	0.000613	0.000244				179.177596	-0.365533	-43.179650
00636	465548	0.043134	0.128219	-9.817513				-0.002389	0.003416	-0.001187				179.176909	-0.366506	-43.179301
00637	465598	0.040229	0.118146	-9.840021				-0.004806	0.000431	-0.003787				179.177808	-0.366192	-43.178804
00638	465648	0.047442	0.136356	-9.816809				-0.003517	-0.000411	-0.000014				179.176800	-0.366074	-43.178804
00639	465698	0.065848	0.125586	-9.808762				-0.004258	-0.000659	-0.004669				179.177855	-0.365444	-43.178074
00640	465748	0.074390	0.120860	-9.806887				-0.001826	0.005017	-0.000348				179.177331	-0.366880	-43.177953
00641	465798	0.089515	0.107342	-9.822292				-0.003149	-0.000054	-0.001461				179.178708	-0.366436	-43.178145
00642	465848	0.091084	0.103853	-9.794741				-0.002709	0.000410	-0.001204				179.177930	-0.366549	-43.177804
00643	465898	0.088701	0.122622	-9.816059				-0.003943	-0.004663	-0.004277				179.179075	-0.364773	-43.177189
00644	465948	0.074626	0.133002	-9.821026				-0.004266	-0.002036	0.001261				179.177856	-0.364195	-43.177560
00645	465998	0.088872	0.117170	-9.802881				-0.001984	0.002450	-0.004503				179.179561	-0.364456	-43.176866
00646	466048	0.083085	0.097003	-9.815545				-0.005333	-0.003196	-0.002723				179.178029	-0.363530	-43.176100
00647	466098	0.082078	0.124879	-9.823452				-0.005440	-0.003652	-0.002244				179.178750	-0.362052	-43.176085
00648	466148	0.076608	0.124796	-9.854344				-0.005269	-0.001704	0.000363				179.177241	-0.361566	-43.176192
00649	466198	0.070935	0.113542	-9.821240				-0.005800	0.000942	0.001210				179.177865	-0.361419	-43.177153
00650	466248	0.067742	0.112762	-9.808276				-0.003237	0.002018	0.001179				179.176940	-0.362002	-43.177481
00651	466298	0.051809	0.136885	-9.818034				-0.004043	0.000827	-0.004020				179.178057	-0.361800	-43.176921
00652	466348	0.048103	0.125892	-9.827362				-0.003515	-0.000510	-0.000401				179.177050	-0.361652	-43.176808
00653	466398	0.060672	0.121183	-9.837728				-0.003452	0.000525	-0.000303				179.178343	-0.361379	-43.177326
00654	466448	0.051581	0.109746	-9.814672				-0.001353	-0.001054	-0.000828				179.177954	-0.361074	-43.177095
00655	466498	0.062770	0.116516	-9.815207				0.000224	-0.000550	-0.005034				179.180292	-0.360474	-43.176269
00656	466548	0.073818	0.115029	-9.798491				-0.003356	-0.000412	-0.001142				179.179328	-0.360351	-43.175940
00657	466598	0.064132	0.130908	-9.830799				-0.005121	0.002427	-0.005160				179.180135	-0.360602	-43.175056
00658	466648	0.078704	0.111709	-9.823198				-0.002942	-0.001765	-0.002947				179.179287	-0.360084	-43.174225
00659	466698	0.067940	0.108645	-9.832255				-0.004006	0.001236	0.003841				179.180429	-0.360031	-43.175926
00660	466748	0.062528	0.114516	-9.834370				-0.000773	-0.003409	-0.003570				179.180201	-0.359040	-43.174917
00661	466798	0.089037	0.109337	-9.819894				-0.002386	0.000020	-0.003775				179.181794	-0.358608	-43.174448
00662	466848	0.052729	0.130298	-9.845597				-0.004885	-0.000764	-0.000816				179.180393	-0.358386	-43.174219
00663	466898	0.081765	0.120636	-9.825376				-0.007395	-0.000449	-0.000362				179.180557	-0.357834	-43.174719
00664	466948	0.094721	0.101046	-9.796195				-0.001677	0.001206	-0.000722				179.180075	-0.358176	-43.174511
00665	466998	0.063927	0.139777	-9.823850				-0.005620	0.001460	0.000643				179.180749	-0.358175	-43.175271
00666	467048	0.072610	0.121796	-9.801364				-0.005367	0.001629	0.002212				179.179216	-0.358651	-43.175899
00667	467098	0.083845	0.119469	-9.808846				-0.005329	0.002106	-0.002536				179.179967	-0.358821	-43.175772
00668	467148	0.105494	0.120225	-9.829327				-0.004025	-0.003844	0.000537				179.178815	-0.357722	-43.175953
00669	467198	0.086006	0.127527	-9.825162				-0.004637	0.001272	-0.003507				179.179764	-0.357650	-43.175549
00670	467248	0.065165	0.114823	-9.822651				-0.003328	0.000294	-0.004601				179.178802	-0.357715	-43.174229
00671	467298	0.086334	0.141898	-9.837385				-0.003044	-0.000241	-0.000980				179.180211	-0.357220	-43.174549
00672	467348	0.058116	0.122894	-9.814712				-0.002506	0.001022	-0.001871				179.179489	-0.357505	-43.174008
00673	467398	0.062501	0.137807	-9.831989				-0.004404	-0.000983	-0.002228				179.180507	-0.356792	-43.173984
00674	467448	0.077564	0.112147	-9.823431				-0.004715	0.001023	0.000186				179.179156	-0.357086	-43.174028
00675	467498	0.054675	0.133978	-9.822849				-0.004806	0.001051	0.001312				179.180065	-0.356971	-43.175009
00676	467548	0.038197	0.137218	-9.824433				-0.001593	-0.000608	-0.001501				179.179606	-0.356790	-43.174585
00677	467598	0.052406	0.120080	-9.814680				-0.004727	0.000212	-0.002158				179.180530	-0.356420	-43.174564
00678	467648	0.041759	0.104879	-9.829720				-0.001549	-0.000195	-0.004671				179.180078	-0.356345	-43.173224
00679	467698	0.066291	0.116396	-9.813790				-0.003779	-0.000990	0.002868				179.181283	-0.355651	-43.174662
00680	467748	0.067223	0.120875	-9.821459				-0.006311	-0.001468	-0.003320				179.179469	-0.355216	-43.173711
00681	467798	0.077413	0.112219	-9.827028				-0.003521	0.001784	0.000087				179.180742	-0.355306	-43.174334
00682	467848	0.066454	0.095355	-9.833439				-0.002584	0.000678	0.002007				179.180006	-0.355508	-43.174909
00683	467898	0.087399	0.114694	-9.835940				-0.004850	0.000142	-0.000272				179.180898	-0.355125	-43.175427
00684	467948	0.071049	0.120779	-9.826029				-0.005035	0.000081	0.001338				179.179458	-0.355154	-43.175816
00685	467998	0.079651	0.144168	-9.823452				-0.002741	0.003744	0.001412				179.180958	-0.355809	-43.176813
00686	468048	0.090050	0.109651	-9.817023				-0.003799	0.003361	-0.001958				179.179866	-0.356764	-43.176240
00687	468098	0.085130	0.123133	-9.834737				-0.004306	-0.000653	0.000303				179.180916	-0.356156	-43.176939
00688	468148	0.084377	0.135323	-9.798071				-0.003295	0.003920	-0.000738				179.179970	-0.357276	-43.176706
00689	468198	0.082745	0.118876	-9.820105				-0.004761	0.000501	-0.000492				179.180888	-0.356995	-43.177166
00690	468248	0.088688	0.122562	-9.824929				-0.004913	0.001141	-0.000776				179.179479	-0.357319	-43.176942
00691	468298	0.081416	0.117161	-9.837831				-0.002626	0.000902	0.001687				179.181012	-0.357162	-43.178030
00692	468348	0.053767	0.124552	-9.801023				-0.002012	0.000584	-0.001331				179.180433	-0.357324	-43.177645
00693	468398	0.055010	0.135346	-9.838422				-0.001394	0.001468	0.001080				179.182318	-0.357327	-43.178553
00694	468448	0.054422	0.132169	-9.812536				-0.006226	0.000118	-0.001803				179.180531	-0.357353	-43.178035
00695	468498	0.050748	0.126230	-9.822100				-0.001848	0.001390	-0.003123				179.182278	-0.357316	-43.177741
00696	468548	0.060589	0.122660	-9.830054				-0.000278	-0.000451	0.000294				179.182199	-0.357188	-43.177829
00697	468598	0.062158	0.115829	-9.825747				-0.003883	-0.004297	-0.000453				179.183368	-0.355532	-43.178331
00698	468648	0.058148	0.150812	-9.822618				-0.004053	-0.004981	-0.001675				179.182204	-0.354098	-43.177874
00699	468698	0.055807	0.133277	-9.806553				-0.004063	0.001416	-0.003436				179.183316	-0.354068	-43.177475
00700	468748	0.069252	0.127147	-9.815962				-0.005686	0.000455	-0.000007				179.181687	-0.354198	-43.177473
00701	468798	0.074930	0.102460	-9.829645				-0.001504	0.001822	-0.000814				179.183536	-0.354294	-43.177832
00702	468848	0.063860	0.126105	-9.830316				-0.002712	-0.000022	-0.007142				179.182746	-0.354258	-43.175789
00703	468898	0.077440	0.104435	-9.819598				-0.001466	0.002528	-0.001645				179.184605	-0.354553	-43.175914
00704	468948	0.069664	0.124458	-9.840892				-0.003879	0.001613	-0.003532				179.183488	-0.355001	-43.174896
00705	468998	0.095176	0.118754	-9.830230				-0.005835	0.001805	-0.001959				179.184095	-0.355087	-43.174937
00706	469048	0.076943	0.113465	-9.832294				-0.003394	0.000887	0.000724				179.183123	-0.355344	-43.175139
00707	469098	0.077536	0.130028	-9.825596				-0.005431	0.005762	0.001624				179.183852	-0.356579	-43.176189
00708	469148	0.100769	0.103884	-9.820668				-0.002251	0.000130	0.000751				179.183209	-0.356619	-43.176402
00709	469198	0.075622	0.129263	-9.812640				-0.002328	0.000516	0.000656				179.184825	-0.356347	-43.177194
00710	469248	0.097252	0.128134	-9.828574				-0.003431	0.003651	-0.005194				179.183832	-0.357372	-43.175693
00711	469298	0.091097	0.120073	-9.800973				-0.003899	-0.001679	-0.000954				179.184995	-0.356465	-43.176031
00712	469348	0.065266	0.138870	-9.806602				-0.005888	0.000711	-0.001257				179.183306	-0.356664	-43.175670
00713	469398	0.057148	0.120182	-9.809664				-0.000443	-0.000488	0.000070				179.185461	-0.356102	-43.176298
00714	469448	0.074178	0.122118	-9.822219				-0.003929	0.003590	-0.000346				179.184335	-0.357129	-43.176176
00715	469498	0.070092	0.116219	-9.823392				0.001455	-0.001355	0.001600				179.187036	-0.356325	-43.177261
00716	469548	0.069636	0.111571	-9.819793				-0.002897	-0.002252	-0.005516				179.186197	-0.355657	-43.175693
00717	469598	0.042967	0.139863	-9.810324				-0.006156	0.004096	-0.002774				179.186710	-0.356397	-43.175485
00718	469648	0.046126	0.117951	-9.832378				-0.007813	-0.001332	-0.000907				179.184470	-0.356012	-43.175226
00719	469698	0.065820	0.123253	-9.828411				-0.003137	0.001625	-0.002637				179.185848	-0.356044	-43.175089
00720	469748	0.054515	0.132750	-9.820930				-0.004722	0.002344	-0.000542				179.184495	-0.356713	-43.174929
00721	469798	0.056132	0.113621	-9.817334				-0.001366	0.001274	-0.002163				179.186381	-0.356647	-43.174897
00722	469848	0.071148	0.105374	-9.812374				-0.004520	0.000890	-0.002062				179.185082	-0.356893	-43.174299
00723	469898	0.073162	0.122875	-9.826766				-0.004929	0.000492	-0.003239				179.185946	-0.356598	-43.173972
00724	469948	0.072976	0.109625	-9.844734				-0.004070	-0.000197	0.000156				179.184780	-0.356543	-43.174018
00725	469998	0.074541	0.129046	-9.821501				-0.006674	0.001407	0.001933				179.185153	-0.356531	-43.175169
00726	470048	0.068698	0.117429	-9.818358				-0.002667	0.003024	-0.000565				179.184388	-0.357395	-43.174987
00727	470098	0.080338	0.121352	-9.811944				0.002434	0.003114	-0.000454				179.187366	-0.357863	-43.175454
00728	470148	0.081254	0.123578	-9.824175				-0.000692	0.000212	-0.003189				179.187162	-0.357910	-43.174541
00729	470198	0.079203	0.103219	-9.828951				-0.001680	0.001399	0.001215				179.188964	-0.357894	-43.175464
00730	470248	0.086257	0.117033	-9.823957				-0.005536	-0.002456	-0.000108				179.187378	-0.357190	-43.175437
00731	470298	0.077061	0.105506	-9.809526				-0.002164	-0.001816	-0.001398				179.189037	-0.356241	-43.175685
00732	470348	0.084380	0.113741	-9.807888				-0.005426	0.000363	0.001541				179.187485	-0.356351	-43.176130
00733	470398	0.087132	0.109902	-9.820599				-0.004823	-0.000024	-0.003884				179.188378	-0.355906	-43.175616
00734	470448	0.077604	0.113869	-9.826546				-0.002987	-0.000247	-0.001999				179.187519	-0.355827	-43.175043
00735	470498	0.078051	0.131839	-9.821037				-0.003986	0.000122	-0.000447				179.188658	-0.355438	-43.175512
00736	470548	0.054889	0.122275	-9.831710				-0.005528	0.000293	-0.001759				179.187071	-0.355515	-43.175010
00737	470598	0.059244	0.116028	-9.794340				-0.004403	-0.000557	0.002018				179.188094	-0.354941	-43.176178
00738	470648	0.060589	0.120519	-9.820951				-0.005192	0.000778	-0.002531				179.186602	-0.355154	-43.175452
00739	470698	0.064249	0.121246	-9.808023				-0.002238	-0.000658	-0.003763				179.188236	-0.354528	-43.174973
00740	470748	0.076653	0.108466	-9.812398				-0.004361	0.001595	-0.004261				179.186979	-0.354967	-43.173740
00741	470798	0.055175	0.108901	-9.817806				-0.002834	0.001244	-0.001377				179.188446	-0.354896	-43.173959
00742	470848	0.071695	0.113729	-9.820530				-0.003990	0.004619	0.000406				179.187304	-0.356221	-43.174053
00743	470898	0.060107	0.106397	-9.818305				-0.000367	0.003358	-0.001792				179.189477	-0.356753	-43.174126
00744	470948	0.069978	0.128448	-9.819322				-0.007610	0.001288	-0.001494				179.187294	-0.357116	-43.173697
00745	470998	0.063750	0.118631	-9.820252				-0.004721	0.004314	-0.002480				179.188219	-0.357919	-43.173565
00746	471048	0.091642	0.129558	-9.815360				-0.004417	0.000434	-0.003691				179.186947	-0.358028	-43.172508
00747	471098	0.065096	0.134415	-9.846623				-0.002465	0.001601	-0.001699				179.188520	-0.358057	-43.172612
00748	471148	0.076550	0.135495	-9.828465				-0.004939	-0.000987	0.000738				179.187106	-0.357777	-43.172820
00749	471198	0.092983	0.117910	-9.815604				-0.002187	0.001930	-0.002822				179.188756	-0.357896	-43.172618
00750	471248	0.072373	0.126887	-9.819567				0.000142	-0.000843	-0.003289				179.188791	-0.357641	-43.171685
00751	471298	0.099699	0.112791	-9.813486				-0.003689	0.001071	-0.000066				179.190015	-0.357525	-43.172265
00752	471348	0.098829	0.112025	-9.823300				-0.005852	0.001548	0.000714				179.188340	-0.357972	-43.172464
00753	471398	0.071319	0.126400	-9.839935				-0.005658	-0.000615	-0.000482				179.188999	-0.357371	-43.172929
00754	471448	0.071644	0.131066	-9.818607				-0.004414	0.000700	0.000130				179.187735	-0.357572	-43.172959
00755	471498	0.061671	0.124425	-9.831738				-0.003946	0.003971	-0.001679				179.188883	-0.358281	-43.173074
00756	471548	0.073736	0.126699	-9.814789				-0.005127	-0.003359	-0.002649				179.187409	-0.357308	-43.172322
00757	471598	0.065893	0.133327	-9.828892				-0.006713	-0.001704	-0.001513				179.187764	-0.356391	-43.172513
00758	471648	0.055989	0.122085	-9.822364				-0.003061	-0.001737	-0.001651				179.186884	-0.355887	-43.172043
00759	471698	0.061336	0.119824	-9.823594				-0.003617	0.003114	0.000975				179.188130	-0.356361	-43.172911
00760	471748	0.043172	0.137600	-9.815118				-0.001597	-0.000416	-0.001389				179.187670	-0.356236	-43.172507
00761	471798	0.046134	0.134323	-9.826870				-0.001299	0.000241	-0.000586				179.189579	-0.355880	-43.172971
00762	471848	0.067525	0.123305	-9.817868				-0.001987	0.003807	-0.004159				179.189002	-0.356954	-43.171758
00763	471898	0.083933	0.116744	-9.822027				-0.003009	-0.000377	-0.001969				179.190417	-0.356415	-43.171792
00764	471948	0.055780	0.135744	-9.803195				-0.002122	0.003328	-0.000053				179.189809	-0.357368	-43.171758
00765	471998	0.073154	0.109830	-9.826046				-0.007052	0.001816	-0.001655				179.190067	-0.357459	-43.171895
00766	472048	0.074138	0.120697	-9.820059				-0.007547	0.001321	-0.002361				179.187900	-0.357828	-43.171213
00767	472098	0.070338	0.111028	-9.830582				-0.004460	0.003891	-0.003573				179.188897	-0.358506	-43.170767
00768	472148	0.083341	0.125695	-9.822026				-0.001939	-0.002009	-0.003548				179.188335	-0.357916	-43.169761
00769	472198	0.079989	0.134667	-9.831843				-0.004779	0.000087	0.001729				179.189250	-0.357526	-43.170862
00770	472248	0.070867	0.121242	-9.833945				-0.002026	0.000395	0.002786				179.188675	-0.357650	-43.171654
00771	472298	0.110872	0.106026	-9.831031				-0.003067	0.002864	0.002124				179.190080	-0.358056	-43.172853
00772	472348	0.093757	0.112463	-9.825905				-0.006323	-0.001183	-0.004273				179.188261	-0.357700	-43.171629
00773	472398	0.080606	0.114711	-9.823687				0.000367	-0.001378	0.002285				179.190652	-0.356892	-43.172898
00774	472448	0.077751	0.142022	-9.805228				-0.004572	-0.002334	0.001879				179.189345	-0.356231	-43.173443
00775	472498	0.068507	0.115085	-9.834411				-0.004967	-0.002714	-0.005439				179.190194	-0.355009	-43.172509
00776	472548	0.084330	0.105064	-9.825620				-0.009479	-0.001362	-0.000673				179.187478	-0.354616	-43.172322
00777	472598	0.073854	0.105934	-9.815742				-0.008261	0.002633	-0.002640				179.187387	-0.354937	-43.172146
00778	472648	0.052422	0.140066	-9.819002				-0.005227	-0.000057	-0.001375				179.185887	-0.354915	-43.171751
00779	472698	0.033214	0.131710	-9.806673				-0.001182	0.000823	0.000640				179.187830	-0.354731	-43.172543
00780	472748	0.061740	0.104437	-9.814485				-0.002617	0.002739	0.000713				179.187081	-0.355519	-43.172737
00781	472798	0.063754	0.116114	-9.834867				-0.008872	-0.000483	-0.002432				179.186816	-0.354948	-43.172660
00782	472848	0.080153	0.118734	-9.830160				-0.004902	0.000557	-0.003077				179.185406	-0.355095	-43.171778
00783	472898	0.059168	0.115927	-9.808961				-0.003235	0.000787	-0.001220				179.186758	-0.354893	-43.172019
00784	472948	0.061163	0.115555	-9.824784				-0.000675	0.001900	-0.001445				179.186562	-0.355432	-43.171600
00785	472998	0.046821	0.121133	-9.832387				-0.003771	0.002550	-0.002297				179.187757	-0.355730	-43.171526
00786	473048	0.074771	0.105809	-9.811434				-0.005464	0.002559	-0.000241				179.186192	-0.356462	-43.171447
00787	473098	0.072316	0.104813	-9.846407				-0.001390	-0.001726	0.002354				179.188079	-0.355554	-43.172729
00788	473148	0.077579	0.120629	-9.836375				-0.002264	0.001316	-0.002982				179.187425	-0.355919	-43.171870
00789	473198	0.083907	0.117632	-9.823225				-0.001103	-0.001922	-0.000858				179.189388	-0.354942	-43.172236
00790	473248	0.065715	0.129812	-9.823139				-0.004301	0.000928	-0.002181				179.188152	-0.355199	-43.171601
00791	473298	0.079340	0.113220	-9.827275				-0.003121	0.001571	0.002892				179.189544	-0.355239	-43.173038
00792	473348	0.089306	0.117621	-9.817019				-0.001504	0.000080	0.003105				179.189118	-0.355274	-43.173924
00793	473398	0.068250	0.140151	-9.831060				-0.001314	0.001755	-0.001990				179.191019	-0.355347	-43.173969
00794	473448	0.087660	0.107800	-9.821803				-0.004555	0.000891	-0.001860				179.189711	-0.355594	-43.173433
00795	473498	0.077857	0.126148	-9.821524				-0.004005	-0.001238	-0.002192				179.190840	-0.354809	-43.173412
00796	473548	0.086865	0.129435	-9.816050				-0.000978	0.000308	0.000051				179.190560	-0.354897	-43.173416
00797	473598	0.077340	0.133369	-9.827030				-0.005406	-0.000577	-0.001351				179.191289	-0.354304	-43.173653
00798	473648	0.083368	0.100704	-9.817700				-0.001371	0.000330	-0.002668				179.190892	-0.354388	-43.172886
00799	473698	0.048866	0.115318	-9.836470				-0.004152	0.001749	0.003278				179.191988	-0.354480	-43.174411
00800	473748	0.067198	0.109402	-9.823136				-0.001685	0.000358	-0.001836				179.191502	-0.354575	-43.173883
00801	473798	0.062120	0.114707	-9.830306				-0.004261	0.000633	-0.002724				179.192557	-0.354323	-43.173735
00802	473848	0.042763	0.122756	-9.825650				-0.003015	0.002114	0.000393				179.191694	-0.354930	-43.173840
00803	473898	0.049805	0.114029	-9.841028				-0.005884	0.000381	-0.002366				179.192284	-0.354607	-43.173755
00804	473948	0.053003	0.113467	-9.822108				-0.002817	0.000628	-0.001668				179.191474	-0.354780	-43.173275
00805	473998	0.062552	0.125745	-9.802990				-0.006159	0.003353	-0.000103				179.191990	-0.355317	-43.173829
00806	474048	0.058394	0.118265	-9.819024				-0.004224	-0.001525	-0.000623				179.190779	-0.354878	-43.173660
00807	474098	0.064837	0.129398	-9.826245				-0.005336	-0.005010	-0.002849				179.191526	-0.353009	-43.173473
00808	474148	0.076794	0.116087	-9.816955				-0.004449	-0.000130	0.002401				179.190256	-0.352981	-43.174157
00809	474198	0.070837	0.130935	-9.798481				-0.002358	0.001641	-0.001058				179.191859	-0.353024	-43.174465
00810	474248	0.074299	0.148361	-9.836604				-0.002540	-0.000914	0.000180				179.191132	-0.352763	-43.174524
00811	474298	0.087978	0.120440	-9.828995				-0.002480	0.000051	-0.002449				179.192697	-0.352345	-43.174420
00812	474348	0.099204	0.119611	-9.827857				-0.003672	0.001455	-0.000896				179.191643	-0.352759	-43.174161
00813	474398	0.084744	0.128510	-9.816046				-0.003391	0.000453	-0.004175				179.192944	-0.352449	-43.173557
00814	474448	0.074564	0.136389	-9.826777				-0.003865	0.003455	-0.001429				179.191834	-0.353433	-43.173133
00815	474498	0.079525	0.132172	-9.825602				-0.005872	0.002328	0.000461				179.192433	-0.353679	-43.173857
00816	474548	0.077040	0.122949	-9.827029				-0.004932	0.002855	-0.001238				179.191018	-0.354492	-43.173493
00817	474598	0.082471	0.126883	-9.835443				-0.003926	0.000189	-0.001895				179.192169	-0.354116	-43.173547
00818	474648	0.079848	0.106053	-9.825603				-0.002535	0.001090	0.000225				179.191443	-0.354429	-43.173605
00819	474698	0.087638	0.115574	-9.834264				-0.002792	-0.000142	-0.001521				179.192920	-0.353960	-43.173778
00820	474748	0.056783	0.124150	-9.830044				-0.004873	0.001720	-0.003132				179.191518	-0.354440	-43.172875
00821	474798	0.059583	0.125836	-9.805609				-0.000674	-0.003203	0.000644				179.193606	-0.353102	-43.173669
00822	474848	0.058250	0.127633	-9.828368				-0.001755	0.003488	-0.003967				179.193096	-0.354086	-43.172515
00823	474898	0.049968	0.115275	-9.823774				-0.007070	0.001593	-0.000270				179.193350	-0.354118	-43.173035
00824	474948	0.051076	0.136820	-9.815155				-0.002729	0.002085	-0.001626				179.192565	-0.354709	-43.172560
00825	474998	0.057097	0.133906	-9.832198				-0.003878	0.001102	0.001354				179.193736	-0.354607	-43.173541
00826	475048	0.057039	0.121324	-9.832913				-0.004731	0.000004	-0.006255				179.192370	-0.354583	-43.171751
00827	475098	0.066855	0.098740	-9.818342				0.002298	0.003172	-0.001417				179.195305	-0.355063	-43.171927
00828	475148	0.062795	0.114772	-9.818321				-0.005114	0.002626	0.000205				179.193840	-0.355816	-43.171970
00829	475198	0.084934	0.120173	-9.828748				-0.004903	0.001623	-0.003039				179.194709	-0.355846	-43.171682
00830	475248	0.084780	0.127743	-9.826590				-0.005299	0.001004	-0.003267				179.193185	-0.356120	-43.170734
00831	475298	0.085633	0.111243	-9.818681				-0.002263	-0.000980	-0.003675				179.194811	-0.355401	-43.170272
00832	475348	0.087122	0.129307	-9.823965				-0.001074	0.000142	-0.002446				179.194499	-0.355432	-43.169566
00833	475398	0.087460	0.102678	-9.831868				-0.003210	-0.000957	0.000533				179.195860	-0.354738	-43.170341
00834	475448	0.087251	0.125958	-9.829715				-0.005583	0.002037	-0.001431				179.194258	-0.355315	-43.169922
00835	475498	0.074897	0.131588	-9.810721				-0.002750	0.000332	-0.005588				179.195739	-0.354966	-43.168923
00836	475548	0.077156	0.119481	-9.839724				-0.001527	0.001428	-0.000743				179.195300	-0.355372	-43.168697
00837	475598	0.093859	0.111830	-9.834294				-0.003909	-0.000559	-0.004822				179.196452	-0.354770	-43.167949
00838	475648	0.064644	0.132730	-9.813066				-0.002819	0.000627	-0.002407				179.195641	-0.354940	-43.167258
00839	475698	0.068511	0.126763	-9.821950				-0.005568	-0.002754	-0.004118				179.196317	-0.353712	-43.166690
00840	475748	0.076348	0.132692	-9.823433				-0.000072	-0.000034	-0.001426				179.196294	-0.353696	-43.166282
00841	475798	0.069354	0.139291	-9.816212				-0.006147	0.001571	-0.003226				179.196807	-0.353711	-43.165961
00842	475848	0.065164	0.137165	-9.833202				-0.005277	0.001364	-0.001275				179.195293	-0.354097	-43.165590
00843	475898	0.061418	0.120081	-9.828623				-0.002743	0.002377	-0.002915				179.196780	-0.354343	-43.165328
00844	475948	0.052427	0.135726	-9.831699				-0.003339	0.002107	-0.000825				179.195823	-0.354944	-43.165084
00845	475998	0.054185	0.137717	-9.822128				-0.003851	0.002135	-0.000115				179.196998	-0.355132	-43.165661
00846	476048	0.046797	0.127924	-9.832629				-0.008179	0.004189	-0.000802				179.194653	-0.356329	-43.165410
00847	476098	0.049752	0.112508	-9.825923				-0.002141	-0.000329	-0.000107				179.196318	-0.355811	-43.165986
00848	476148	0.086473	0.107671	-9.828744				-0.005374	0.000456	-0.002566				179.194774	-0.355931	-43.165246
00849	476198	0.069744	0.109233	-9.820993				-0.005466	0.001487	-0.001178				179.195484	-0.355930	-43.165501
00850	476248	0.066263	0.122606	-9.817629				-0.003371	0.004113	-0.000751				179.194517	-0.357105	-43.165264
00851	476298	0.075832	0.117536	-9.815752				-0.003963	0.000446	-0.002212				179.195656	-0.356801	-43.165216
00852	476348	0.096207	0.101427	-9.835980				-0.001679	0.002300	-0.000447				179.195175	-0.357458	-43.165074
00853	476398	0.088283	0.116339	-9.821812				-0.003199	0.002692	-0.001981				179.196533	-0.357798	-43.165114
00854	476448	0.084916	0.113994	-9.814121				-0.001229	0.001241	-0.001414				179.196179	-0.358148	-43.164705
00855	476498	0.088210	0.110934	-9.812455				-0.003377	-0.000995	-0.000976				179.197489	-0.357437	-43.165040
00856	476548	0.080700	0.119980	-9.801877				-0.004034	0.001840	0.000393				179.196334	-0.357965	-43.165143
00857	476598	0.058880	0.121166	-9.813039				-0.001260	0.003046	-0.003105				179.198245	-0.358403	-43.164846
00858	476648	0.079685	0.123049	-9.829914				-0.006530	0.001632	-0.001303				179.196372	-0.358865	-43.164465
00859	476698	0.080977	0.126313	-9.819380				-0.000356	0.000874	-0.000520				179.198548	-0.358691	-43.164910
00860	476748	0.065842	0.121740	-9.825052				-0.002742	0.001805	0.002922				179.197768	-0.359219	-43.165733
00861	476798	0.066190	0.112385	-9.829844				-0.002623	0.001603	-0.001954				179.199291	-0.359248	-43.165771
00862	476848	0.054861	0.140811	-9.817335				-0.005045	0.002269	-0.001656				179.197843	-0.359892	-43.165285
00863	476898	0.062067	0.113811	-9.821676				-0.002975	-0.000475	-0.003216				179.199263	-0.359320	-43.164961
00864	476948	0.057645	0.113692	-9.831955				-0.003015	0.000052	0.001311				179.198401	-0.359341	-43.165334
00865	476998	0.050246	0.119441	-9.811312				-0.002471	0.001828	-0.002818				179.199967	-0.359430	-43.165143
00866	477048	0.055391	0.118229	-9.837697				-0.001071	-0.000858	-0.001973				179.199656	-0.359177	-43.164580
00867	477098	0.046414	0.136919	-9.833823				-0.005470	0.003816	-0.001417				179.200365	-0.359842	-43.164771
00868	477148	0.074990	0.120602	-9.836132				-0.003351	0.002597	0.000490				179.199406	-0.360587	-43.164902
00869	477198	0.082741	0.107674	-9.831363				-0.003955	0.002521	0.001452				179.200554	-0.360893	-43.165909
00870	477248	0.068088	0.126981	-9.821714				-0.005266	0.000197	-0.001570				179.199042	-0.360943	-43.165453
00871	477298	0.068374	0.122512	-9.823385				-0.003754	0.000004	0.001123				179.200248	-0.360526	-43.166410
00872	477348	0.064246	0.117999	-9.825997				-0.007164	0.002456	-0.001229				179.198193	-0.361224	-43.166052
00873	477398	0.073081	0.117416	-9.830119				-0.004133	0.002034	0.001868				179.199290	-0.361392	-43.167148
00874	477448	0.078596	0.106928	-9.819127				-0.004994	0.001692	-0.000858				179.197858	-0.361873	-43.166899
00875	477498	0.083912	0.124766	-9.816998				-0.005642	0.003102	-0.000144				179.198520	-0.362338	-43.167465
00876	477548	0.095008	0.131171	-9.823522				-0.004625	0.000410	0.000867				179.197196	-0.362459	-43.167704
00877	477598	0.083785	0.124282	-9.817953				-0.003661	0.000201	0.001153				179.198428	-0.362098	-43.168639
00878	477648	0.078066	0.110956	-9.816001				-0.006019	-0.000100	0.001603				179.196706	-0.362076	-43.169101
00879	477698	0.077074	0.124953	-9.849555				-0.006442	-0.000983	0.001218				179.197141	-0.361377	-43.170049
00880	477748	0.056558	0.124579	-9.840102				-0.005882	-0.000784	-0.002342				179.195452	-0.361143	-43.169380
00881	477798	0.074833	0.118721	-9.815272				-0.007968	0.000044	-0.006281				179.195436	-0.360707	-43.168174
00882	477848	0.087451	0.109535	-9.827551				-0.003400	0.002014	0.001447				179.194464	-0.361290	-43.168576
00883	477898	0.055753	0.123382	-9.813495				-0.002205	0.001936	0.000774				179.196112	-0.361425	-43.169372
00884	477948	0.070471	0.121343	-9.803033				-0.005929	0.003034	-0.000847				179.194412	-0.362291	-43.169117
00885	477998	0.056763	0.125974	-9.826685				-0.004434	0.002249	-0.001656				179.195417	-0.362506	-43.169232
00886	478048	0.051259	0.106143	-9.814667				-0.004876	0.003048	-0.002739				179.194015	-0.363368	-43.168438
00887	478098	0.074182	0.115102	-9.826294				-0.006176	-0.000694	-0.003017				179.194518	-0.362734	-43.168176
00888	478148	0.055103	0.107490	-9.831461				-0.003314	0.000034	-0.003470				179.193562	-0.362730	-43.167184
00889	478198	0.064506	0.106017	-9.827196				0.000024	-0.002331	-0.003877				179.195841	-0.361624	-43.166710
00890	478248	0.076526	0.119974	-9.821514				-0.004413	0.000502	-0.001378				179.194574	-0.361763	-43.166318
00891	478298	0.068413	0.121016	-9.821709				-0.001466	0.000657	0.000574				179.196433	-0.361530	-43.167052
00892	478348	0.072258	0.121160	-9.826047				-0.003935	0.001314	-0.004870				179.195297	-0.361887	-43.165657
00893	478398	0.069333	0.130694	-9.837051				-0.001423	0.000302	-0.000105				179.197167	-0.361550	-43.166228
00894	478448	0.077149	0.121826	-9.838529				-0.001518	0.003465	-0.000087				179.196732	-0.362542	-43.166188
00895	478498	0.076276	0.136015	-9.816719				-0.004820	0.001404	-0.000665				179.197628	-0.362519	-43.166587
00896	478548	0.071824	0.137615	-9.833474				-0.002740	-0.001723	0.000081				179.196843	-0.362026	-43.166620
00897	478598	0.084295	0.136621	-9.836171				-0.002544	0.003385	0.000456				179.198393	-0.362574	-43.167319
00898	478648	0.099002	0.121194	-9.840797				-0.002524	0.000735	-0.000361				179.197669	-0.362784	-43.167217
00899	478698	0.091557	0.121623	-9.849388				-0.005429	0.005662	0.001314				179.198393	-0.363988	-43.168163
00900	478748	0.084447	0.116253	-9.822504				-0.002348	0.001027	-0.000772				179.197719	-0.364279	-43.167934
00901	478798	0.081865	0.108279	-9.847174				-0.001673	0.001841	-0.003337				179.199511	-0.364371	-43.167576
00902	478848	0.081468	0.117948	-9.806440				-0.004636	0.000374	-0.001185				179.198181	-0.364473	-43.167228
00903	478898	0.067517	0.115942	-9.819305				-0.000507	-0.000230	0.000146				179.200314	-0.363985	-43.167874
00904	478948	0.054857	0.136308	-9.825959				-0.001435	-0.001347	0.000336				179.199903	-0.363601	-43.167971
00905	478998	0.064727	0.111375	-9.830077				-0.002497	-0.001401	-0.000624				179.201465	-0.362774	-43.168420
00906	479048	0.051459	0.111569	-9.831446				-0.006724	0.000957	0.002225				179.199542	-0.363057	-43.169057
00907	479098	0.066972	0.124683	-9.825778				-0.005467	0.001027	-0.005351				179.200244	-0.362907	-43.168126
00908	479148	0.067412	0.118031	-9.836325				-0.006537	0.002725	-0.003576				179.198365	-0.363673	-43.167094
00909	479198	0.066093	0.111880	-9.841350				-0.004978	0.002410	0.001716				179.199220	-0.363947	-43.168172
00910	479248	0.063538	0.141379	-9.840142				-0.002617	-0.000496	-0.000365				179.198469	-0.363804	-43.168076
00911	479298	0.056332	0.118906	-9.819964				-0.008982	0.001974	-0.002542				179.198168	-0.363936	-43.167929
00912	479348	0.064085	0.127765	-9.816179				-0.003856	0.002293	0.000173				179.197064	-0.364594	-43.167972
00913	479398	0.071942	0.127554	-9.828920				-0.001231	0.001112	-0.001836				179.198985	-0.364482	-43.168016
00914	479448	0.082868	0.120517	-9.835922				-0.004849	0.003213	-0.001648				179.197593	-0.365396	-43.167531
00915	479498	0.081447	0.132335	-9.804048				-0.004214	0.000215	-0.001671				179.198660	-0.365028	-43.167665
00916	479548	0.084385	0.114374	-9.826339				-0.000979	0.004510	-0.001174				179.198378	-0.366315	-43.167307
00917	479598	0.103418	0.111231	-9.841772				-0.007864	-0.000712	0.001761				179.198406	-0.365695	-43.168417
00918	479648	0.076923	0.115949	-9.808807				-0.003161	-0.000541	-0.000072				179.197500	-0.365539	-43.168400
00919	479698	0.086715	0.105214	-9.817006				-0.000577	0.001729	-0.002377				179.199608	-0.365603	-43.168310
00920	479748	0.079480	0.122110	-9.807866				-0.001908	0.000258	-0.000969				179.199060	-0.365673	-43.168035
00921	479798	0.084324	0.124225	-9.814127				-0.003537	0.002332	-0.000603				179.200322	-0.365916	-43.168451
00922	479848	0.068706	0.110242	-9.809724				-0.005329	0.002397	0.000495				179.198797	-0.366604	-43.168589
00923	479898	0.072667	0.128875	-9.822217				-0.002761	0.002987	-0.003386				179.200277	-0.367023	-43.168194
00924	479948	0.075259	0.115529	-9.835165				-0.007012	0.000487	-0.002391				179.198263	-0.367153	-43.167511
00925	479998	0.071236	0.131509	-9.839453				-0.002141	0.000572	-0.002661				179.199923	-0.366884	-43.167333
00926	480048	0.070642	0.122838	-9.814051				-0.002096	-0.003979	-0.000281				179.199322	-0.365743	-43.167267
00927	480098	0.069064	0.132010	-9.837297				-0.005341	0.000453	-0.002459				179.200064	-0.365440	-43.167165
00928	480148	0.048213	0.142150	-9.835753				-0.004632	0.000405	-0.000823				179.198736	-0.365553	-43.166934
00929	480198	0.055081	0.124995	-9.841774				-0.003114	-0.002185	-0.000713				179.200120	-0.364501	-43.167324
00930	480248	0.068875	0.123193	-9.823396				-0.002827	0.002050	-0.001399				179.199307	-0.365083	-43.166911
00931	480298	0.051673	0.132622	-9.820665				-0.001103	0.003280	-0.002164				179.201264	-0.365591	-43.166871
00932	480348	0.055828	0.119453	-9.825721				-0.002057	0.000230	0.000966				179.200676	-0.365661	-43.167150
00933	480398	0.034934	0.121389	-9.822980				-0.005423	0.003035	-0.004625				179.201391	-0.366089	-43.166409
00934	480448	0.067571	0.117152	-9.830811				-0.003763	0.000092	-0.002786				179.200308	-0.366104	-43.165610
00935	480498	0.081216	0.120064	-9.820811				-0.006720	-0.002611	-0.002921				179.200655	-0.364921	-43.165370
00936	480548	0.081796	0.144444	-9.832327				-0.006202	0.002345	-0.002769				179.198873	-0.365582	-43.164563
00937	480598	0.086872	0.122862	-9.810775				-0.007164	-0.000677	-0.001562				179.199094	-0.364959	-43.164725
00938	480648	0.088000	0.124396	-9.819887				-0.007476	0.002097	-0.003153				179.196946	-0.365547	-43.163815
00939	480698	0.096853	0.094797	-9.848932				-0.004548	0.002765	-0.001106				179.197918	-0.365911	-43.164092
00940	480748	0.088235	0.119361	-9.833549				-0.004100	-0.002300	0.000469				179.196745	-0.365254	-43.164236
00941	480798	0.088783	0.119668	-9.835000				-0.005269	0.001165	-0.001947				179.197509	-0.365157	-43.164264
00942	480848	0.076400	0.122090	-9.819111				-0.005065	-0.002287	-0.001448				179.196055	-0.364496	-43.163864
00943	480898	0.066870	0.123717	-9.820981				-0.005217	-0.002548	-0.001869				179.196834	-0.363336	-43.163925
00944	480948	0.067442	0.106363	-9.826966				0.000511	-0.001255	-0.002325				179.196976	-0.362967	-43.163266
00945	480998	0.082731	0.102638	-9.812909				-0.003996	0.002842	0.001236				179.198110	-0.363363	-43.164223
00946	481048	0.076533	0.132809	-9.811448				-0.002431	0.000467	-0.002980				179.197408	-0.363485	-43.163363
00947	481098	0.057953	0.138210	-9.829806				-0.006318	-0.001346	-0.004806				179.197866	-0.362658	-43.162600
00948	481148	0.082472	0.097996	-9.826086				-0.001303	-0.002772	-0.002425				179.197488	-0.361854	-43.161911
00949	481198	0.080349	0.106577	-9.822010				-0.006328	0.002310	-0.002417				179.197947	-0.362084	-43.161813
00950	481248	0.061330	0.115726	-9.818084				-0.004537	0.001604	0.000913				179.196649	-0.362547	-43.162070
00951	481298	0.062309	0.121043	-9.824789				-0.005006	0.003210	-0.000264				179.197491	-0.363042	-43.162587
00952	481348	0.080319	0.116631	-9.817936				-0.003364	-0.002094	0.000215				179.196528	-0.362444	-43.162658
00953	481398	0.073856	0.109353	-9.817176				-0.001995	0.001097	-0.001694				179.198230	-0.362328	-43.162742
00954	481448	0.081183	0.130416	-9.833756				-0.004447	-0.000468	-0.001761				179.196953	-0.362187	-43.162244
00955	481498	0.081763	0.135246	-9.811710				-0.003045	0.000381	0.004621				179.198365	-0.361892	-43.164156
00956	481548	0.057586	0.124240	-9.822373				-0.002471	-0.000336	-0.003014				179.197652	-0.361784	-43.163291
00957	481598	0.075209	0.119298	-9.821024				-0.005797	0.003169	0.001339				179.198270	-0.362274	-43.164262
00958	481648	0.079590	0.119595	-9.825121				-0.005494	-0.000975	-0.003494				179.196690	-0.361981	-43.163265
00959	481698	0.069833	0.122928	-9.814766				-0.004319	0.001702	-0.001043				179.197728	-0.362041	-43.163568
00960	481748	0.098162	0.106253	-9.819219				-0.004945	0.001911	-0.004314				179.196303	-0.362571	-43.162316
00961	481798	0.082746	0.121444	-9.821301				-0.002838	0.002573	-0.000051				179.197767	-0.362885	-43.162876
00962	481848	0.107463	0.116888	-9.817583				-0.000148	-0.001454	0.000402				179.197725	-0.362470	-43.162997
00963	481898	0.077942	0.124230	-9.839006				-0.002752	-0.001470	-0.001962				179.199209	-0.361618	-43.163042
00964	481948	0.075017	0.112274	-9.813353				-0.004963	0.003658	-0.004371				179.197780	-0.362649	-43.161774
00965	481998	0.064885	0.135953	-9.822179				-0.005221	0.000814	-0.001081				179.198559	-0.362455	-43.162068
00966	482048	0.076071	0.117852	-9.826060				-0.002262	-0.000522	-0.000033				179.197911	-0.362305	-43.162051
00967	482098	0.069741	0.118251	-9.823391				-0.003887	0.003129	-0.002834				179.199068	-0.362768	-43.161834
00968	482148	0.056542	0.123008	-9.822609				-0.003516	0.000685	-0.000669				179.198060	-0.362961	-43.161642
00969	482198	0.059884	0.133153	-9.814479				-0.002556	0.000504	-0.001281				179.199602	-0.362678	-43.161876
00970	482248	0.080222	0.104184	-9.815052				0.000024	0.000063	-0.001193				179.199607	-0.362691	-43.161530
00971	482298	0.060018	0.127572	-9.815915				-0.005890	0.002840	0.000025				179.200195	-0.363082	-43.162124
00972	482348	0.051388	0.133239	-9.823786				-0.002323	0.000251	-0.001442				179.199527	-0.363149	-43.161712
00973	482398	0.065304	0.129195	-9.828885				-0.003175	0.001213	0.002349				179.200898	-0.363083	-43.162975
00974	482448	0.066832	0.120037	-9.820980				-0.002065	0.003227	-0.002807				179.200301	-0.363996	-43.162156
00975	482498	0.069630	0.103594	-9.826266				-0.003808	0.001878	-0.000277				179.201485	-0.364110	-43.162673
00976	482548	0.062765	0.118788	-9.817127				-0.003195	0.001658	-0.000310				179.200569	-0.364584	-43.162576
00977	482598	0.072662	0.106161	-9.820054				-0.004341	0.001543	0.000463				179.201602	-0.364605	-43.163311
00978	482648	0.076617	0.106735	-9.809526				-0.004110	-0.000042	-0.003110				179.200419	-0.364580	-43.162423
00979	482698	0.083322	0.120737	-9.834968				-0.003503	0.003302	-0.000237				179.201692	-0.365102	-43.162922
00980	482748	0.081933	0.132982	-9.828972				-0.005972	0.002186	-0.004248				179.199973	-0.365712	-43.161695
00981	482798	0.073212	0.126690	-9.841621				-0.007085	-0.000222	-0.001978				179.200217	-0.365217	-43.161729
00982	482848	0.103441	0.116918	-9.812778				-0.005839	0.001094	-0.000917				179.198542	-0.365527	-43.161461
00983	482898	0.059380	0.119083	-9.814956				-0.002636	0.001448	0.002252				179.200067	-0.365528	-43.162695
00984	482948	0.085007	0.112048	-9.836171				-0.005846	-0.001080	-0.004877				179.198383	-0.365199	-43.161304
00985	482998	0.090615	0.114279	-9.813194				-0.003097	0.002629	-0.000721				179.199770	-0.365527	-43.161679
00986	483048	0.066977	0.118900	-9.823133				-0.002246	-0.001067	0.001118				179.199128	-0.365226	-43.162001
00987	483098	0.078715	0.115573	-9.827027				-0.004804	-0.000948	0.002726				179.200033	-0.364542	-43.163386
00988	483148	0.066866	0.110361	-9.823142				-0.002746	-0.000560	-0.000480				179.199246	-0.364380	-43.163255
00989	483198	0.070995	0.115731	-9.833471				-0.003020	0.002345	-0.000084				179.200657	-0.364628	-43.163808
00990	483248	0.074921	0.116498	-9.824613				-0.004617	0.000855	-0.001531				179.199332	-0.364867	-43.163366
00991	483298	0.056689	0.111040	-9.826202				-0.004639	0.000732	0.000232				179.200279	-0.364655	-43.164021
00992	483348	0.073423	0.100167	-9.809747				-0.007582	0.001582	0.001013				179.198109	-0.365112	-43.164297
00993	483398	0.068341	0.131310	-9.825069				-0.004261	0.000867	0.000842				179.199167	-0.364942	-43.165125
00994	483448	0.070479	0.120139	-9.804705				-0.004163	-0.000329	-0.000931				179.197973	-0.364844	-43.164858
00995	483498	0.057858	0.113741	-9.831724				-0.004625	0.002147	-0.002164				179.198920	-0.365027	-43.164841
00996	483548	0.057695	0.132770	-9.836999				-0.005870	0.001927	-0.003511				179.197232	-0.365565	-43.163820
00997	483598	0.071641	0.129082	-9.820049				-0.002037	0.000484	-0.000452				179.198924	-0.365280	-43.164286
00998	483648	0.077992	0.131866	-9.810981				-0.001572	0.000974	-0.000861				179.198472	-0.365555	-43.164035
00999	483698	0.072715	0.140732	-9.813109				-0.006478	0.002255	0.000184				179.198893	-0.365779	-43.164689
01000	483748	0.066473	0.120474	-9.816189				-0.004607	-0.000311	-0.001954				179.197569	-0.365682	-43.164128
01001	483798	0.082759	0.096395	-9.825377				-0.004766	-0.001275	0.001764				179.198483	-0.364901	-43.165242
01002	483848	0.066934	0.128973	-9.825540				-0.005431	0.001159	-0.004186				179.196919	-0.365217	-43.164037
01003	483898	0.072135	0.116726	-9.823402				-0.006218	0.003932	-0.000034				179.197414	-0.365920	-43.164618
01004	483948	0.062246	0.144361	-9.838457				-0.007530	-0.001267	-0.002593				179.195252	-0.365547	-43.163876
01005	483998	0.054964	0.137974	-9.830990				-0.005731	0.001578	-0.003187				179.195880	-0.365563	-43.163542
01006	484048	0.086759	0.141327	-9.813424				-0.005803	0.003967	-0.003435				179.194211	-0.366686	-43.162541
01007	484098	0.064648	0.130669	-9.814743				-0.004701	-0.001802	-0.004368				179.195132	-0.365729	-43.161897
01008	484148	0.074143	0.125345	-9.817666				-0.003784	0.003171	-0.000301				179.194047	-0.366636	-43.161802
01009	484198	0.063291	0.131025	-9.829833				-0.002012	-0.002289	0.001655				179.195749	-0.365565	-43.162865
01010	484248	0.080755	0.103319	-9.817929				-0.001549	-0.000028	-0.003535				179.195299	-0.365543	-43.161845
01011	484298	0.056839	0.124134	-9.817099				-0.003100	-0.002211	0.002816				179.196691	-0.364498	-43.163274
01012	484348	0.071147	0.144202	-9.813343				-0.002744	0.000502	-0.001216				179.195903	-0.364637	-43.162926
01013	484398	0.066555	0.122365	-9.835114				-0.003046	-0.000516	-0.004234				179.197297	-0.364049	-43.162302
01014	484448	0.070272	0.111442	-9.826274				-0.004930	0.001791	-0.001876				179.195882	-0.364554	-43.161760
01015	484498	0.066338	0.117230	-9.821696				-0.003862	0.001384	-0.001562				179.197048	-0.364521	-43.161913
01016	484548	0.068738	0.111415	-9.805414				0.000895	0.001921	-0.002051				179.197301	-0.365063	-43.161317
01017	484598	0.074192	0.119926	-9.814791				-0.006770	0.003573	0.001153				179.197638	-0.365668	-43.162227
01018	484648	0.066064	0.118189	-9.818823				-0.005472	-0.000450	-0.000189				179.196071	-0.365539	-43.162174
01019	484698	0.079969	0.128418	-9.829679				-0.001873	-0.001167	-0.004499				179.197801	-0.364763	-43.161472
01020	484748	0.057724	0.125568	-9.820457				-0.001749	0.002717	0.000398				179.197300	-0.365543	-43.161571
01021	484798	0.056264	0.124218	-9.828119				-0.006814	0.000761	0.002293				179.197627	-0.365347	-43.162834
01022	484848	0.087283	0.114861	-9.816289				-0.004323	0.000700	-0.000504				179.196388	-0.365545	-43.162691
01023	484898	0.081983	0.125286	-9.819387				-0.005974	0.002484	-0.000396				179.196951	-0.365832	-43.163167
01024	484948	0.081721	0.101844	-9.818417				0.000322	0.000880	-0.000039				179.197043	-0.366084	-43.163157
01025	484998	0.065061	0.113522	-9.813296				-0.001852	-0.001484	-0.001355				179.198786	-0.365230	-43.163365
01026	485048	0.072548	0.115298	-9.816939				-0.003310	0.002301	-0.000338				179.197837	-0.365888	-43.163259
01027	485098	0.077944	0.117354	-9.818886				-0.005206	-0.001701	-0.000484				179.198620	-0.364975	-43.163714
01028	485148	0.069951	0.128997	-9.812374				-0.003862	0.000481	-0.001533				179.197510	-0.365107	-43.163276
01029	485198	0.075305	0.112514	-9.833007				-0.003032	0.002400	-0.002459				179.198912	-0.365362	-43.163144
01030	485248	0.072366	0.123717	-9.837064				-0.004879	0.003279	-0.001292				179.197512	-0.366296	-43.162755
01031	485298	0.078874	0.131532	-9.843334				-0.005850	0.000251	-0.002264				179.198107	-0.365935	-43.162703
01032	485348	0.079669	0.125926	-9.835190				-0.003746	0.001580	-0.003581				179.197028	-0.366373	-43.161670
01033	485398	0.044156	0.150248	-9.839576				-0.003991	0.003552	-0.002220				179.198155	-0.366959	-43.161627
01034	485448	0.052965	0.120388	-9.820667				-0.004459	0.001284	0.001588				179.196881	-0.367333	-43.162083
01035	485498	0.065440	0.127033	-9.814503				-0.002979	-0.000082	0.000319				179.198302	-0.366888	-43.162763
01036	485548	0.061541	0.125517	-9.807302				-0.004323	-0.003274	0.000147				179.197064	-0.365951	-43.162821
01037	485598	0.071153	0.118959	-9.826996				-0.001222	0.001916	-0.001919				179.198985	-0.366069	-43.162850
01038	485648	0.059708	0.109421	-9.804890				0.001749	0.003398	-0.000569				179.199485	-0.367040	-43.162670
01039	485698	0.073722	0.138198	-9.825577				-0.001553	0.000394	-0.000708				179.201314	-0.366727	-43.163061
01040	485748	0.063083	0.116568	-9.833183				-0.000840	0.000884	-0.003111				179.201068	-0.366968	-43.162162
01041	485798	0.074178	0.114766	-9.809280				-0.004382	0.001436	-0.004865				179.202078	-0.366936	-43.161366
01042	485848	0.066016	0.108737	-9.827926				-0.002309	0.001801	-0.001979				179.201413	-0.367444	-43.160791
01043	485898	0.076024	0.126932	-9.825585				-0.004813	0.001080	-0.002040				179.202305	-0.367322	-43.160809
01044	485948	0.079357	0.130077	-9.805473				-0.008042	-0.000240	-0.002680				179.199996	-0.367243	-43.160039
01045	485998	0.069112	0.125412	-9.814284				-0.001974	0.002421	-0.002491				179.201700	-0.367503	-43.159908
01046	486048	0.084216	0.128821	-9.822027				-0.004728	-0.000695	-0.001376				179.200343	-0.367298	-43.159514
01047	486098	0.084100	0.121098	-9.819391				-0.007953	0.000794	-0.003124				179.200333	-0.367090	-43.159195
01048	486148	0.083591	0.122766	-9.830899				-0.002722	0.003993	-0.001906				179.199549	-0.368226	-43.158637
01049	486198	0.083988	0.121159	-9.836169				-0.002579	0.000079	-0.003207				179.201079	-0.367813	-43.158305
01050	486248	0.061416	0.130220	-9.823599				-0.002979	0.000692	-0.002079				179.200221	-0.368003	-43.157709
01051	486298	0.074697	0.126373	-9.836603				-0.004826	0.000666	0.000912				179.201114	-0.367774	-43.158564
01052	486348	0.073209	0.122473	-9.830591				-0.004193	-0.000203	-0.000415				179.199912	-0.367714	-43.158437
01053	486398	0.063676	0.116635	-9.825519				-0.006673	-0.001027	-0.001852				179.200271	-0.366989	-43.158493
01054	486448	0.069663	0.114531	-9.816686				-0.000642	0.000961	-0.001284				179.200085	-0.367259	-43.158115
01055	486498	0.072352	0.103954	-9.834903				-0.000793	0.001571	-0.002048				179.202128	-0.367278	-43.158150
01056	486548	0.059394	0.115797	-9.810157				-0.004737	0.001831	0.001042				179.200772	-0.367807	-43.158443
01057	486598	0.065029	0.129571	-9.825058				-0.004502	0.001776	0.002548				179.201761	-0.367902	-43.159739
01058	486648	0.059483	0.132248	-9.833886				-0.002253	-0.001043	-0.002117				179.201112	-0.367595	-43.159137
01059	486698	0.067790	0.141915	-9.833691				-0.003380	-0.000934	-0.004044				179.202410	-0.366888	-43.158576
01060	486748	0.077425	0.113656	-9.814805				-0.002246	0.005031	-0.002125				179.201763	-0.368320	-43.157937
01061	486798	0.084419	0.116737	-9.803333				-0.005294	0.002038	-0.001491				179.202517	-0.368475	-43.158112
01062	486848	0.068684	0.119547	-9.813324				-0.006009	0.001312	-0.003000				179.200790	-0.368839	-43.157242
01063	486898	0.050153	0.135084	-9.822098				-0.004332	0.001125	0.000557				179.201825	-0.368740	-43.157991
01064	486948	0.071556	0.120315	-9.820526				-0.002391	0.001480	-0.000990				179.201138	-0.369160	-43.157701
01065	486998	0.085571	0.116526	-9.819402				-0.006205	-0.000557	-0.001084				179.201632	-0.368572	-43.157984
01066	487048	0.058280	0.118920	-9.830285				-0.003869	0.001480	-0.002616				179.200519	-0.368986	-43.157229
01067	487098	0.083429	0.120021	-9.819392				-0.004216	0.002416	-0.002232				179.201581	-0.369245	-43.157164
01068	487148	0.079035	0.115980	-9.819125				-0.005217	0.003820	-0.001352				179.200084	-0.370334	-43.156764
01069	487198	0.077612	0.119777	-9.808335				-0.004611	-0.001144	0.000482				179.201038	-0.369585	-43.157498
01070	487248	0.089435	0.127898	-9.836910				-0.002681	0.002605	0.000172				179.200270	-0.370332	-43.157533
01071	487298	0.049448	0.127881	-9.814421				-0.005209	-0.001840	-0.002921				179.201046	-0.369370	-43.157279
01072	487348	0.080869	0.111690	-9.818418				-0.005331	0.000300	-0.000085				179.199518	-0.369456	-43.157256
01073	487398	0.078553	0.129821	-9.823203				-0.005748	0.000154	-0.002976				179.200140	-0.369065	-43.156986
01074	487448	0.049468	0.131396	-9.827847				-0.005445	-0.000489	-0.003491				179.198574	-0.368911	-43.155988
01075	487498	0.066977	0.125410	-9.828417				-0.002024	-0.000201	-0.003310				179.200262	-0.368416	-43.155630
01076	487548	0.070593	0.136294	-9.824362				-0.003263	-0.000318	-0.001699				179.199324	-0.368318	-43.155138
01077	487598	0.056622	0.115654	-9.825006				-0.001824	0.001745	-0.001948				179.201072	-0.368386	-43.155160
01078	487648	0.072304	0.107848	-9.806150				-0.004191	0.000538	-0.002687				179.199866	-0.368530	-43.154391
01079	487698	0.087009	0.123974	-9.816054				-0.002701	0.003386	0.000402				179.201367	-0.369078	-43.155078
01080	487748	0.070493	0.138311	-9.832027				-0.003859	0.004294	-0.003019				179.200256	-0.370296	-43.154205
01081	487798	0.074706	0.124447	-9.811193				-0.000381	-0.001431	-0.002963				179.202415	-0.369451	-43.153928
01082	487848	0.076504	0.121591	-9.821512				-0.001664	0.000715	-0.001699				179.201935	-0.369649	-43.153445
01083	487898	0.067214	0.133816	-9.832492				-0.004356	0.003665	-0.005365				179.202950	-0.370254	-43.152480
01084	487948	0.058086	0.139708	-9.812319				-0.002695	-0.000948	-0.000805				179.202177	-0.369979	-43.152250
01085	487998	0.082790	0.112923	-9.818668				-0.005873	0.001062	-0.001525				179.202764	-0.369853	-43.152408
01086	488048	0.068832	0.124271	-9.815247				-0.004016	0.000957	-0.004549				179.201606	-0.370109	-43.151101
01087	488098	0.083745	0.139979	-9.811486				-0.000809	-0.003447	-0.004966				179.203638	-0.368679	-43.150282
01088	488148	0.075754	0.123392	-9.815518				-0.003058	0.001570	0.001966				179.202765	-0.369136	-43.150838
01089	488198	0.077222	0.116569	-9.817674				-0.002388	-0.000723	-0.001575				179.204351	-0.368499	-43.150967
01090	488248	0.064806	0.131688	-9.805394				-0.004377	-0.001495	0.000348				179.203097	-0.368072	-43.151076
01091	488298	0.059836	0.140513	-9.813288				-0.005613	0.001261	-0.000563				179.203762	-0.368007	-43.151490
01092	488348	0.077820	0.117106	-9.821281				-0.002816	0.002332	-0.005599				179.202945	-0.368653	-43.149873
01093	488398	0.064466	0.116106	-9.811383				-0.002920	0.003253	-0.000144				179.204381	-0.369160	-43.150403
01094	488448	0.061451	0.118414	-9.809216				-0.004706	0.000890	0.000493				179.203034	-0.369417	-43.150547
01095	488498	0.065415	0.123895	-9.837508				-0.005788	0.000842	0.001843				179.203652	-0.369242	-43.151662
01096	488548	0.065701	0.139856	-9.843505				-0.003910	0.000934	-0.000502				179.202531	-0.369507	-43.151513
01097	488598	0.065671	0.127365	-9.852373				-0.001613	0.002003	-0.003520				179.204335	-0.369643	-43.151076
01098	488648	0.047378	0.133791	-9.830952				-0.004040	-0.000037	-0.000123				179.203177	-0.369632	-43.151039
01099	488698	0.052103	0.124239	-9.824747				-0.005398	0.004398	-0.001796				179.203899	-0.370461	-43.151088
01100	488748	0.055976	0.128191	-9.819017				-0.003205	0.002278	0.002135				179.202985	-0.371122	-43.151688
01101	488798	0.082994	0.115817	-9.821065				-0.003329	0.000423	-0.003844				179.204296	-0.370804	-43.151165
01102	488848	0.065814	0.109329	-9.821461				-0.002823	0.005090	-0.000870				179.203486	-0.372259	-43.150891
01103	488898	0.070577	0.137357	-9.834426				-0.002185	-0.002038	-0.000942				179.205131	-0.371247	-43.151220
01104	488948	0.076375	0.126678	-9.838768				-0.006078	0.003444	-0.003180				179.203384	-0.372221	-43.150296
