// General information: 
//  MT Manager version: 2022.0.0 
//  XDA version: 2022.0.0 build 7085 rev 119802 built on 2022-11-08
// Device information: 
//  DeviceId: 037004D1
//  ProductCode: MTi-300-2A5G4
//  Firmware Version: 1.4.1
//  Hardware Version: 2.1.0
// Device settings: 
//  Filter Profile: general(39.16)
//  Option Flags: Orientation Smoother Disabled, Position/Velocity Smoother Disabled, Continuous Zero Rotation Update Disabled, AHS Disabled, ICC Disabled
// Coordinate system: ENU
PacketCounter	SampleTimeFine	Acc_X	Acc_Y	Acc_Z	AccHR_X	AccHR_Y	AccHR_Z	Gyr_X	Gyr_Y	Gyr_Z	GyrHR_X	GyrHR_Y	GyrHR_Z	Roll	Pitch	Yaw
00001	809248	0.227580	-9.775487	-0.131708				-0.002950	0.001471	-0.004303				-90.148872	-1.298116	-43.662627
00002	809298	0.232167	-9.783649	-0.106352				-0.003725	0.000073	0.000405				-90.147717	-1.297126	-43.662223
00003	809348	0.247931	-9.797896	-0.123236				-0.004603	0.000579	0.001627				-90.149039	-1.296663	-43.662388
00004	809398	0.240554	-9.795109	-0.109756				-0.004502	-0.000076	-0.003220				-90.148086	-1.296703	-43.661896
00005	809448	0.238366	-9.789971	-0.121645				-0.000681	0.002999	-0.001902				-90.148265	-1.297252	-43.662753
00006	809498	0.218866	-9.756979	-0.123124				-0.006777	0.003511	0.000177				-90.147947	-1.296322	-43.663300
00007	809548	0.229606	-9.777882	-0.128338				-0.001786	-0.002347	0.001992				-90.148485	-1.295751	-43.662637
00008	809598	0.202702	-9.774552	-0.135598				-0.000367	0.000234	0.000114				-90.146356	-1.294845	-43.662218
00009	809648	0.217654	-9.793253	-0.125993				-0.004722	0.000086	-0.000071				-90.147697	-1.294858	-43.662239
00010	809698	0.215519	-9.788439	-0.101203				-0.002270	0.001714	-0.000202				-90.146112	-1.294049	-43.662260
00011	809748	0.196113	-9.789948	-0.111145				0.000299	0.001436	-0.001042				-90.146018	-1.294348	-43.662671
00012	809798	0.200800	-9.790648	-0.123903				-0.003002	0.002438	-0.001672				-90.144628	-1.293945	-43.662911
00013	809848	0.216133	-9.803380	-0.116178				-0.004512	0.001575	-0.001061				-90.145910	-1.294253	-43.663363
00014	809898	0.222536	-9.819706	-0.114282				-0.005060	-0.001544	-0.002836				-90.145160	-1.294183	-43.662464
00015	809948	0.200069	-9.798956	-0.139835				-0.007004	0.000064	-0.004131				-90.147162	-1.295370	-43.662478
00016	809998	0.221846	-9.800811	-0.124644				-0.007955	0.000022	-0.001052				-90.147206	-1.294783	-43.662016
00017	810048	0.212629	-9.793227	-0.100839				-0.005636	0.004680	-0.004433				-90.148795	-1.296059	-43.663358
00018	810098	0.230531	-9.804616	-0.101365				-0.004946	0.002143	-0.001756				-90.147972	-1.295687	-43.663490
00019	810148	0.213696	-9.780413	-0.115585				-0.002439	0.002962	-0.002624				-90.148653	-1.296439	-43.664335
00020	810198	0.232822	-9.773458	-0.120573				-0.005987	-0.001892	-0.006362				-90.148156	-1.297382	-43.663341
00021	810248	0.225734	-9.776107	-0.108247				-0.003537	0.002331	-0.001246				-90.149154	-1.297738	-43.664012
00022	810298	0.233805	-9.806451	-0.118613				-0.004809	-0.001477	-0.003186				-90.148306	-1.297777	-43.663108
00023	810348	0.240437	-9.798661	-0.126304				-0.004102	0.001703	-0.003302				-90.149468	-1.298725	-43.663589
00024	810398	0.235674	-9.793579	-0.136578				-0.002994	-0.001796	-0.000308				-90.148135	-1.297931	-43.662599
00025	810448	0.240020	-9.780312	-0.131872				-0.006212	0.000434	-0.004201				-90.149911	-1.299134	-43.662718
00026	810498	0.246548	-9.793082	-0.129008				-0.003883	-0.000329	-0.002447				-90.148791	-1.298950	-43.662140
00027	810548	0.227299	-9.784365	-0.125276				-0.003140	-0.002119	0.001136				-90.149714	-1.298620	-43.661532
00028	810598	0.217731	-9.777748	-0.116256				-0.008052	0.000050	-0.002595				-90.149785	-1.298482	-43.661121
00029	810648	0.206504	-9.783495	-0.106048				-0.005645	0.001068	0.000392				-90.151399	-1.298373	-43.661435
00030	810698	0.222789	-9.781675	-0.118812				-0.003943	-0.000167	-0.001740				-90.150292	-1.297987	-43.660903
00031	810748	0.216724	-9.787695	-0.102225				-0.003783	-0.000032	-0.000776				-90.151382	-1.298211	-43.660899
00032	810798	0.211232	-9.802905	-0.120266				0.000196	0.001083	0.003708				-90.149087	-1.296267	-43.660737
00033	810848	0.198485	-9.798392	-0.099838				-0.006577	-0.000724	0.002277				-90.150980	-1.295614	-43.660533
00034	810898	0.208277	-9.789382	-0.107154				-0.002580	-0.000722	-0.000364				-90.149505	-1.294844	-43.659833
00035	810948	0.206805	-9.793501	-0.134028				-0.002744	-0.002697	-0.000697				-90.150309	-1.295041	-43.659061
00036	810998	0.202384	-9.775480	-0.106261				-0.004392	0.000990	-0.001409				-90.149335	-1.294561	-43.658864
00037	811048	0.230988	-9.812783	-0.109912				-0.002524	-0.000761	-0.003666				-90.150069	-1.295614	-43.658644
00038	811098	0.200372	-9.787844	-0.105678				-0.002304	0.000710	-0.001059				-90.148497	-1.295035	-43.658384
00039	811148	0.221979	-9.786036	-0.112955				-0.001436	-0.002008	-0.006434				-90.148921	-1.296876	-43.657800
00040	811198	0.223010	-9.782197	-0.115649				-0.001564	-0.001580	-0.002714				-90.147134	-1.296772	-43.656883
00041	811248	0.237963	-9.809761	-0.115756				-0.003971	0.001410	-0.005806				-90.148264	-1.298441	-43.657278
00042	811298	0.227438	-9.802889	-0.139218				-0.007021	0.005180	-0.000546				-90.148024	-1.297709	-43.658301
00043	811348	0.246898	-9.805436	-0.111709				-0.003862	-0.000912	-0.003381				-90.149133	-1.298675	-43.658034
00044	811398	0.231346	-9.769201	-0.120395				-0.007855	0.000093	0.000230				-90.149173	-1.297738	-43.657596
00045	811448	0.221111	-9.777288	-0.127715				-0.006984	-0.000317	-0.002021				-90.151188	-1.298317	-43.657504
00046	811498	0.223907	-9.776505	-0.129755				-0.001717	0.000458	-0.000041				-90.149436	-1.297445	-43.657168
00047	811548	0.236700	-9.790506	-0.088172				-0.003134	-0.000571	-0.001841				-90.150331	-1.297977	-43.656996
00048	811598	0.233024	-9.794720	-0.110742				-0.003656	-0.000864	0.002008				-90.149161	-1.296512	-43.656294
00049	811648	0.206230	-9.769636	-0.128287				-0.003441	0.001170	-0.002401				-90.150129	-1.297201	-43.656622
00050	811698	0.205708	-9.779018	-0.119913				-0.005272	-0.000343	0.003241				-90.149435	-1.295398	-43.656055
00051	811748	0.205210	-9.803288	-0.131166				-0.003508	0.000329	-0.000805				-90.150440	-1.295632	-43.656148
00052	811798	0.222806	-9.817262	-0.133948				-0.006814	-0.000669	-0.000772				-90.150176	-1.294962	-43.655519
00053	811848	0.203193	-9.782729	-0.112244				-0.003497	0.003076	0.000209				-90.151160	-1.294909	-43.656403
00054	811898	0.200913	-9.779152	-0.131161				-0.004273	0.000117	-0.002151				-90.150178	-1.294644	-43.655965
00055	811948	0.198667	-9.782886	-0.136850				-0.000495	-0.000276	-0.004985				-90.150329	-1.296073	-43.655887
00056	811998	0.207913	-9.798980	-0.116056				-0.002085	-0.001096	0.000721				-90.148674	-1.294982	-43.655095
00057	812048	0.218334	-9.787421	-0.118538				-0.001551	-0.000866	-0.001528				-90.149114	-1.295422	-43.654835
00058	812098	0.201348	-9.777949	-0.116010				-0.005151	0.001390	-0.004933				-90.148381	-1.295954	-43.654792
00059	812148	0.221183	-9.791451	-0.100788				-0.002123	-0.002172	-0.003326				-90.149008	-1.296912	-43.654171
00060	812198	0.227391	-9.800531	-0.107122				-0.006232	-0.000525	0.001760				-90.148557	-1.295519	-43.653559
00061	812248	0.222520	-9.798961	-0.105481				-0.007968	0.001243	-0.004576				-90.150823	-1.296830	-43.653909
00062	812298	0.224458	-9.795253	-0.129250				-0.000864	0.000565	-0.002734				-90.148850	-1.296725	-43.653603
00063	812348	0.228026	-9.789639	-0.121202				-0.003862	0.002718	0.001422				-90.149949	-1.296320	-43.654385
00064	812398	0.211353	-9.761281	-0.127324				-0.002223	0.000122	-0.001003				-90.148361	-1.295736	-43.653971
00065	812448	0.242439	-9.799374	-0.108542				-0.001983	0.001778	-0.001446				-90.148915	-1.296150	-43.654480
00066	812498	0.213881	-9.785981	-0.139085				-0.002826	-0.002018	0.000174				-90.147494	-1.295209	-43.653423
00067	812548	0.216778	-9.793573	-0.120624				-0.002360	0.000211	-0.003183				-90.148165	-1.296118	-43.653474
00068	812598	0.216261	-9.781153	-0.111634				-0.006063	-0.000949	-0.000422				-90.147687	-1.295365	-43.652752
00069	812648	0.234218	-9.791595	-0.112076				-0.001441	0.002918	-0.000734				-90.148085	-1.295577	-43.653592
00070	812698	0.241913	-9.807807	-0.131373				-0.003065	0.003862	0.002644				-90.146713	-1.293940	-43.654264
00071	812748	0.212422	-9.800019	-0.122287				-0.002431	0.005302	0.003517				-90.147371	-1.292936	-43.655783
00072	812798	0.228667	-9.777697	-0.126014				-0.004033	-0.000261	0.001597				-90.146306	-1.291601	-43.655250
00073	812848	0.221098	-9.780637	-0.095027				-0.002875	0.001864	0.001734				-90.147108	-1.291107	-43.655776
00074	812898	0.224132	-9.787374	-0.116984				-0.007391	-0.002321	0.002336				-90.147032	-1.289548	-43.654647
00075	812948	0.197171	-9.784344	-0.135690				-0.004688	0.000174	-0.001287				-90.148380	-1.289922	-43.654696
00076	812998	0.205269	-9.804942	-0.131657				-0.003339	-0.001255	-0.002514				-90.147110	-1.289756	-43.653892
00077	813048	0.182298	-9.777214	-0.117614				-0.004704	0.002532	-0.003997				-90.148444	-1.290903	-43.654616
00078	813098	0.211612	-9.795633	-0.114266				-0.006694	-0.001146	0.000477				-90.148127	-1.289886	-43.653825
00079	813148	0.213310	-9.789551	-0.123335				-0.004405	-0.001594	0.000534				-90.149399	-1.289736	-43.653365
00080	813198	0.197695	-9.806245	-0.098943				-0.003083	-0.000016	-0.000393				-90.148059	-1.288962	-43.652922
00081	813248	0.214268	-9.789946	-0.112039				-0.003192	0.002532	-0.001086				-90.148948	-1.289272	-43.653648
00082	813298	0.218877	-9.793699	-0.126709				-0.006259	0.000117	-0.000159				-90.148541	-1.288441	-43.653233
00083	813348	0.222590	-9.793905	-0.125506				-0.003576	-0.000813	-0.003313				-90.149583	-1.289389	-43.653002
00084	813398	0.205062	-9.766081	-0.129157				-0.000761	0.000340	-0.003926				-90.147567	-1.289634	-43.652648
00085	813448	0.217840	-9.784501	-0.123818				-0.002910	0.003731	-0.002357				-90.148374	-1.290314	-43.653706
00086	813498	0.223155	-9.788958	-0.122931				-0.005617	-0.000199	-0.003885				-90.147749	-1.290537	-43.653190
00087	813548	0.229131	-9.760838	-0.142130				-0.005743	-0.001267	-0.004081				-90.149397	-1.291703	-43.652823
00088	813598	0.237074	-9.786215	-0.104659				-0.003750	0.000639	-0.003375				-90.148256	-1.291795	-43.652532
00089	813648	0.231530	-9.806651	-0.138169				-0.001102	0.000141	-0.001138				-90.148570	-1.292122	-43.652572
00090	813698	0.218263	-9.787937	-0.116334				-0.002901	-0.001629	0.000627				-90.147187	-1.291056	-43.651664
00091	813748	0.206301	-9.777205	-0.129528				-0.003084	0.000172	0.000637				-90.148079	-1.290872	-43.651722
00092	813798	0.216681	-9.775681	-0.127607				-0.002745	-0.002367	0.002930				-90.146654	-1.289157	-43.650570
00093	813848	0.202253	-9.778646	-0.131399				0.004239	0.001699	0.000817				-90.145424	-1.288923	-43.651053
00094	813898	0.205210	-9.782589	-0.104048				-0.004741	0.003192	0.002675				-90.144537	-1.287279	-43.651509
00095	813948	0.219620	-9.812970	-0.122826				-0.003490	0.003851	-0.001269				-90.145516	-1.287649	-43.652619
00096	813998	0.216086	-9.787424	-0.105079				-0.002574	-0.000750	0.000785				-90.144037	-1.286538	-43.651930
00097	814048	0.208934	-9.790126	-0.120152				-0.003803	-0.000219	0.003332				-90.145136	-1.285580	-43.651873
00098	814098	0.205792	-9.800787	-0.108215				-0.004668	0.000437	-0.000832				-90.144243	-1.284943	-43.651558
00099	814148	0.197499	-9.811574	-0.123154				-0.002959	0.000945	-0.003304				-90.145088	-1.285893	-43.651824
00100	814198	0.228747	-9.801801	-0.116437				-0.001820	0.001422	-0.003726				-90.143387	-1.286080	-43.651753
00101	814248	0.217635	-9.779132	-0.133645				-0.006322	0.001083	-0.001083				-90.145182	-1.286393	-43.652055
00102	814298	0.212108	-9.766573	-0.106830				-0.005590	0.000963	-0.004098				-90.144574	-1.286680	-43.651870
00103	814348	0.221766	-9.807062	-0.103620				-0.002362	0.003680	-0.000663				-90.145217	-1.286865	-43.652917
00104	814398	0.237898	-9.795201	-0.105941				-0.006935	0.002036	-0.004575				-90.144972	-1.287308	-43.653022
00105	814448	0.224810	-9.766073	-0.128900				-0.004440	0.001540	-0.001503				-90.146230	-1.287737	-43.653461
00106	814498	0.221874	-9.782423	-0.132906				-0.003001	0.001401	-0.001635				-90.144873	-1.287330	-43.653377
00107	814548	0.238821	-9.793055	-0.121486				-0.002567	0.001929	0.000031				-90.145599	-1.287323	-43.653941
00108	814598	0.232096	-9.789617	-0.134505				-0.006161	0.004960	-0.004626				-90.145085	-1.287773	-43.654854
00109	814648	0.242631	-9.804015	-0.115296				-0.004794	0.001203	-0.004525				-90.146445	-1.289063	-43.655192
00110	814698	0.241074	-9.794699	-0.120523				-0.002589	0.000338	-0.003280				-90.144991	-1.289128	-43.654822
00111	814748	0.236741	-9.773338	-0.125401				-0.005532	0.003620	-0.001780				-90.146553	-1.289638	-43.655853
00112	814798	0.219299	-9.768137	-0.122896				-0.006893	0.000945	-0.001339				-90.146281	-1.289139	-43.655707
00113	814848	0.245649	-9.796268	-0.123280				-0.005589	0.000818	0.004879				-90.147884	-1.287745	-43.655947
00114	814898	0.210555	-9.798668	-0.103447				-0.005008	0.005145	-0.003022				-90.147062	-1.287737	-43.656917
00115	814948	0.213719	-9.779441	-0.116782				-0.004815	-0.000893	-0.001002				-90.148436	-1.288021	-43.656661
00116	814998	0.211953	-9.792238	-0.119144				-0.002121	-0.001106	-0.002198				-90.146836	-1.287768	-43.655873
00117	815048	0.208974	-9.787905	-0.110271				-0.000499	0.002351	-0.001924				-90.146965	-1.288325	-43.656539
00118	815098	0.219714	-9.804022	-0.118231				-0.003071	0.001658	-0.001768				-90.145620	-1.287949	-43.656564
00119	815148	0.215910	-9.804328	-0.116876				-0.004520	0.000857	-0.002181				-90.146900	-1.288575	-43.656799
00120	815198	0.198140	-9.794335	-0.117700				-0.003491	-0.001284	-0.000459				-90.145697	-1.287825	-43.655940
00121	815248	0.228248	-9.785716	-0.144437				-0.003178	0.001814	-0.002598				-90.146596	-1.288573	-43.656460
00122	815298	0.211770	-9.781762	-0.137633				-0.002885	-0.001415	-0.002868				-90.145215	-1.288515	-43.655566
00123	815348	0.220801	-9.801805	-0.106848				-0.007257	0.000197	-0.001250				-90.147301	-1.288876	-43.655622
00124	815398	0.216748	-9.769875	-0.119970				-0.004873	-0.001384	-0.003507				-90.146491	-1.288995	-43.654779
00125	815448	0.240451	-9.807606	-0.130317				-0.002638	-0.002415	-0.005795				-90.147264	-1.290650	-43.654090
00126	815498	0.212812	-9.787414	-0.108389				-0.001211	0.002372	-0.004104				-90.145397	-1.290956	-43.654302
00127	815548	0.230052	-9.790245	-0.126328				-0.007002	-0.000839	-0.002407				-90.147407	-1.291644	-43.654060
00128	815598	0.229272	-9.810596	-0.114767				-0.005463	0.000291	-0.000772				-90.146731	-1.290988	-43.653684
00129	815648	0.249656	-9.797585	-0.126617				-0.005179	-0.000611	-0.000070				-90.148212	-1.291008	-43.653503
00130	815698	0.249795	-9.799143	-0.133517				-0.001616	-0.001130	-0.002906				-90.146496	-1.290960	-43.652702
00131	815748	0.225336	-9.767183	-0.133982				-0.005972	-0.000918	-0.002763				-90.148224	-1.291756	-43.652435
00132	815798	0.224784	-9.804269	-0.129086				-0.004569	0.002409	-0.002205				-90.147283	-1.291504	-43.652654
00133	815848	0.225732	-9.798631	-0.108406				-0.001534	0.002818	-0.000577				-90.147711	-1.291672	-43.653463
00134	815898	0.212769	-9.776742	-0.123705				-0.000945	0.000082	-0.002481				-90.145759	-1.291500	-43.653072
00135	815948	0.211709	-9.796235	-0.106264				-0.004003	0.000542	-0.003174				-90.146908	-1.292406	-43.653225
00136	815998	0.223415	-9.813401	-0.122422				-0.005314	0.003719	-0.001584				-90.146180	-1.291988	-43.653828
00137	816048	0.206010	-9.795382	-0.119897				-0.003345	-0.000669	0.000728				-90.147150	-1.291777	-43.653643
00138	816098	0.215410	-9.798959	-0.111373				-0.004514	-0.000101	0.002468				-90.146202	-1.290192	-43.653111
00139	816148	0.206695	-9.781872	-0.119220				-0.006080	0.002408	-0.003452				-90.147927	-1.291181	-43.653796
00140	816198	0.209960	-9.776489	-0.111087				-0.003327	0.001656	-0.001923				-90.146668	-1.290856	-43.653814
00141	816248	0.200778	-9.788804	-0.119894				-0.004420	-0.000467	-0.002121				-90.147935	-1.291460	-43.653678
00142	816298	0.214957	-9.787401	-0.123023				-0.002741	0.002411	-0.000573				-90.146481	-1.290746	-43.653879
00143	816348	0.224668	-9.812209	-0.121572				0.001436	-0.001334	-0.003491				-90.146083	-1.291748	-43.653496
00144	816398	0.207046	-9.777320	-0.121347				-0.001887	-0.000717	-0.005271				-90.144417	-1.292382	-43.652833
00145	816448	0.222418	-9.806032	-0.124072				-0.004362	-0.001339	-0.002448				-90.145682	-1.293086	-43.652452
00146	816498	0.221779	-9.796331	-0.122813				-0.002623	0.003734	-0.003036				-90.144180	-1.293076	-43.653069
00147	816548	0.220574	-9.806703	-0.128129				-0.004555	0.004587	0.004289				-90.145458	-1.291852	-43.654384
00148	816598	0.215209	-9.793820	-0.137663				-0.002975	0.002498	-0.002752				-90.144070	-1.291765	-43.654624
00149	816648	0.195809	-9.771922	-0.127264				-0.003102	-0.003712	-0.002848				-90.144978	-1.292582	-43.653556
00150	816698	0.229865	-9.786708	-0.140804				-0.003488	0.000491	-0.001798				-90.143784	-1.292217	-43.653241
00151	816748	0.225672	-9.781335	-0.123415				-0.004896	0.002528	-0.004001				-90.145170	-1.293363	-43.653961
00152	816798	0.233730	-9.806993	-0.114229				-0.001871	0.000326	-0.000043				-90.143484	-1.292495	-43.653591
00153	816848	0.228955	-9.798767	-0.112786				-0.003622	-0.003295	-0.000921				-90.144533	-1.292752	-43.652635
00154	816898	0.220484	-9.799916	-0.122067				-0.001583	-0.001060	-0.003485				-90.142786	-1.292886	-43.651815
00155	816948	0.230306	-9.802467	-0.117820				-0.002391	0.001676	0.001732				-90.143452	-1.292393	-43.652299
00156	816998	0.221296	-9.807448	-0.109853				-0.003520	-0.001251	0.000372				-90.142246	-1.291402	-43.651453
00157	817048	0.199501	-9.789955	-0.123194				-0.003368	0.001080	0.001831				-90.143213	-1.290880	-43.651764
00158	817098	0.215515	-9.782122	-0.110928				-0.005482	-0.005072	0.001543				-90.142591	-1.289552	-43.649834
00159	817148	0.199104	-9.768915	-0.103319				-0.002716	0.000928	0.002210				-90.143371	-1.288920	-43.650106
00160	817198	0.218179	-9.785522	-0.118770				-0.003531	0.000071	0.000794				-90.142151	-1.287813	-43.649690
00161	817248	0.224900	-9.800592	-0.120929				-0.004928	0.002725	-0.000377				-90.143536	-1.287922	-43.650467
00162	817298	0.189109	-9.782496	-0.107820				-0.001009	0.002509	-0.000349				-90.141617	-1.287154	-43.650699
00163	817348	0.205338	-9.788111	-0.130588				0.000709	0.003729	-0.002369				-90.141396	-1.287838	-43.651770
00164	817398	0.217239	-9.820386	-0.104895				-0.003503	-0.002099	-0.002617				-90.140200	-1.287711	-43.650697
00165	817448	0.212129	-9.802963	-0.115840				-0.005312	0.003488	-0.003125				-90.141701	-1.288608	-43.651693
00166	817498	0.215182	-9.794708	-0.094267				-0.002908	0.000335	-0.003695				-90.140308	-1.288786	-43.651329
00167	817548	0.224097	-9.792719	-0.108943				-0.004303	0.001053	-0.002151				-90.141526	-1.289400	-43.651627
00168	817598	0.220209	-9.787605	-0.120906				-0.002013	0.001512	-0.001699				-90.139895	-1.289013	-43.651600
00169	817648	0.232135	-9.785031	-0.124144				-0.004881	-0.000864	-0.001196				-90.141304	-1.289358	-43.651351
00170	817698	0.203850	-9.771157	-0.123976				-0.003296	0.001919	0.000194				-90.140029	-1.288428	-43.651459
00171	817748	0.243821	-9.792963	-0.123867				-0.001051	-0.001536	-0.000442				-90.140344	-1.288555	-43.651014
00172	817798	0.225596	-9.800900	-0.115442				-0.003438	-0.002033	-0.001688				-90.139122	-1.288150	-43.649963
00173	817848	0.238771	-9.787476	-0.114057				-0.003953	0.002092	-0.001344				-90.140241	-1.288536	-43.650555
00174	817898	0.223869	-9.800224	-0.114862				-0.001048	0.000631	-0.000335				-90.138304	-1.287755	-43.650277
00175	817948	0.220118	-9.796836	-0.137711				-0.003231	0.001854	0.000612				-90.139215	-1.287582	-43.650799
00176	817998	0.218423	-9.793894	-0.114392				-0.003326	-0.000644	-0.003509				-90.137976	-1.287703	-43.650198
00177	818048	0.208801	-9.795284	-0.124221				-0.004299	0.005460	0.001309				-90.139167	-1.287327	-43.651757
00178	818098	0.212542	-9.770915	-0.117129				-0.006013	-0.001262	0.002339				-90.138677	-1.285783	-43.650937
00179	818148	0.211697	-9.803276	-0.111339				-0.005901	0.001262	0.001708				-90.140356	-1.285290	-43.651300
00180	818198	0.222055	-9.801941	-0.128096				-0.002576	0.001349	-0.001030				-90.138890	-1.284710	-43.651245
00181	818248	0.224835	-9.809128	-0.121025				-0.006372	0.003667	-0.001328				-90.140692	-1.285100	-43.652287
00182	818298	0.224386	-9.779255	-0.120718				-0.001706	0.002103	-0.000510				-90.138951	-1.284365	-43.652425
00183	818348	0.215591	-9.803630	-0.116130				-0.005448	0.000039	0.001604				-90.140511	-1.283905	-43.652430
00184	818398	0.215452	-9.788216	-0.115665				-0.004536	-0.000726	-0.001805				-90.139597	-1.283540	-43.651778
00185	818448	0.227499	-9.810586	-0.132394				-0.003055	0.000045	-0.000041				-90.140485	-1.283555	-43.651795
00186	818498	0.208878	-9.767582	-0.105299				-0.002613	-0.000784	-0.000557				-90.139007	-1.282832	-43.651065
00187	818548	0.231459	-9.795232	-0.109181				-0.002929	0.000076	-0.002223				-90.139845	-1.283471	-43.651083
00188	818598	0.207650	-9.778184	-0.110942				-0.009603	0.000674	-0.000726				-90.140378	-1.282792	-43.650821
00189	818648	0.231626	-9.797963	-0.131953				-0.003589	-0.001356	-0.001139				-90.141418	-1.283116	-43.650437
00190	818698	0.244384	-9.814875	-0.117034				-0.005145	0.002297	-0.002239				-90.140655	-1.282875	-43.650640
00191	818748	0.224395	-9.795440	-0.116874				-0.002418	-0.001954	-0.003645				-90.141366	-1.283926	-43.650073
00192	818798	0.219136	-9.804343	-0.113221				-0.002027	0.001097	-0.000391				-90.139712	-1.283152	-43.649934
00193	818848	0.231300	-9.791364	-0.098751				-0.005323	0.000009	0.000899				-90.141232	-1.282898	-43.649932
00194	818898	0.244812	-9.802393	-0.127023				-0.002769	0.000946	-0.004369				-90.139815	-1.283269	-43.649740
00195	818948	0.207285	-9.771139	-0.137514				0.000335	0.000294	-0.002322				-90.139724	-1.283934	-43.649828
00196	818998	0.224801	-9.777274	-0.125771				-0.004408	-0.001498	0.001498				-90.138780	-1.282624	-43.648944
00197	819048	0.201352	-9.765059	-0.120999				-0.001274	-0.001542	-0.000598				-90.139150	-1.282795	-43.648497
00198	819098	0.231569	-9.783598	-0.124694				0.003222	0.003622	0.002851				-90.135992	-1.281098	-43.649093
00199	819148	0.211254	-9.804218	-0.111567				-0.005440	0.000750	0.001381				-90.137546	-1.280704	-43.649302
00200	819198	0.228526	-9.821562	-0.112074				-0.002668	0.001757	-0.004686				-90.136074	-1.281158	-43.649334
00201	819248	0.218029	-9.805931	-0.118705				-0.001469	0.000691	-0.000008				-90.136499	-1.281162	-43.649537
00202	819298	0.217378	-9.801147	-0.121729				-0.006569	0.001255	0.003634				-90.136158	-1.279237	-43.649436
00203	819348	0.216399	-9.802146	-0.119401				-0.002549	0.003379	-0.001689				-90.136876	-1.279725	-43.650411
00204	819398	0.191454	-9.809457	-0.126772				-0.003559	-0.000124	-0.000550				-90.135674	-1.279000	-43.649870
00205	819448	0.217629	-9.800872	-0.123970				-0.001746	-0.001006	-0.003222				-90.136179	-1.279925	-43.649579
00206	819498	0.219572	-9.788229	-0.127137				-0.002921	-0.000246	-0.001679				-90.134800	-1.279519	-43.649034
00207	819548	0.216270	-9.782640	-0.107309				-0.007583	-0.000650	-0.002182				-90.136972	-1.280140	-43.648839
00208	819598	0.221460	-9.803129	-0.128350				-0.001585	0.002006	-0.004908				-90.135212	-1.280665	-43.648960
00209	819648	0.225399	-9.788404	-0.111042				-0.010179	0.000531	-0.001815				-90.138132	-1.281192	-43.649111
00210	819698	0.212532	-9.775854	-0.120023				-0.006147	0.000599	-0.003172				-90.137660	-1.281215	-43.648815
00211	819748	0.228546	-9.788987	-0.116874				-0.001346	0.000621	-0.002319				-90.138039	-1.281879	-43.648992
00212	819798	0.227062	-9.803953	-0.116687				-0.005876	-0.003888	-0.000824				-90.137535	-1.281230	-43.647416
00213	819848	0.216802	-9.805290	-0.114938				-0.004860	0.001468	-0.000635				-90.138923	-1.281414	-43.647833
00214	819898	0.227446	-9.784007	-0.132876				-0.001510	-0.002196	-0.001563				-90.137153	-1.280979	-43.646701
00215	819948	0.215882	-9.792559	-0.141640				-0.000327	0.000995	-0.000972				-90.137233	-1.281263	-43.646977
00216	819998	0.217675	-9.774074	-0.123283				-0.000817	0.000374	-0.000335				-90.135277	-1.280483	-43.646651
00217	820048	0.226819	-9.784735	-0.117012				-0.006261	0.001375	-0.000185				-90.137068	-1.280538	-43.647049
00218	820098	0.212956	-9.800625	-0.112959				-0.002662	0.000757	-0.002987				-90.135604	-1.280506	-43.646792
00219	820148	0.228059	-9.805987	-0.122313				-0.000933	0.001119	-0.000427				-90.135857	-1.280634	-43.647101
00220	820198	0.230384	-9.791254	-0.106566				-0.001464	0.004863	0.001071				-90.134056	-1.279455	-43.648065
00221	820248	0.225899	-9.793748	-0.102233				-0.002683	0.002669	-0.000026				-90.134805	-1.279463	-43.648833
00222	820298	0.212850	-9.777782	-0.101687				-0.001866	0.001935	-0.002467				-90.133119	-1.279292	-43.648921
00223	820348	0.201906	-9.799144	-0.110298				-0.005358	0.002337	0.001264				-90.134639	-1.278930	-43.649593
00224	820398	0.214213	-9.801094	-0.127576				-0.003212	0.000975	-0.001124				-90.133356	-1.278371	-43.649420
00225	820448	0.217904	-9.794485	-0.122533				-0.000700	0.001894	0.000317				-90.133563	-1.278279	-43.649973
00226	820498	0.209984	-9.769758	-0.117088				-0.004573	0.003535	-0.001973				-90.132620	-1.277969	-43.650508
00227	820548	0.206128	-9.798168	-0.124047				-0.005554	0.002065	-0.001369				-90.134203	-1.278361	-43.651109
00228	820598	0.206288	-9.796370	-0.133419				-0.005889	-0.000265	0.000933				-90.133675	-1.277215	-43.650527
00229	820648	0.228844	-9.789451	-0.117623				-0.005037	0.002008	-0.002816				-90.135096	-1.278025	-43.651094
00230	820698	0.238758	-9.800575	-0.126260				-0.002953	-0.000151	-0.001357				-90.133733	-1.277529	-43.650600
00231	820748	0.212778	-9.782191	-0.108864				-0.002483	0.001079	-0.004044				-90.134435	-1.278691	-43.650904
00232	820798	0.222785	-9.806402	-0.115116				-0.000766	0.002897	-0.000704				-90.132451	-1.278016	-43.651282
00233	820848	0.231754	-9.788348	-0.109183				-0.000141	0.001517	0.000700				-90.132481	-1.277816	-43.651711
00234	820898	0.214879	-9.781195	-0.109906				-0.004945	0.001138	-0.002114				-90.131681	-1.277544	-43.651586
00235	820948	0.217285	-9.779475	-0.127408				-0.003838	-0.000426	-0.000359				-90.132787	-1.277645	-43.651463
00236	820998	0.210708	-9.784779	-0.127168				-0.004471	0.005545	-0.001641				-90.131804	-1.277236	-43.652571
00237	821048	0.234171	-9.800910	-0.139196				-0.003154	-0.000226	-0.004371				-90.132714	-1.278489	-43.652505
00238	821098	0.217515	-9.798411	-0.129693				-0.001031	0.000082	-0.000367				-90.130790	-1.277710	-43.652068
00239	821148	0.197985	-9.780462	-0.125220				-0.005478	-0.001259	-0.000361				-90.132364	-1.277813	-43.651707
00240	821198	0.210536	-9.797398	-0.124032				-0.004908	0.001115	0.000645				-90.131584	-1.276752	-43.651577
00241	821248	0.215988	-9.788811	-0.123253				-0.001669	0.001974	-0.001573				-90.132047	-1.277204	-43.652142
00242	821298	0.228228	-9.796942	-0.124379				-0.004227	0.000700	-0.000354				-90.131054	-1.276427	-43.651881
00243	821348	0.230703	-9.777071	-0.103420				-0.001302	0.002526	-0.001765				-90.131411	-1.276935	-43.652597
00244	821398	0.203597	-9.789170	-0.124835				-0.008300	0.001017	-0.000086				-90.131582	-1.276085	-43.652427
00245	821448	0.234509	-9.797165	-0.104713				-0.004364	-0.000179	-0.002570				-90.132834	-1.276820	-43.652375
00246	821498	0.214064	-9.802546	-0.126145				-0.002016	0.001608	-0.003628				-90.131196	-1.276973	-43.652380
00247	821548	0.214481	-9.777095	-0.114776				-0.006407	0.001925	-0.000052				-90.133021	-1.276993	-43.652935
00248	821598	0.223003	-9.810391	-0.133182				-0.006534	0.002792	-0.001109				-90.132681	-1.276432	-43.653266
00249	821648	0.225574	-9.817835	-0.125177				-0.001737	0.002234	0.000288				-90.133166	-1.276355	-43.653903
00250	821698	0.198138	-9.787774	-0.112244				-0.007344	-0.000167	-0.003592				-90.133075	-1.276506	-43.653344
00251	821748	0.206950	-9.791665	-0.129792				-0.004450	-0.000403	-0.000902				-90.134360	-1.276764	-43.653239
00252	821798	0.217405	-9.799938	-0.107677				-0.002494	0.003837	-0.000696				-90.132822	-1.276087	-43.653849
00253	821848	0.223651	-9.779735	-0.120439				-0.001135	0.006675	0.000954				-90.133115	-1.275810	-43.655771
00254	821898	0.223046	-9.797609	-0.131508				-0.004578	0.002662	-0.001240				-90.132189	-1.275287	-43.656043
00255	821948	0.204807	-9.790373	-0.123255				-0.004992	0.003725	-0.002003				-90.133598	-1.275862	-43.657108
00256	821998	0.220661	-9.782640	-0.119472				-0.003161	0.000426	-0.002699				-90.132292	-1.275769	-43.656749
00257	822048	0.227838	-9.793730	-0.132702				-0.002233	0.002348	-0.002722				-90.132909	-1.276550	-43.657414
00258	822098	0.223345	-9.778896	-0.129547				-0.003132	0.004689	-0.003383				-90.131569	-1.276635	-43.658278
00259	822148	0.222221	-9.782201	-0.131271				-0.005259	0.000841	-0.002086				-90.133077	-1.277238	-43.658515
00260	822198	0.224886	-9.803568	-0.112777				-0.003328	0.000749	-0.001095				-90.131828	-1.276670	-43.658268
00261	822248	0.231621	-9.789643	-0.118039				-0.002652	0.002898	0.000808				-90.132565	-1.276438	-43.659105
00262	822298	0.226004	-9.807143	-0.126006				-0.004480	0.001369	-0.005322				-90.131642	-1.277085	-43.659099
00263	822348	0.213934	-9.772325	-0.132383				-0.002301	-0.000559	-0.003187				-90.132309	-1.277994	-43.658938
00264	822398	0.217341	-9.801259	-0.129773				-0.003461	0.002910	-0.000792				-90.131076	-1.277352	-43.659298
00265	822448	0.225352	-9.811768	-0.134394				-0.004804	0.001889	0.000361				-90.132436	-1.277255	-43.659837
00266	822498	0.217784	-9.799795	-0.132414				-0.004385	-0.002436	-0.000302				-90.131502	-1.276454	-43.658677
00267	822548	0.221897	-9.811370	-0.101312				-0.005072	0.000940	-0.003303				-90.132950	-1.277405	-43.658937
00268	822598	0.196378	-9.801056	-0.129375				-0.002536	0.002090	-0.000188				-90.131472	-1.276575	-43.659092
00269	822648	0.214510	-9.790573	-0.117575				-0.005145	0.002463	-0.000215				-90.132929	-1.276636	-43.659793
00270	822698	0.232874	-9.789466	-0.113278				-0.003196	0.001460	-0.002531				-90.131639	-1.276491	-43.659751
00271	822748	0.218849	-9.790295	-0.116663				-0.003370	0.001940	-0.002558				-90.132590	-1.277224	-43.660312
00272	822798	0.220229	-9.793830	-0.116546				-0.000445	-0.001400	0.000334				-90.130526	-1.276250	-43.659451
00273	822848	0.211355	-9.779072	-0.127339				-0.001432	0.001521	-0.002404				-90.130923	-1.276939	-43.659890
00274	822898	0.222641	-9.786126	-0.122725				-0.007398	0.000542	-0.002365				-90.130832	-1.276740	-43.659576
00275	822948	0.231446	-9.790501	-0.108472				-0.001414	0.002041	-0.001476				-90.131225	-1.277167	-43.660159
00276	822998	0.207774	-9.795384	-0.118911				-0.002234	0.000015	-0.005875				-90.129659	-1.277967	-43.659698
00277	823048	0.217606	-9.773102	-0.109797				0.000805	-0.000406	-0.002012				-90.129412	-1.278537	-43.659572
00278	823098	0.222367	-9.790552	-0.128124				-0.003047	0.001047	0.000671				-90.128097	-1.277472	-43.659409
00279	823148	0.222488	-9.794658	-0.123340				-0.003868	-0.002654	-0.001206				-90.129220	-1.277819	-43.658643
00280	823198	0.225756	-9.792273	-0.121456				-0.002711	-0.000532	-0.000494				-90.127793	-1.277085	-43.658009
00281	823248	0.225044	-9.794771	-0.113746				-0.003069	0.001560	-0.003016				-90.128665	-1.277949	-43.658449
00282	823298	0.218102	-9.777950	-0.102404				-0.001656	0.001519	-0.002442				-90.126919	-1.277772	-43.658413
00283	823348	0.231584	-9.781256	-0.123701				-0.004641	0.002862	0.000363				-90.128238	-1.277672	-43.659236
00284	823398	0.228060	-9.798161	-0.122120				-0.004166	0.002632	-0.004578				-90.127217	-1.278108	-43.659528
00285	823448	0.218114	-9.799395	-0.111769				-0.000964	0.002056	-0.000609				-90.127484	-1.278281	-43.660121
00286	823498	0.224900	-9.812086	-0.129535				-0.003692	0.003032	-0.001498				-90.126304	-1.277830	-43.660518
00287	823548	0.196910	-9.774622	-0.120028				0.000488	0.001784	-0.000199				-90.126161	-1.277890	-43.661039
00288	823598	0.214902	-9.791839	-0.111527				-0.001873	-0.001583	0.001778				-90.124486	-1.276496	-43.660101
00289	823648	0.218848	-9.807240	-0.125729				-0.004388	0.001893	-0.000954				-90.125734	-1.276772	-43.660647
00290	823698	0.211691	-9.786556	-0.118684				-0.000075	-0.000973	-0.003164				-90.123577	-1.276804	-43.659870
00291	823748	0.226853	-9.799165	-0.119599				-0.008260	0.002564	-0.002580				-90.125925	-1.277541	-43.660599
00292	823798	0.202352	-9.788958	-0.124683				-0.003599	-0.002809	0.000431				-90.124756	-1.276534	-43.659379
00293	823848	0.222982	-9.796440	-0.129934				0.000565	-0.003064	-0.000481				-90.124614	-1.276671	-43.658499
00294	823898	0.229139	-9.801186	-0.140661				-0.006598	0.000621	-0.002177				-90.124319	-1.276421	-43.658236
00295	823948	0.231602	-9.812214	-0.131134				-0.006616	0.000072	-0.003719				-90.126213	-1.277489	-43.658251
00296	823998	0.213648	-9.796141	-0.110953				0.001727	0.000608	-0.004092				-90.123498	-1.277775	-43.657953
00297	824048	0.217709	-9.784094	-0.135572				-0.004201	-0.001571	-0.005691				-90.124712	-1.279406	-43.657500
00298	824098	0.227218	-9.778588	-0.130598				-0.006483	-0.000759	0.001249				-90.124370	-1.278165	-43.656815
00299	824148	0.216387	-9.785098	-0.117121				-0.004785	0.002079	-0.001915				-90.125731	-1.278721	-43.657411
00300	824198	0.213732	-9.786201	-0.109180				-0.004024	0.001383	-0.002404				-90.124668	-1.278519	-43.657357
00301	824248	0.238802	-9.802993	-0.123686				-0.004720	0.000010	-0.002477				-90.126020	-1.279232	-43.657359
00302	824298	0.213900	-9.776299	-0.120501				-0.004764	0.000530	-0.001058				-90.125189	-1.278651	-43.657017
00303	824348	0.235937	-9.812326	-0.119996				-0.002667	-0.001882	0.001647				-90.125966	-1.278175	-43.656482
00304	824398	0.237667	-9.793119	-0.118135				-0.003991	0.000282	-0.002351				-90.124908	-1.277976	-43.656103
00305	824448	0.218468	-9.794179	-0.126707				-0.005041	0.004175	-0.003762				-90.126317	-1.279054	-43.657294
00306	824498	0.211424	-9.789717	-0.129502				-0.003977	0.000294	0.002307				-90.125260	-1.277520	-43.656911
00307	824548	0.238618	-9.800615	-0.139294				-0.005793	0.001411	-0.003170				-90.126908	-1.278428	-43.657309
00308	824598	0.213681	-9.807485	-0.129248				-0.003348	0.001938	-0.004356				-90.125647	-1.278797	-43.657392
00309	824648	0.201495	-9.774742	-0.123967				-0.004465	-0.001725	0.000118				-90.126939	-1.278761	-43.656898
00310	824698	0.215564	-9.794148	-0.115339				-0.002512	0.001176	-0.003148				-90.125437	-1.278779	-43.656780
00311	824748	0.221380	-9.777910	-0.133147				-0.002755	-0.003379	-0.000704				-90.126260	-1.278978	-43.655812
00312	824798	0.217231	-9.795022	-0.118931				-0.003114	-0.002225	-0.002554				-90.124959	-1.278832	-43.654709
00313	824848	0.212260	-9.789136	-0.120128				-0.002880	-0.000640	-0.004980				-90.125787	-1.280254	-43.654524
00314	824898	0.219614	-9.797053	-0.124256				-0.002560	0.002699	-0.001531				-90.124319	-1.279813	-43.654841
00315	824948	0.235620	-9.804216	-0.108059				-0.003993	0.002350	-0.002592				-90.125455	-1.280558	-43.655522
00316	824998	0.222484	-9.793984	-0.120795				-0.005723	0.002482	-0.001300				-90.124877	-1.280051	-43.655796
00317	825048	0.207909	-9.781102	-0.137087				-0.000244	0.000280	-0.002673				-90.124955	-1.280817	-43.655883
00318	825098	0.202063	-9.785210	-0.121181				0.000963	-0.000274	-0.000884				-90.122467	-1.280189	-43.655346
00319	825148	0.221512	-9.789396	-0.126877				-0.002807	-0.003832	-0.001855				-90.123281	-1.280715	-43.654236
00320	825198	0.238508	-9.800358	-0.125036				-0.000373	-0.001919	-0.002917				-90.121212	-1.280672	-43.653219
00321	825248	0.228986	-9.789260	-0.113983				-0.001970	-0.001746	0.000266				-90.121777	-1.280601	-43.652714
00322	825298	0.215394	-9.787718	-0.116817				-0.002055	-0.001101	-0.001040				-90.120198	-1.280013	-43.651935
00323	825348	0.232724	-9.808545	-0.106385				-0.002950	0.004183	0.001393				-90.121022	-1.279613	-43.653130
00324	825398	0.225867	-9.787644	-0.113600				-0.006913	0.002559	-0.002260				-90.120785	-1.279389	-43.653410
00325	825448	0.228993	-9.796086	-0.117403				-0.002570	-0.000312	-0.005079				-90.121511	-1.280843	-43.653312
00326	825498	0.233304	-9.790924	-0.125302				-0.004905	0.002248	0.001260				-90.120714	-1.279596	-43.653501
00327	825548	0.236196	-9.804333	-0.115576				-0.006210	-0.001733	-0.004308				-90.122504	-1.280826	-43.653001
00328	825598	0.215001	-9.788840	-0.122123				-0.003690	0.001065	-0.001185				-90.121367	-1.280296	-43.652847
00329	825648	0.200163	-9.796093	-0.124901				-0.006020	0.003703	-0.003666				-90.123070	-1.281350	-43.653905
00330	825698	0.208418	-9.798947	-0.117828				-0.005113	-0.000606	-0.000164				-90.122336	-1.280517	-43.653264
00331	825748	0.228646	-9.793808	-0.127436				-0.005013	0.000202	-0.000609				-90.123782	-1.280692	-43.653330
00332	825798	0.221568	-9.794832	-0.127988				-0.007292	-0.000808	-0.002760				-90.123669	-1.280596	-43.652604
00333	825848	0.216902	-9.782030	-0.115874				-0.004403	0.001916	-0.006150				-90.124916	-1.282360	-43.653154
00334	825898	0.219233	-9.785682	-0.107836				-0.008042	0.000598	-0.002910				-90.125024	-1.282320	-43.652877
00335	825948	0.208208	-9.789486	-0.116072				-0.003491	0.000978	0.000802				-90.126007	-1.282091	-43.653153
00336	825998	0.210001	-9.782423	-0.095434				-0.002915	-0.001316	-0.002098				-90.124676	-1.281804	-43.652292
00337	826048	0.224654	-9.794048	-0.130320				-0.003220	-0.000672	0.000185				-90.125604	-1.281753	-43.652099
00338	826098	0.220567	-9.798154	-0.113269				-0.005732	-0.003661	-0.002585				-90.125070	-1.281605	-43.650571
00339	826148	0.220621	-9.789883	-0.126759				-0.005553	-0.000478	0.003849				-90.126672	-1.280503	-43.650443
00340	826198	0.240861	-9.809437	-0.134662				-0.004872	-0.001319	-0.002804				-90.125852	-1.280431	-43.649599
00341	826248	0.233898	-9.792172	-0.136555				-0.002717	-0.001501	0.000399				-90.126635	-1.280317	-43.649166
00342	826298	0.238337	-9.795787	-0.145441				-0.003674	0.003488	-0.000694				-90.125504	-1.279638	-43.649737
00343	826348	0.221449	-9.779245	-0.108264				-0.004524	0.000149	-0.000291				-90.126805	-1.279725	-43.649786
00344	826398	0.225661	-9.787310	-0.119706				-0.000328	-0.000038	-0.000530				-90.124695	-1.278991	-43.649325
00345	826448	0.228229	-9.796979	-0.121887				-0.002743	0.002339	-0.002467				-90.125466	-1.279697	-43.650000
00346	826498	0.226716	-9.788017	-0.104032				-0.006551	0.000439	0.000485				-90.125130	-1.278681	-43.649624
00347	826548	0.232512	-9.788862	-0.106063				-0.001035	0.000113	-0.000238				-90.125430	-1.278748	-43.649666
00348	826598	0.222753	-9.789343	-0.113685				-0.001719	-0.003583	0.000802				-90.123767	-1.277640	-43.648166
00349	826648	0.221372	-9.801192	-0.130757				-0.004248	0.002573	-0.000604				-90.124977	-1.277816	-43.648909
00350	826698	0.230510	-9.778090	-0.114225				-0.002538	0.002220	-0.000478				-90.123478	-1.277068	-43.649089
00351	826748	0.194803	-9.780630	-0.116948				-0.002528	-0.000174	-0.000262				-90.124202	-1.277142	-43.649041
00352	826798	0.217308	-9.782531	-0.113494				-0.003441	0.000093	-0.003181				-90.122990	-1.277178	-43.648607
00353	826848	0.214774	-9.779727	-0.097686				-0.003409	0.001068	-0.002696				-90.123965	-1.277956	-43.648913
00354	826898	0.220999	-9.780716	-0.120513				-0.007180	-0.000026	0.000711				-90.123823	-1.276868	-43.648474
00355	826948	0.210795	-9.776254	-0.110558				-0.001825	0.000576	-0.003756				-90.124341	-1.277943	-43.648631
00356	826998	0.209272	-9.792154	-0.127004				0.001064	-0.000305	0.000916				-90.121842	-1.276801	-43.648097
00357	827048	0.243211	-9.801412	-0.129632				-0.001743	0.000229	0.000342				-90.122341	-1.276703	-43.648164
00358	827098	0.212585	-9.765848	-0.122393				-0.006403	0.002697	-0.002004				-90.121973	-1.276404	-43.648476
00359	827148	0.231337	-9.781556	-0.119786				-0.003275	-0.000189	-0.001739				-90.122909	-1.276907	-43.648415
00360	827198	0.214963	-9.788382	-0.121193				-0.005770	0.000967	-0.000700				-90.122360	-1.276210	-43.648290
00361	827248	0.223861	-9.797112	-0.116982				-0.008771	-0.000186	0.001352				-90.124879	-1.275819	-43.648244
00362	827298	0.223485	-9.779196	-0.125057				-0.005411	0.002778	-0.002842				-90.124218	-1.275769	-43.648587
00363	827348	0.230976	-9.816298	-0.113101				-0.004063	0.000507	-0.000613				-90.125379	-1.275944	-43.648739
00364	827398	0.224423	-9.789774	-0.114976				-0.004334	0.002253	0.000682				-90.124402	-1.274867	-43.648912
00365	827448	0.221886	-9.790874	-0.123075				-0.003601	0.001296	-0.000253				-90.125430	-1.274939	-43.649290
00366	827498	0.217175	-9.778519	-0.112520				-0.002325	0.001448	-0.000286				-90.123885	-1.274145	-43.649225
00367	827548	0.233862	-9.811924	-0.117139				-0.004016	0.000089	-0.002126				-90.125033	-1.274752	-43.649252
00368	827598	0.206713	-9.782561	-0.104820				-0.004391	0.003027	-0.001238				-90.124106	-1.274240	-43.649661
00369	827648	0.225712	-9.801357	-0.132244				-0.004245	-0.001981	-0.000816				-90.125341	-1.274471	-43.649092
00370	827698	0.242076	-9.807034	-0.135626				-0.003887	-0.000305	-0.005269				-90.124256	-1.275103	-43.648530
00371	827748	0.217763	-9.802140	-0.118746				-0.003573	0.001358	-0.001474				-90.125259	-1.275525	-43.648916
00372	827798	0.221657	-9.783601	-0.117864				-0.005615	0.002965	-0.005055				-90.124652	-1.276096	-43.649302
00373	827848	0.229023	-9.802470	-0.118762				-0.002138	0.002383	-0.001925				-90.125245	-1.276642	-43.649984
00374	827898	0.228316	-9.799756	-0.110912				-0.004792	-0.000631	0.000152				-90.124456	-1.275733	-43.649361
00375	827948	0.219432	-9.793492	-0.124456				-0.001898	0.001963	-0.002469				-90.124992	-1.276445	-43.649919
00376	827998	0.223353	-9.788823	-0.131778				-0.004411	0.001670	0.000521				-90.124034	-1.275408	-43.649931
00377	828048	0.227227	-9.792830	-0.114728				-0.003623	0.002610	-0.005476				-90.125054	-1.276977	-43.650674
00378	828098	0.223513	-9.790930	-0.118251				-0.001861	-0.001226	-0.000435				-90.123398	-1.276225	-43.649904
00379	828148	0.206946	-9.785702	-0.131848				-0.002320	0.001287	-0.000707				-90.124056	-1.276426	-43.650268
00380	828198	0.214046	-9.802010	-0.130251				-0.005450	0.002974	-0.000688				-90.123407	-1.275752	-43.650655
00381	828248	0.220785	-9.789901	-0.125427				-0.001629	0.000579	-0.002158				-90.123864	-1.276370	-43.650815
00382	828298	0.210229	-9.775629	-0.120559				-0.001328	-0.002439	0.003920				-90.122061	-1.274359	-43.649725
00383	828348	0.233380	-9.786799	-0.131787				-0.003390	0.002525	-0.002011				-90.123010	-1.274935	-43.650443
00384	828398	0.225240	-9.796280	-0.139095				-0.001736	0.000775	-0.002254				-90.121337	-1.274714	-43.650182
00385	828448	0.229814	-9.810450	-0.124137				-0.005498	-0.002908	-0.002006				-90.122915	-1.275287	-43.649338
00386	828498	0.229657	-9.785572	-0.121927				-0.003855	-0.001711	0.002330				-90.121840	-1.273745	-43.648392
00387	828548	0.224660	-9.800874	-0.134221				-0.006285	0.000214	0.000899				-90.123638	-1.273486	-43.648455
00388	828598	0.235866	-9.799604	-0.114355				-0.006298	0.003345	-0.002869				-90.123265	-1.273433	-43.648976
00389	828648	0.234589	-9.799678	-0.110886				-0.003044	0.001784	-0.002276				-90.124123	-1.274086	-43.649490
00390	828698	0.212220	-9.775494	-0.112784				-0.005823	0.001477	-0.002975				-90.123593	-1.274057	-43.649451
00391	828748	0.213023	-9.803089	-0.122321				-0.003838	-0.002556	-0.000723				-90.124715	-1.274263	-43.648730
00392	828798	0.205528	-9.777673	-0.115207				-0.006829	0.002146	-0.000276				-90.124463	-1.273465	-43.648880
00393	828848	0.224437	-9.802897	-0.110285				-0.000637	-0.000534	-0.002713				-90.124646	-1.274236	-43.648720
00394	828898	0.214665	-9.782305	-0.115156				-0.003092	0.001136	-0.002373				-90.123338	-1.274045	-43.648591
00395	828948	0.227034	-9.801560	-0.118012				-0.000821	0.000336	-0.001968				-90.123567	-1.274605	-43.648686
00396	828998	0.217164	-9.787623	-0.121874				-0.004127	0.004677	-0.002416				-90.122534	-1.274426	-43.649571
00397	829048	0.222892	-9.782949	-0.112783				-0.003129	0.003827	0.001170				-90.123401	-1.274094	-43.650665
00398	829098	0.220501	-9.803152	-0.127918				-0.006053	0.002604	-0.003126				-90.122939	-1.274109	-43.650948
00399	829148	0.228713	-9.807164	-0.106894				-0.005893	0.001869	-0.000634				-90.124612	-1.274296	-43.651480
00400	829198	0.224711	-9.790061	-0.127183				-0.001606	-0.000620	-0.006207				-90.122890	-1.275193	-43.650842
00401	829248	0.228443	-9.793973	-0.147553				-0.004119	0.001149	-0.004362				-90.124056	-1.276442	-43.651163
00402	829298	0.234875	-9.790243	-0.106749				0.000803	0.000051	0.001165				-90.121653	-1.275226	-43.650753
00403	829348	0.232725	-9.807182	-0.102715				-0.000902	0.000015	-0.000628				-90.121909	-1.275405	-43.650758
00404	829398	0.244983	-9.801932	-0.125632				-0.005765	-0.002562	-0.002388				-90.121382	-1.275213	-43.649547
00405	829448	0.236866	-9.797812	-0.122183				-0.004747	0.000717	-0.003981				-90.122735	-1.276356	-43.649746
00406	829498	0.209773	-9.786225	-0.110876				-0.004872	0.001250	0.002889				-90.121914	-1.274638	-43.649628
00407	829548	0.216512	-9.808764	-0.120530				0.002325	-0.000063	-0.004546				-90.121252	-1.275943	-43.649610
00408	829598	0.225914	-9.824994	-0.122206				-0.005560	-0.000744	-0.001581				-90.120681	-1.275517	-43.648936
00409	829648	0.228041	-9.789536	-0.112366				-0.004873	0.001917	-0.001916				-90.122064	-1.276067	-43.649479
00410	829698	0.215203	-9.784728	-0.126657				-0.004263	-0.001173	-0.000974				-90.121102	-1.275468	-43.648685
00411	829748	0.217843	-9.783750	-0.126530				-0.006883	-0.001382	-0.000614				-90.123086	-1.275646	-43.648286
00412	829798	0.227119	-9.787660	-0.127189				-0.004572	-0.000305	0.001888				-90.122210	-1.274223	-43.647730
00413	829848	0.225409	-9.799842	-0.123186				-0.006779	0.002462	-0.001265				-90.124141	-1.274588	-43.648439
00414	829898	0.218790	-9.785425	-0.124992				-0.003698	0.003346	-0.001423				-90.122985	-1.274113	-43.648926
00415	829948	0.204552	-9.781600	-0.107278				-0.006606	-0.000740	0.000361				-90.124885	-1.274005	-43.648718
00416	829998	0.221412	-9.787891	-0.132314				-0.007166	0.001673	-0.000175				-90.124746	-1.273181	-43.648697
00417	830048	0.219904	-9.781482	-0.118316				-0.004971	0.003099	-0.001068				-90.126142	-1.273483	-43.649583
00418	830098	0.222545	-9.797926	-0.126893				-0.002986	0.000935	-0.002628				-90.124828	-1.273365	-43.649355
00419	830148	0.212078	-9.776635	-0.115602				-0.003736	0.002897	0.001685				-90.125886	-1.272881	-43.650190
00420	830198	0.206543	-9.790252	-0.129251				-0.004868	0.000770	-0.002881				-90.125080	-1.272838	-43.649939
00421	830248	0.226492	-9.792588	-0.099873				-0.003624	0.004454	0.002593				-90.126091	-1.272098	-43.651219
00422	830298	0.224741	-9.815126	-0.132179				-0.004094	0.001428	-0.003521				-90.125065	-1.272225	-43.651177
00423	830348	0.223405	-9.775949	-0.120445				-0.002533	-0.000351	-0.002535				-90.125784	-1.272947	-43.651073
00424	830398	0.245283	-9.791285	-0.123435				-0.002009	-0.001796	-0.002676				-90.124210	-1.272842	-43.650122
00425	830448	0.224456	-9.787960	-0.109480				-0.004179	0.001238	-0.002397				-90.125399	-1.273528	-43.650472
00426	830498	0.227412	-9.786597	-0.118616				-0.004386	0.000616	-0.002945				-90.124465	-1.273495	-43.650183
00427	830548	0.219527	-9.803491	-0.106144				-0.005442	0.003064	0.000760				-90.126004	-1.273278	-43.651066
00428	830598	0.220984	-9.800652	-0.135477				-0.001922	0.000791	-0.002050				-90.124371	-1.272989	-43.650792
00429	830648	0.226624	-9.779202	-0.122626				-0.005345	-0.000764	-0.004393				-90.125911	-1.274246	-43.650575
00430	830698	0.234203	-9.792063	-0.113045				-0.002933	-0.000545	0.000635				-90.124563	-1.273188	-43.649951
00431	830748	0.222758	-9.772556	-0.125125				-0.001332	0.002351	-0.002433				-90.124925	-1.273886	-43.650616
00432	830798	0.218725	-9.800781	-0.113461				-0.001775	0.002379	-0.002047				-90.123233	-1.273595	-43.650845
00433	830848	0.236767	-9.800725	-0.133943				-0.003406	-0.000211	-0.004974				-90.124215	-1.275026	-43.650776
00434	830898	0.211646	-9.793946	-0.116326				-0.001878	0.001735	0.000905				-90.122546	-1.273881	-43.650789
00435	830948	0.224328	-9.798282	-0.117331				-0.003620	-0.004501	-0.000084				-90.123612	-1.273901	-43.649502
00436	830998	0.198632	-9.787519	-0.097579				-0.003757	0.000247	0.000133				-90.122509	-1.272987	-43.649098
00437	831048	0.226610	-9.794750	-0.114023				-0.004276	0.000098	-0.003781				-90.123749	-1.274071	-43.649140
00438	831098	0.224354	-9.796229	-0.127173				-0.003529	0.003226	0.000498				-90.122549	-1.273053	-43.649594
00439	831148	0.238584	-9.803420	-0.110782				-0.004847	0.001393	0.002158				-90.123931	-1.272438	-43.649994
00440	831198	0.215528	-9.781574	-0.115584				-0.007786	-0.000018	0.000299				-90.123966	-1.271468	-43.649511
00441	831248	0.231405	-9.804385	-0.115877				-0.002358	0.004466	-0.003412				-90.124609	-1.272440	-43.650787
00442	831298	0.213793	-9.791681	-0.138640				-0.005153	0.002410	-0.005306				-90.123912	-1.273084	-43.651017
00443	831348	0.213202	-9.782102	-0.114380				-0.002901	0.002524	-0.001463				-90.124725	-1.273507	-43.651745
00444	831398	0.212629	-9.795114	-0.116830				-0.003767	-0.000595	0.000452				-90.123619	-1.272499	-43.651106
00445	831448	0.231205	-9.801104	-0.097806				-0.006036	0.003306	-0.000809				-90.125329	-1.272735	-43.652052
00446	831498	0.230289	-9.792952	-0.119476				-0.003605	0.003513	-0.001298				-90.124151	-1.272236	-43.652618
00447	831548	0.198260	-9.785096	-0.116712				-0.003620	0.001925	-0.001754				-90.125171	-1.272736	-43.653164
00448	831598	0.231770	-9.806773	-0.099208				-0.004074	0.000883	-0.001148				-90.124165	-1.272201	-43.652953
00449	831648	0.216382	-9.797964	-0.129060				-0.002978	0.002810	-0.000981				-90.124997	-1.272480	-43.653748
00450	831698	0.211337	-9.791556	-0.133272				-0.002611	-0.001070	-0.004436				-90.123559	-1.272875	-43.652974
00451	831748	0.226787	-9.789869	-0.107142				-0.007403	0.001021	0.000849				-90.125673	-1.272628	-43.653264
00452	831798	0.233095	-9.798676	-0.130784				-0.003625	-0.001311	-0.003211				-90.124528	-1.272668	-43.652395
00453	831848	0.219205	-9.802647	-0.130352				-0.005328	-0.000808	0.001860				-90.126060	-1.272138	-43.652167
00454	831898	0.218226	-9.797303	-0.124318				-0.006810	0.000416	-0.000951				-90.125849	-1.271529	-43.651829
00455	831948	0.223682	-9.803867	-0.109739				-0.005364	-0.000850	-0.001124				-90.127400	-1.271854	-43.651585
00456	831998	0.215416	-9.791869	-0.109422				-0.005483	0.004157	-0.001287				-90.126739	-1.271341	-43.652322
00457	832048	0.200152	-9.785325	-0.115761				-0.001881	0.005837	-0.001605				-90.127250	-1.271804	-43.654004
00458	832098	0.224361	-9.788110	-0.100132				-0.005206	0.000609	0.000684				-90.126550	-1.270728	-43.653678
00459	832148	0.217810	-9.780451	-0.125289				-0.003329	-0.001366	-0.002478				-90.127519	-1.271433	-43.653290
00460	832198	0.208150	-9.790729	-0.128099				-0.004923	0.000580	-0.000054				-90.126749	-1.270582	-43.653011
00461	832248	0.213459	-9.801336	-0.112803				-0.006586	0.001389	-0.001685				-90.128631	-1.271070	-43.653415
00462	832298	0.224961	-9.785555	-0.126927				-0.001950	0.001701	-0.001179				-90.126985	-1.270517	-43.653439
00463	832348	0.211601	-9.784515	-0.127839				-0.004128	-0.000209	0.001411				-90.128166	-1.270116	-43.653383
00464	832398	0.219360	-9.788085	-0.136718				-0.004290	-0.001349	-0.000902				-90.127221	-1.269493	-43.652518
00465	832448	0.221627	-9.805151	-0.104371				-0.004365	0.003666	0.003488				-90.128451	-1.268499	-43.653568
00466	832498	0.218063	-9.785804	-0.116122				-0.003976	0.004052	-0.001676				-90.127392	-1.268103	-43.654275
00467	832548	0.214680	-9.798865	-0.118071				-0.003519	0.000637	-0.002567				-90.128396	-1.268833	-43.654460
00468	832598	0.222241	-9.786943	-0.131477				-0.005076	0.003254	-0.003442				-90.127653	-1.268948	-43.654914
00469	832648	0.235139	-9.805314	-0.114131				-0.006332	0.000653	0.001038				-90.129467	-1.268648	-43.655105
00470	832698	0.224570	-9.783640	-0.112706				-0.000516	0.002177	0.000773				-90.127412	-1.267557	-43.655249
00471	832748	0.231020	-9.804933	-0.126881				-0.001337	0.000344	-0.003247				-90.127796	-1.268492	-43.655347
00472	832798	0.221514	-9.788393	-0.130510				-0.002282	0.003015	-0.002134				-90.126252	-1.268221	-43.655751
00473	832848	0.222608	-9.790104	-0.125939				-0.002554	-0.001577	-0.001165				-90.126995	-1.268554	-43.655294
00474	832898	0.229104	-9.787739	-0.136030				-0.003248	0.000224	-0.000577				-90.125743	-1.267843	-43.654899
00475	832948	0.216296	-9.782333	-0.112026				-0.003438	0.000283	-0.000703				-90.126725	-1.268042	-43.654982
00476	832998	0.230126	-9.803388	-0.119973				-0.002830	0.003332	-0.000111				-90.125353	-1.267215	-43.655473
00477	833048	0.216526	-9.793646	-0.116586				-0.005054	0.004676	-0.002989				-90.126772	-1.268075	-43.656813
00478	833098	0.236384	-9.800687	-0.121032				-0.005435	0.000565	-0.001407				-90.126148	-1.267604	-43.656530
00479	833148	0.229735	-9.802110	-0.110755				-0.005120	-0.000869	0.003754				-90.127631	-1.266530	-43.656283
00480	833198	0.229521	-9.793597	-0.109538				-0.005957	-0.000315	-0.001536				-90.127156	-1.266098	-43.655718
00481	833248	0.219388	-9.790902	-0.108009				-0.005321	-0.000004	0.001002				-90.128690	-1.265811	-43.655729
00482	833298	0.218561	-9.792878	-0.118809				-0.006167	-0.000441	0.000838				-90.128272	-1.264701	-43.655152
00483	833348	0.219241	-9.786518	-0.114591				0.000054	0.004352	-0.001816				-90.128230	-1.265227	-43.656398
00484	833398	0.234445	-9.794294	-0.106089				-0.003402	-0.001040	-0.000165				-90.127025	-1.264388	-43.655628
00485	833448	0.227801	-9.779302	-0.129921				-0.004758	0.003456	-0.002351				-90.128371	-1.265064	-43.656622
00486	833498	0.231421	-9.790305	-0.121459				-0.003789	0.003281	-0.001746				-90.127259	-1.264694	-43.657104
00487	833548	0.231325	-9.808798	-0.106843				-0.005097	-0.000038	0.000294				-90.128706	-1.264607	-43.657093
00488	833598	0.216748	-9.778220	-0.116542				-0.002328	0.001492	-0.003366				-90.127209	-1.264692	-43.657051
00489	833648	0.226925	-9.786358	-0.134644				-0.005125	0.001127	0.001648				-90.128677	-1.264220	-43.657383
00490	833698	0.208564	-9.792535	-0.118205				-0.003542	0.000377	-0.001054				-90.127503	-1.263650	-43.657016
00491	833748	0.213901	-9.787541	-0.114674				-0.002827	-0.002333	-0.006012				-90.128335	-1.265370	-43.656353
00492	833798	0.235056	-9.795633	-0.111371				-0.002498	-0.001483	-0.002578				-90.126881	-1.265232	-43.655459
00493	833848	0.230202	-9.783440	-0.121193				-0.001743	0.002151	-0.003617				-90.127373	-1.266271	-43.656078
00494	833898	0.221258	-9.789124	-0.128837				-0.005341	-0.001629	-0.000964				-90.126772	-1.265672	-43.655126
00495	833948	0.223752	-9.782118	-0.135421				-0.007088	0.000126	0.000236				-90.128796	-1.265602	-43.655156
00496	833998	0.232502	-9.779345	-0.123603				-0.003408	0.002319	-0.001337				-90.127575	-1.265102	-43.655427
00497	834048	0.231304	-9.794588	-0.136136				-0.004451	-0.000121	-0.000127				-90.128849	-1.265135	-43.655388
00498	834098	0.223454	-9.788415	-0.111514				-0.001623	-0.001360	0.001337				-90.127156	-1.263877	-43.654537
00499	834148	0.225667	-9.792236	-0.123642				-0.003096	0.001942	0.002834				-90.128025	-1.263068	-43.655096
00500	834198	0.222445	-9.792458	-0.127072				-0.002016	-0.001178	-0.000779				-90.126429	-1.262415	-43.654278
00501	834248	0.213449	-9.800077	-0.117574				-0.003677	-0.000368	-0.000098				-90.127485	-1.262442	-43.654173
00502	834298	0.226482	-9.787757	-0.136748				-0.003433	0.000092	0.000098				-90.126303	-1.261546	-43.653742
00503	834348	0.219350	-9.788830	-0.119523				-0.006014	0.001328	-0.004733				-90.128016	-1.262900	-43.654119
00504	834398	0.211948	-9.796397	-0.111000				-0.000958	0.000549	-0.002728				-90.126109	-1.262808	-43.653809
00505	834448	0.232065	-9.800024	-0.121323				-0.007947	0.003882	-0.002246				-90.128368	-1.263458	-43.654924
00506	834498	0.223147	-9.800500	-0.097425				-0.003301	0.000735	-0.002722				-90.127135	-1.263359	-43.654675
00507	834548	0.240159	-9.797138	-0.117478				-0.006779	0.001185	-0.004157				-90.129075	-1.264551	-43.655015
00508	834598	0.220356	-9.792953	-0.127704				-0.006055	0.002721	-0.003602				-90.128616	-1.264712	-43.655343
00509	834648	0.210729	-9.787381	-0.127382				-0.004940	0.001033	-0.000564				-90.130024	-1.264871	-43.655639
00510	834698	0.235343	-9.793890	-0.131863				-0.006537	0.000906	-0.000631				-90.129716	-1.264180	-43.655408
00511	834748	0.213673	-9.790334	-0.118524				-0.005858	-0.000706	-0.005384				-90.131394	-1.265721	-43.655200
00512	834798	0.241242	-9.789872	-0.125941				0.000302	-0.003690	-0.001090				-90.129151	-1.265162	-43.653670
00513	834848	0.223065	-9.810562	-0.137468				-0.003523	-0.000503	-0.003952				-90.130164	-1.266298	-43.653516
00514	834898	0.238175	-9.798327	-0.118769				-0.000932	0.001037	0.000029				-90.128263	-1.265409	-43.653343
00515	834948	0.217715	-9.790863	-0.126956				-0.004893	0.000317	-0.002751				-90.129663	-1.266198	-43.653435
00516	834998	0.213959	-9.804088	-0.149120				-0.002386	0.002138	-0.002109				-90.128156	-1.265915	-43.653583
00517	835048	0.218098	-9.797870	-0.102928				-0.003166	0.001743	-0.000598				-90.129041	-1.266091	-43.654073
00518	835098	0.216661	-9.800317	-0.130269				-0.004477	0.003524	-0.003250				-90.128141	-1.266142	-43.654631
00519	835148	0.226798	-9.803746	-0.114923				-0.001556	0.006814	-0.000132				-90.128549	-1.266182	-43.656579
00520	835198	0.204069	-9.780447	-0.105168				0.001772	-0.000495	-0.000047				-90.125872	-1.265327	-43.655989
00521	835248	0.205799	-9.778753	-0.121873				-0.006092	-0.000020	0.000393				-90.127628	-1.265214	-43.655987
00522	835298	0.200702	-9.804055	-0.131386				-0.003664	0.002315	-0.000238				-90.126476	-1.264400	-43.656180
00523	835348	0.204273	-9.796277	-0.125094				-0.009531	0.000039	-0.002711				-90.129197	-1.265175	-43.656183
00524	835398	0.204217	-9.799117	-0.110496				-0.002644	-0.000038	-0.005680				-90.127800	-1.265926	-43.655714
00525	835448	0.211575	-9.780231	-0.113343				0.001580	-0.000668	-0.004376				-90.127363	-1.267183	-43.655525
00526	835498	0.240499	-9.790414	-0.122521				-0.004160	0.000560	-0.001661				-90.126375	-1.266777	-43.655236
00527	835548	0.221451	-9.808401	-0.124963				-0.003158	0.001421	-0.001630				-90.127279	-1.267251	-43.655639
00528	835598	0.209628	-9.798086	-0.110761				-0.003493	0.001926	-0.002041				-90.126082	-1.266955	-43.655721
00529	835648	0.219524	-9.797565	-0.137559				-0.007216	-0.000143	-0.002748				-90.128156	-1.267748	-43.655678
00530	835698	0.217496	-9.799110	-0.114916				-0.003951	0.001143	-0.001884				-90.127108	-1.267405	-43.655544
00531	835748	0.213386	-9.794549	-0.121904				-0.005790	0.003962	0.001889				-90.128739	-1.266867	-43.656673
00532	835798	0.236868	-9.790627	-0.111470				-0.005525	-0.001562	0.000574				-90.128165	-1.265827	-43.655681
00533	835848	0.225694	-9.787930	-0.126015				-0.003757	0.000245	0.000261				-90.129242	-1.265755	-43.655754
00534	835898	0.208955	-9.792030	-0.119704				-0.005286	0.001227	0.003254				-90.128566	-1.263944	-43.655623
00535	835948	0.228176	-9.800708	-0.126230				-0.003224	-0.000255	0.003622				-90.129485	-1.262910	-43.655550
00536	835998	0.226715	-9.794932	-0.117296				-0.000532	0.002632	-0.000061				-90.127460	-1.262052	-43.655813
00537	836048	0.218454	-9.783222	-0.114300				-0.005132	0.001898	-0.002162				-90.128928	-1.262672	-43.656363
00538	836098	0.208680	-9.791171	-0.114103				-0.001496	0.003152	-0.006464				-90.127151	-1.263641	-43.656777
00539	836148	0.209276	-9.799133	-0.136163				-0.002839	-0.001682	-0.001709				-90.127986	-1.264131	-43.656298
00540	836198	0.219681	-9.784138	-0.115397				-0.002372	-0.003254	-0.000981				-90.126506	-1.263531	-43.654895
00541	836248	0.230572	-9.788151	-0.123349				-0.001397	0.001119	-0.005678				-90.126899	-1.265163	-43.655208
00542	836298	0.236507	-9.812700	-0.126535				-0.004859	-0.000649	-0.000768				-90.126145	-1.264511	-43.654550
00543	836348	0.212663	-9.799686	-0.097203				-0.005142	-0.000720	-0.002339				-90.127629	-1.265190	-43.654341
00544	836398	0.213163	-9.785892	-0.114350				-0.001712	-0.000462	0.000890				-90.125938	-1.264042	-43.653724
00545	836448	0.225729	-9.795196	-0.116375				-0.004378	0.001624	0.000397				-90.127190	-1.263930	-43.654195
00546	836498	0.215386	-9.789818	-0.104478				-0.006642	0.005233	-0.002818				-90.126890	-1.263865	-43.655223
00547	836548	0.228339	-9.811926	-0.121669				-0.003318	0.002548	-0.000054				-90.127835	-1.263882	-43.655962
00548	836598	0.219637	-9.787934	-0.146140				-0.005516	0.000053	0.000136				-90.127218	-1.262971	-43.655481
00549	836648	0.226608	-9.791964	-0.125249				-0.002568	0.000676	-0.006252				-90.127948	-1.264766	-43.655669
00550	836698	0.217437	-9.790115	-0.114050				-0.008121	0.002066	-0.004818				-90.128115	-1.265271	-43.655800
00551	836748	0.217825	-9.795498	-0.134209				-0.005335	0.002247	-0.003604				-90.129631	-1.266306	-43.656451
00552	836798	0.222130	-9.807299	-0.119033				-0.002644	0.001527	0.000165				-90.128200	-1.265370	-43.656401
00553	836848	0.240360	-9.796306	-0.124873				-0.004914	0.001294	0.000424				-90.129598	-1.265246	-43.656779
00554	836898	0.234128	-9.808065	-0.105941				-0.006430	0.000123	-0.006377				-90.129280	-1.266215	-43.656328
00555	836948	0.236803	-9.788112	-0.136375				-0.005788	-0.000702	-0.002789				-90.130942	-1.267011	-43.656121
00556	836998	0.217656	-9.784383	-0.101344				-0.006115	0.000720	-0.000820				-90.130531	-1.266378	-43.655871
00557	837048	0.212944	-9.799421	-0.113878				-0.001206	0.000455	-0.000648				-90.130878	-1.266564	-43.656000
00558	837098	0.211212	-9.811701	-0.119196				-0.002784	0.000716	-0.001182				-90.129497	-1.266021	-43.655766
00559	837148	0.202118	-9.787272	-0.111139				-0.007951	0.002847	-0.004171				-90.131758	-1.267219	-43.656576
00560	837198	0.215423	-9.782178	-0.123021				-0.002404	-0.002223	-0.001234				-90.130302	-1.266698	-43.655473
00561	837248	0.222397	-9.805452	-0.130791				-0.005496	0.001247	-0.001331				-90.131881	-1.267086	-43.655833
00562	837298	0.218838	-9.790457	-0.121469				-0.006399	-0.000677	-0.002816				-90.131537	-1.267014	-43.655145
00563	837348	0.231111	-9.794519	-0.124841				-0.004402	0.000068	-0.002661				-90.132800	-1.267778	-43.655161
00564	837398	0.222552	-9.806005	-0.110045				-0.000113	0.000404	-0.000934				-90.130670	-1.267168	-43.654809
00565	837448	0.231907	-9.796578	-0.113758				-0.002407	0.001275	0.001156				-90.131351	-1.266834	-43.655178
00566	837498	0.230244	-9.792371	-0.111133				-0.002223	-0.000829	-0.001259				-90.129840	-1.266324	-43.654474
00567	837548	0.209669	-9.786980	-0.108055				-0.007147	0.000024	-0.000664				-90.131889	-1.266519	-43.654481
00568	837598	0.232762	-9.796925	-0.121495				-0.004755	0.000163	-0.001118				-90.131074	-1.265955	-43.654074
00569	837648	0.228364	-9.787557	-0.117667				-0.006191	0.001844	-0.003382				-90.132842	-1.266929	-43.654596
00570	837698	0.216017	-9.804884	-0.126962				-0.005051	0.000118	-0.003651				-90.132130	-1.267100	-43.654175
00571	837748	0.227225	-9.791080	-0.120527				-0.005917	0.000332	-0.003710				-90.133820	-1.268160	-43.654266
00572	837798	0.228900	-9.808178	-0.133874				-0.002561	0.000751	-0.001602				-90.132377	-1.267742	-43.653985
00573	837848	0.201233	-9.783239	-0.126763				-0.001498	0.000504	-0.003300				-90.132800	-1.268688	-43.654126
00574	837898	0.223160	-9.794771	-0.115218				-0.004809	-0.001134	-0.001448				-90.132038	-1.268225	-43.653348
00575	837948	0.210816	-9.800830	-0.116623				-0.005686	0.000277	-0.000857				-90.133665	-1.268472	-43.653424
00576	837998	0.229421	-9.801819	-0.115008				-0.005271	-0.000820	-0.002215				-90.133029	-1.268232	-43.652717
00577	838048	0.235719	-9.783231	-0.130147				-0.003676	0.001602	-0.001336				-90.134080	-1.268618	-43.653179
00578	838098	0.201539	-9.774179	-0.098588				-0.005639	-0.001211	-0.001632				-90.133519	-1.268207	-43.652378
00579	838148	0.207344	-9.808167	-0.105288				-0.004106	0.000783	-0.003361				-90.134688	-1.269173	-43.652594
00580	838198	0.229658	-9.787326	-0.115720				-0.004291	0.002015	0.001295				-90.133742	-1.267924	-43.652722
00581	838248	0.218127	-9.793485	-0.110564				-0.003241	-0.001272	-0.003377				-90.134674	-1.268893	-43.652356
00582	838298	0.218589	-9.794255	-0.106316				-0.005278	0.002476	-0.002870				-90.133986	-1.268851	-43.652568
00583	838348	0.217128	-9.803044	-0.121896				-0.005154	0.001736	-0.001652				-90.135453	-1.269323	-43.653063
00584	838398	0.215858	-9.792418	-0.135351				-0.006377	0.001004	-0.000820				-90.135143	-1.268681	-43.652915
00585	838448	0.212729	-9.794239	-0.127465				-0.006969	0.000186	-0.001431				-90.137139	-1.269090	-43.652964
00586	838498	0.241769	-9.798498	-0.120240				-0.010380	-0.000259	-0.000595				-90.137956	-1.268387	-43.652426
00587	838548	0.230654	-9.813551	-0.122381				-0.003013	-0.000466	-0.005650				-90.138819	-1.270004	-43.652289
00588	838598	0.220612	-9.804750	-0.116093				-0.001218	0.003041	0.001296				-90.136974	-1.268754	-43.652681
00589	838648	0.226727	-9.791489	-0.125256				-0.002832	0.001131	-0.001469				-90.137774	-1.269177	-43.653009
00590	838698	0.218003	-9.772493	-0.133709				-0.006966	-0.000618	-0.000088				-90.137617	-1.268323	-43.652378
00591	838748	0.216185	-9.793409	-0.117142				-0.005764	0.000924	-0.000726				-90.139258	-1.268530	-43.652637
00592	838798	0.228197	-9.799976	-0.111833				-0.002578	0.000260	-0.001864				-90.137828	-1.268191	-43.652245
00593	838848	0.225395	-9.786061	-0.124323				-0.002845	0.001946	0.002257				-90.138631	-1.267543	-43.652800
00594	838898	0.215592	-9.800239	-0.120365				-0.001021	0.000948	0.000831				-90.136772	-1.266433	-43.652625
00595	838948	0.203279	-9.780008	-0.134971				-0.004166	-0.000118	-0.001023				-90.137970	-1.266724	-43.652595
00596	838998	0.219343	-9.781870	-0.123830				-0.004819	0.000620	0.003250				-90.137191	-1.264920	-43.652308
00597	839048	0.198298	-9.777409	-0.123054				-0.005779	0.001012	-0.004797				-90.138838	-1.266294	-43.652600
00598	839098	0.202719	-9.775685	-0.123322				-0.007334	-0.000273	-0.001431				-90.138774	-1.265829	-43.652054
00599	839148	0.209911	-9.798109	-0.139986				-0.001263	0.001426	0.001702				-90.139135	-1.265344	-43.652470
00600	839198	0.207960	-9.794980	-0.113731				-0.005493	0.002050	-0.003991				-90.138533	-1.265598	-43.652575
00601	839248	0.216035	-9.785718	-0.107668				-0.001160	0.003328	-0.000435				-90.138827	-1.265721	-43.653526
00602	839298	0.216607	-9.769509	-0.112553				-0.002529	0.001916	-0.000666				-90.137397	-1.265044	-43.653629
00603	839348	0.209661	-9.775281	-0.128848				-0.006010	-0.002870	-0.002284				-90.139133	-1.265697	-43.652800
00604	839398	0.218447	-9.796526	-0.112928				-0.001107	0.000251	-0.003535				-90.137280	-1.265829	-43.652417
00605	839448	0.231353	-9.783886	-0.122416				-0.003847	0.000049	-0.000031				-90.138387	-1.265840	-43.652438
00606	839498	0.230876	-9.783733	-0.116918				-0.003114	0.001964	-0.001593				-90.137113	-1.265424	-43.652522
00607	839548	0.223074	-9.796046	-0.109401				-0.001514	-0.000779	0.000056				-90.137553	-1.265409	-43.652293
00608	839598	0.217949	-9.797585	-0.121385				-0.001970	-0.000696	-0.000870				-90.135953	-1.264773	-43.651633
00609	839648	0.223845	-9.792366	-0.132217				-0.003464	0.001095	0.001640				-90.136939	-1.264305	-43.651941
00610	839698	0.200948	-9.787066	-0.125637				-0.005186	0.000736	-0.000242				-90.136280	-1.263508	-43.651723
00611	839748	0.204410	-9.782994	-0.109232				0.000954	0.000903	-0.003150				-90.136002	-1.264413	-43.651977
00612	839798	0.208558	-9.779274	-0.116560				-0.004084	0.001600	0.002102				-90.135014	-1.262935	-43.651979
00613	839848	0.232536	-9.783107	-0.125778				-0.001786	-0.000328	0.000795				-90.135519	-1.262706	-43.651881
00614	839898	0.231917	-9.795141	-0.115020				-0.004093	0.000542	-0.001022				-90.134521	-1.262117	-43.651573
00615	839948	0.245006	-9.802400	-0.156741				-0.003111	0.000344	0.003880				-90.135419	-1.261009	-43.651677
00616	839998	0.230287	-9.795937	-0.110418				-0.004683	-0.000986	-0.000389				-90.134604	-1.260241	-43.650866
00617	840048	0.224174	-9.787737	-0.108893				-0.000489	-0.000077	-0.002798				-90.134751	-1.261042	-43.650843
00618	840098	0.211129	-9.772191	-0.112559				-0.006306	-0.001238	0.000324				-90.134393	-1.260072	-43.650032
00619	840148	0.208205	-9.789308	-0.127800				-0.004267	0.002930	-0.003539				-90.135588	-1.261089	-43.650868
00620	840198	0.218492	-9.806368	-0.105577				-0.003745	0.001711	-0.002524				-90.134499	-1.260939	-43.650900
00621	840248	0.226288	-9.793574	-0.113277				-0.002319	0.000019	-0.003885				-90.135158	-1.262054	-43.650902
00622	840298	0.219730	-9.790198	-0.121754				-0.000444	-0.000294	-0.000101				-90.133147	-1.261209	-43.650344
00623	840348	0.218280	-9.804185	-0.123529				-0.002479	-0.000686	0.001218				-90.133867	-1.260864	-43.650146
00624	840398	0.233912	-9.794824	-0.118844				-0.004970	0.001979	-0.002103				-90.133123	-1.260591	-43.650235
00625	840448	0.212295	-9.797788	-0.128277				-0.001737	0.003134	-0.002616				-90.133610	-1.261343	-43.651132
00626	840498	0.213964	-9.794370	-0.133244				-0.008932	0.002816	-0.001510				-90.133996	-1.260894	-43.651469
00627	840548	0.233028	-9.796969	-0.118507				-0.002144	0.002802	-0.003581				-90.134585	-1.261920	-43.652262
00628	840598	0.225535	-9.808930	-0.133714				-0.005366	0.002433	-0.000816				-90.133967	-1.261292	-43.652509
00629	840648	0.228846	-9.791816	-0.117870				-0.003055	0.001043	-0.001922				-90.134841	-1.261846	-43.652805
00630	840698	0.233244	-9.786591	-0.114711				-0.002653	0.002965	0.001424				-90.133420	-1.260551	-43.653177
00631	840748	0.218239	-9.781209	-0.122162				-0.005611	0.002132	-0.000656				-90.135009	-1.260738	-43.653786
00632	840798	0.224256	-9.786453	-0.115232				-0.003587	-0.000321	-0.002541				-90.133894	-1.260599	-43.653225
00633	840848	0.215711	-9.796825	-0.111310				-0.004067	-0.000359	-0.000961				-90.135072	-1.260881	-43.653125
00634	840898	0.214581	-9.778791	-0.112251				-0.002606	0.001310	-0.002143				-90.133645	-1.260618	-43.653060
00635	840948	0.216429	-9.796664	-0.136088				-0.004814	0.003145	-0.002418				-90.135001	-1.261310	-43.653959
00636	840998	0.220756	-9.785224	-0.136323				-0.004262	-0.001206	-0.000551				-90.134081	-1.260599	-43.653153
00637	841048	0.221794	-9.778314	-0.121960				-0.005684	-0.001714	-0.000835				-90.135725	-1.260838	-43.652665
00638	841098	0.217896	-9.797794	-0.139289				-0.010552	0.000908	-0.004306				-90.136583	-1.261198	-43.652429
00639	841148	0.237328	-9.821759	-0.122473				-0.006206	-0.000495	-0.001120				-90.138373	-1.261516	-43.652293
00640	841198	0.211216	-9.800637	-0.129070				-0.004707	0.002528	-0.003991				-90.137563	-1.261785	-43.652539
00641	841248	0.225266	-9.803028	-0.116462				-0.005727	0.003418	-0.004881				-90.139179	-1.263182	-43.653515
00642	841298	0.203995	-9.794433	-0.106486				-0.003984	0.000256	-0.000827				-90.138166	-1.262544	-43.653115
00643	841348	0.230406	-9.795876	-0.130308				-0.004672	0.002828	-0.000560				-90.139475	-1.262704	-43.653927
00644	841398	0.223354	-9.775273	-0.117853				-0.003540	0.000458	0.000230				-90.138343	-1.261770	-43.653578
00645	841448	0.215258	-9.780384	-0.100975				-0.003196	0.002856	-0.000817				-90.139246	-1.262012	-43.654391
00646	841498	0.232837	-9.783941	-0.117210				-0.005811	0.001026	-0.003294				-90.138737	-1.262073	-43.654232
00647	841548	0.231465	-9.812246	-0.113538				-0.003157	0.001429	-0.001821				-90.139618	-1.262596	-43.654631
00648	841598	0.226667	-9.785164	-0.135607				-0.005205	0.002465	-0.000976				-90.138961	-1.262006	-43.654895
00649	841648	0.207507	-9.789881	-0.137413				-0.006181	0.000861	-0.002103				-90.140727	-1.262605	-43.655138
00650	841698	0.212444	-9.780581	-0.136672				-0.002498	0.000498	-0.003815				-90.139286	-1.262824	-43.654825
00651	841748	0.226551	-9.788559	-0.130749				-0.003412	0.002296	-0.003454				-90.140247	-1.263813	-43.655483
00652	841798	0.233740	-9.789356	-0.134855				-0.002094	0.003092	-0.004321				-90.138685	-1.264181	-43.655895
00653	841848	0.208562	-9.783821	-0.129499				-0.004371	-0.000855	-0.002630				-90.139946	-1.264935	-43.655649
00654	841898	0.224321	-9.800534	-0.094626				-0.004814	-0.001156	-0.004272				-90.139184	-1.265283	-43.654858
00655	841948	0.227344	-9.795440	-0.099107				-0.002797	-0.003929	-0.001112				-90.140001	-1.265603	-43.653723
00656	841998	0.223484	-9.793164	-0.126919				-0.003565	-0.003200	-0.002713				-90.138891	-1.265500	-43.652343
00657	842048	0.207732	-9.796158	-0.129931				-0.003704	-0.002681	-0.001037				-90.139973	-1.265794	-43.651581
00658	842098	0.215210	-9.784098	-0.121895				-0.004771	-0.001246	-0.000514				-90.139198	-1.265062	-43.650740
00659	842148	0.214443	-9.789023	-0.110132				-0.003469	0.002301	-0.000721				-90.140179	-1.265271	-43.651396
00660	842198	0.222028	-9.790867	-0.107462				-0.001621	0.002623	-0.000532				-90.138471	-1.264548	-43.651694
00661	842248	0.230962	-9.796884	-0.110297				-0.004918	0.001332	-0.001401				-90.139866	-1.264953	-43.652074
00662	842298	0.196546	-9.801965	-0.116693				-0.003307	0.000205	0.000196				-90.138665	-1.264013	-43.651646
00663	842348	0.216426	-9.775398	-0.115448				-0.005155	0.001949	-0.000179				-90.140135	-1.264065	-43.652204
00664	842398	0.208874	-9.778600	-0.114142				-0.002553	-0.001498	-0.001456				-90.138729	-1.263610	-43.651318
00665	842448	0.214684	-9.793036	-0.127217				-0.007703	0.001021	-0.005115				-90.140929	-1.265077	-43.651602
00666	842498	0.218704	-9.795992	-0.116278				-0.001574	0.004008	-0.003927				-90.139204	-1.265324	-43.652280
00667	842548	0.224210	-9.791101	-0.106314				-0.002827	-0.001958	-0.000941				-90.140017	-1.265594	-43.651712
00668	842598	0.224144	-9.793392	-0.111625				-0.003925	0.001925	-0.007045				-90.139002	-1.266733	-43.651802
00669	842648	0.223589	-9.790345	-0.124756				-0.003124	0.002565	0.000466				-90.139882	-1.266601	-43.652539
00670	842698	0.233712	-9.793869	-0.119077				-0.004277	0.001151	-0.002685				-90.138956	-1.266494	-43.652410
00671	842748	0.238900	-9.793964	-0.124183				-0.003851	-0.000036	-0.000353				-90.140068	-1.266599	-43.652394
00672	842798	0.224233	-9.775456	-0.136364				-0.006154	0.000893	-0.002297				-90.139656	-1.266364	-43.652163
00673	842848	0.224262	-9.776651	-0.135482				-0.000826	0.000830	0.000127				-90.139884	-1.266327	-43.652395
00674	842898	0.219752	-9.783295	-0.124031				-0.003068	-0.001543	-0.003089				-90.138632	-1.266347	-43.651498
00675	842948	0.219859	-9.791988	-0.128952				-0.007009	-0.001609	-0.002470				-90.140644	-1.267045	-43.651041
00676	842998	0.203477	-9.782319	-0.123123				-0.008316	0.000504	0.000080				-90.140880	-1.266151	-43.650722
00677	843048	0.219971	-9.803190	-0.125513				-0.004865	0.001660	-0.000789				-90.142270	-1.266375	-43.651204
00678	843098	0.214690	-9.794976	-0.124330				-0.006091	-0.000303	-0.004067				-90.141872	-1.266672	-43.650638
00679	843148	0.230082	-9.812507	-0.128631				-0.004731	0.002664	-0.000528				-90.143205	-1.266826	-43.651397
00680	843198	0.208971	-9.793000	-0.133818				-0.003541	0.000361	-0.001247				-90.142088	-1.266305	-43.651059
00681	843248	0.202493	-9.789880	-0.126000				-0.001478	0.000778	-0.004074				-90.142502	-1.267472	-43.651281
00682	843298	0.223785	-9.790990	-0.114005				-0.003020	0.002147	-0.001015				-90.141211	-1.266886	-43.651435
00683	843348	0.232702	-9.807745	-0.128181				-0.005046	-0.000896	-0.001702				-90.142658	-1.267372	-43.651179
00684	843398	0.228944	-9.801519	-0.119085				-0.003666	-0.005072	-0.001343				-90.141588	-1.266879	-43.649250
00685	843448	0.205647	-9.763822	-0.121271				-0.000070	-0.002103	-0.001944				-90.141626	-1.267435	-43.648653
00686	843498	0.220543	-9.803440	-0.124263				-0.002239	0.002138	0.003508				-90.140118	-1.265559	-43.648773
00687	843548	0.201970	-9.770227	-0.124041				-0.006076	-0.003566	-0.001356				-90.141888	-1.265948	-43.647752
00688	843598	0.220442	-9.782120	-0.138258				-0.006343	0.003225	0.000668				-90.141533	-1.264879	-43.648200
00689	843648	0.221646	-9.798324	-0.132295				-0.006578	0.000046	-0.002332				-90.143406	-1.265544	-43.648213
00690	843698	0.217868	-9.786396	-0.124289				-0.003578	0.000487	-0.002178				-90.142310	-1.265293	-43.647861
00691	843748	0.210868	-9.800153	-0.114594				-0.001519	0.002235	-0.002752				-90.142731	-1.266078	-43.648505
00692	843798	0.230525	-9.805239	-0.107326				-0.005239	-0.001413	0.001956				-90.142099	-1.264646	-43.647640
00693	843848	0.211035	-9.787241	-0.136725				-0.003461	-0.000091	-0.000258				-90.143095	-1.264717	-43.647613
00694	843898	0.234794	-9.799636	-0.128908				-0.004315	-0.000792	-0.004430				-90.142181	-1.265113	-43.646911
00695	843948	0.220365	-9.796107	-0.123586				-0.004129	0.001668	-0.002815				-90.143352	-1.265922	-43.647388
00696	843998	0.212382	-9.804117	-0.133368				-0.003527	0.003078	-0.000846				-90.142208	-1.265280	-43.647794
00697	844048	0.217572	-9.806410	-0.103074				0.000403	0.000201	-0.002957				-90.142089	-1.266127	-43.647846
00698	844098	0.229130	-9.800139	-0.116309				-0.007399	0.000775	-0.001971				-90.142056	-1.265814	-43.647601
00699	844148	0.226291	-9.793822	-0.128457				-0.005271	0.001462	0.001197				-90.143549	-1.265469	-43.648008
00700	844198	0.215454	-9.780466	-0.126449				-0.004045	-0.002242	-0.003665				-90.142598	-1.265646	-43.646902
00701	844248	0.217987	-9.779609	-0.118020				-0.003004	0.004765	-0.001066				-90.143426	-1.265951	-43.648267
00702	844298	0.206812	-9.788756	-0.134022				-0.002500	0.000762	-0.002953				-90.142016	-1.265929	-43.648021
00703	844348	0.222970	-9.811901	-0.127600				-0.001711	0.001229	-0.002369				-90.142495	-1.266609	-43.648370
00704	844398	0.213079	-9.788316	-0.126867				-0.001705	-0.001933	-0.000270				-90.140841	-1.265804	-43.647340
00705	844448	0.205855	-9.794476	-0.133282				-0.002867	0.000240	-0.002086				-90.141655	-1.266400	-43.647407
00706	844498	0.209909	-9.779434	-0.120889				-0.004756	0.001369	-0.001624				-90.140883	-1.265991	-43.647325
00707	844548	0.213060	-9.782592	-0.128543				-0.002477	0.000149	-0.001570				-90.141586	-1.266436	-43.647362
00708	844598	0.222609	-9.783226	-0.126225				-0.003304	0.002848	-0.003286				-90.140391	-1.266510	-43.647743
00709	844648	0.215850	-9.781286	-0.118801				-0.006666	-0.000020	-0.000566				-90.142303	-1.266673	-43.647741
00710	844698	0.225157	-9.801412	-0.113600				-0.006779	-0.000865	-0.003138				-90.142104	-1.266695	-43.647033
00711	844748	0.215301	-9.772996	-0.118311				-0.005919	0.001443	-0.004445				-90.143803	-1.267972	-43.647447
00712	844798	0.219164	-9.782541	-0.111596				-0.003697	0.001359	-0.000985				-90.142691	-1.267370	-43.647378
00713	844848	0.221676	-9.791498	-0.113297				-0.004282	0.000344	-0.002721				-90.143906	-1.268147	-43.647472
00714	844898	0.222031	-9.801843	-0.119037				-0.003131	0.000757	0.001130				-90.142673	-1.266945	-43.647221
00715	844948	0.212826	-9.800651	-0.126669				-0.004590	0.000985	-0.002366				-90.143977	-1.267624	-43.647503
00716	844998	0.218754	-9.798251	-0.123745				-0.001490	-0.002941	-0.003485				-90.142285	-1.267744	-43.646175
00717	845048	0.217470	-9.790738	-0.135264				-0.001688	0.000553	-0.000355				-90.142769	-1.267847	-43.646328
00718	845098	0.202638	-9.781478	-0.132513				-0.008316	-0.001767	-0.002916				-90.143012	-1.267803	-43.645348
00719	845148	0.238231	-9.800132	-0.109035				-0.003094	0.001235	-0.004070				-90.143898	-1.268972	-43.645709
00720	845198	0.225084	-9.787302	-0.136380				-0.004350	0.001572	-0.001205				-90.142987	-1.268445	-43.645683
00721	845248	0.220852	-9.795876	-0.122559				-0.003381	0.000232	-0.001894				-90.143960	-1.268982	-43.645756
00722	845298	0.227916	-9.794529	-0.127280				-0.005387	-0.000801	0.001637				-90.143365	-1.267644	-43.645053
00723	845348	0.228890	-9.809134	-0.117304				-0.001533	0.001551	-0.003335				-90.143788	-1.268595	-43.645493
00724	845398	0.221361	-9.801669	-0.115447				-0.003255	0.003366	-0.003736				-90.142551	-1.268788	-43.645997
00725	845448	0.217446	-9.794715	-0.123573				-0.004457	-0.001013	-0.000835				-90.143834	-1.269024	-43.645710
00726	845498	0.226385	-9.800879	-0.116946				-0.005385	0.000743	-0.003231				-90.143242	-1.269082	-43.645427
00727	845548	0.221196	-9.787694	-0.129856				-0.004597	0.002608	0.000851				-90.144535	-1.268842	-43.646173
00728	845598	0.214308	-9.789806	-0.105917				-0.007956	0.001988	-0.004882				-90.144675	-1.269364	-43.646270
00729	845648	0.207644	-9.789056	-0.113773				-0.007625	0.000674	-0.003129				-90.146859	-1.270256	-43.646465
00730	845698	0.203880	-9.785585	-0.126696				-0.006293	0.002051	-0.003698				-90.146492	-1.270440	-43.646567
00731	845748	0.209899	-9.790064	-0.107706				-0.005641	-0.002229	-0.000454				-90.148117	-1.270569	-43.645926
00732	845798	0.212956	-9.796986	-0.118454				-0.002575	0.000051	-0.002500				-90.146718	-1.270408	-43.645460
00733	845848	0.227159	-9.789086	-0.111662				-0.004778	0.001952	-0.002392				-90.148073	-1.271095	-43.646011
00734	845898	0.225204	-9.804338	-0.124107				-0.005478	-0.000355	-0.001791				-90.147512	-1.270732	-43.645447
00735	845948	0.212678	-9.788289	-0.113749				-0.007075	-0.000647	-0.004383				-90.149545	-1.271988	-43.645267
00736	845998	0.219301	-9.793823	-0.118266				-0.002465	0.000801	0.000226				-90.148106	-1.271037	-43.645036
00737	846048	0.213442	-9.783968	-0.116093				-0.002829	-0.000887	-0.000551				-90.148931	-1.271194	-43.644788
00738	846098	0.244116	-9.793998	-0.117657				-0.002790	0.003088	-0.000851				-90.147560	-1.270574	-43.645183
00739	846148	0.223276	-9.787078	-0.121680				-0.003088	-0.001828	0.000340				-90.148464	-1.270479	-43.644658
00740	846198	0.224432	-9.788721	-0.122366				-0.002921	-0.000483	-0.006004				-90.147177	-1.271319	-43.644058
00741	846248	0.225307	-9.801233	-0.109709				-0.004149	-0.001781	-0.000647				-90.148376	-1.271503	-43.643546
00742	846298	0.221450	-9.799553	-0.129427				-0.000673	-0.001536	-0.003353				-90.146440	-1.271582	-43.642620
00743	846348	0.210465	-9.799150	-0.134056				-0.002760	0.002961	-0.002134				-90.147217	-1.272200	-43.643465
00744	846398	0.228053	-9.790608	-0.119288				-0.003916	-0.002873	0.000628				-90.146228	-1.271129	-43.642176
00745	846448	0.220328	-9.780715	-0.105898				-0.005819	-0.000490	-0.000989				-90.147896	-1.271413	-43.642039
00746	846498	0.226492	-9.778372	-0.114699				-0.003801	-0.001679	-0.001067				-90.146845	-1.270842	-43.641089
00747	846548	0.222961	-9.802891	-0.112097				-0.004236	0.001222	0.000360				-90.148055	-1.270743	-43.641441
00748	846598	0.211986	-9.803741	-0.126955				-0.006323	0.002050	-0.004439				-90.147723	-1.271142	-43.641579
00749	846648	0.236430	-9.789784	-0.120279				-0.003007	-0.003412	0.000268				-90.148602	-1.271060	-43.640598
00750	846698	0.218913	-9.768968	-0.115186				-0.004203	-0.001944	-0.000200				-90.147710	-1.270231	-43.639578
00751	846748	0.229455	-9.775909	-0.133474				-0.004654	-0.000791	-0.000611				-90.149056	-1.270404	-43.639357
00752	846798	0.218684	-9.795270	-0.117373				-0.005616	0.001095	-0.002846				-90.148528	-1.270356	-43.639198
00753	846848	0.203110	-9.787060	-0.123961				-0.004861	0.002498	-0.004054				-90.149913	-1.271522	-43.639904
00754	846898	0.221586	-9.783484	-0.125475				-0.002976	-0.001148	0.000183				-90.148620	-1.270591	-43.639113
00755	846948	0.210738	-9.785345	-0.121201				-0.004578	0.000464	-0.004133				-90.149923	-1.271777	-43.639241
00756	846998	0.225047	-9.805408	-0.115861				-0.002906	0.000200	-0.006066				-90.148623	-1.272630	-43.638837
00757	847048	0.209049	-9.787776	-0.118701				-0.002030	-0.001174	-0.004403				-90.149218	-1.273890	-43.638500
00758	847098	0.218638	-9.779683	-0.112533				-0.004081	-0.002917	-0.001807				-90.148276	-1.273543	-43.637198
00759	847148	0.236797	-9.791407	-0.137762				-0.004060	-0.002687	-0.000910				-90.149459	-1.273799	-43.636424
00760	847198	0.216166	-9.796338	-0.142531				-0.006661	-0.002445	-0.002155				-90.149262	-1.273543	-43.635268
00761	847248	0.227341	-9.794927	-0.132693				-0.003269	-0.001352	-0.002894				-90.150201	-1.274368	-43.634874
00762	847298	0.227848	-9.785817	-0.107771				-0.002996	-0.000963	-0.004430				-90.148921	-1.274752	-43.634128
00763	847348	0.226706	-9.794758	-0.113234				-0.000360	-0.000004	-0.001839				-90.149028	-1.275276	-43.634126
00764	847398	0.215234	-9.791598	-0.111812				-0.002664	0.001021	-0.001824				-90.147658	-1.274930	-43.633950
00765	847448	0.205817	-9.790858	-0.136711				-0.003730	0.001426	0.000460				-90.148707	-1.274795	-43.634351
00766	847498	0.225774	-9.796117	-0.117990				-0.001778	0.003724	-0.000047				-90.147072	-1.273937	-43.634940
00767	847548	0.209786	-9.787361	-0.129318				-0.004380	0.002673	-0.000913				-90.148307	-1.274200	-43.635701
00768	847598	0.235880	-9.801396	-0.121543				-0.006098	0.000153	-0.000861				-90.147925	-1.273560	-43.635276
00769	847648	0.197627	-9.777946	-0.103895				-0.007403	0.002103	-0.001194				-90.150043	-1.273898	-43.635886
00770	847698	0.227116	-9.795345	-0.105380				-0.003359	-0.002319	-0.000332				-90.148885	-1.273120	-43.634712
00771	847748	0.224699	-9.794333	-0.126634				-0.000811	0.001217	-0.001186				-90.149111	-1.273459	-43.635059
00772	847798	0.218489	-9.802466	-0.143467				-0.004005	-0.000431	-0.003915				-90.148136	-1.273705	-43.634471
00773	847848	0.203956	-9.784350	-0.113703				-0.003479	0.000587	0.000266				-90.149123	-1.273628	-43.634635
00774	847898	0.216253	-9.786894	-0.124294				-0.004798	0.003630	-0.003055				-90.148350	-1.273633	-43.635202
00775	847948	0.216095	-9.808376	-0.100300				-0.003555	-0.000354	-0.002245				-90.149363	-1.274270	-43.635094
00776	847998	0.225579	-9.783169	-0.111645				-0.005269	0.001331	-0.002201				-90.148747	-1.274036	-43.635016
00777	848048	0.212485	-9.797143	-0.124007				-0.004693	0.002275	-0.002453				-90.150068	-1.274737	-43.635664
00778	848098	0.221538	-9.805304	-0.110862				-0.003616	0.001845	-0.000218				-90.148986	-1.273924	-43.635741
00779	848148	0.227811	-9.797401	-0.125354				-0.005969	-0.003310	-0.004824				-90.150713	-1.275303	-43.634786
00780	848198	0.210849	-9.803154	-0.151077				-0.004791	0.000337	-0.002304				-90.149949	-1.275089	-43.634410
00781	848248	0.217780	-9.787421	-0.119216				-0.004338	-0.001656	0.000700				-90.151209	-1.274883	-43.633947
00782	848298	0.216474	-9.808222	-0.125163				-0.001614	0.001268	-0.000959				-90.149519	-1.274277	-43.633823
00783	848348	0.206451	-9.793221	-0.121525				-0.002452	0.001480	-0.001727				-90.150209	-1.274776	-43.634238
00784	848398	0.216864	-9.809108	-0.113182				-0.000714	0.002187	-0.000928				-90.148290	-1.274170	-43.634413
00785	848448	0.231418	-9.797886	-0.106313				-0.003090	0.001603	0.002319				-90.149169	-1.273509	-43.634874
00786	848498	0.242005	-9.799489	-0.117192				-0.004552	0.000954	-0.001088				-90.148334	-1.272939	-43.634677
00787	848548	0.225896	-9.789739	-0.116635				-0.003946	0.000966	-0.001244				-90.149460	-1.273297	-43.634956
00788	848598	0.228682	-9.783245	-0.119865				-0.006315	-0.001947	0.000801				-90.149146	-1.272192	-43.633914
00789	848648	0.221057	-9.788437	-0.112493				-0.002965	-0.001405	0.001754				-90.150002	-1.271692	-43.633509
00790	848698	0.226715	-9.790150	-0.119735				-0.003305	-0.002130	-0.001872				-90.148838	-1.271346	-43.632430
00791	848748	0.228793	-9.803187	-0.118918				-0.007626	0.000702	-0.003260				-90.151030	-1.272279	-43.632643
00792	848798	0.226713	-9.789681	-0.119415				-0.007887	0.004063	-0.002628				-90.151113	-1.272150	-43.633290
00793	848848	0.226494	-9.776090	-0.093130				-0.004231	0.000159	0.001638				-90.152322	-1.271681	-43.633331
00794	848898	0.207408	-9.784066	-0.130148				-0.000934	-0.000116	-0.002029				-90.150472	-1.271390	-43.632838
00795	848948	0.209203	-9.806841	-0.113136				-0.001112	0.000468	-0.001349				-90.150786	-1.271778	-43.632969
00796	848998	0.213916	-9.781933	-0.108945				-0.003858	0.001290	-0.001245				-90.149770	-1.271263	-43.632896
00797	849048	0.234569	-9.789614	-0.117333				0.000773	0.003530	-0.004578				-90.149516	-1.272576	-43.633892
00798	849098	0.222071	-9.805966	-0.112985				-0.001895	-0.000001	-0.001097				-90.147928	-1.272014	-43.633451
00799	849148	0.225894	-9.799397	-0.120735				-0.004103	-0.000204	-0.002087				-90.149113	-1.272616	-43.633394
00800	849198	0.224007	-9.801736	-0.124300				-0.004130	-0.002367	-0.001521				-90.148189	-1.272169	-43.632254
00801	849248	0.212950	-9.799590	-0.102858				-0.001852	0.000580	-0.002502				-90.148718	-1.272885	-43.632423
00802	849298	0.223831	-9.782361	-0.119300				-0.002971	0.002266	-0.005411				-90.147417	-1.273554	-43.632603
00803	849348	0.224940	-9.782078	-0.121465				-0.007201	0.000486	-0.001751				-90.149473	-1.274057	-43.632735
00804	849398	0.216636	-9.783034	-0.127905				-0.004695	-0.000663	-0.001376				-90.148705	-1.273583	-43.632082
00805	849448	0.216614	-9.788941	-0.114008				-0.005505	0.000715	-0.001080				-90.150274	-1.273891	-43.632288
00806	849498	0.225566	-9.779104	-0.114004				-0.003237	-0.000189	-0.002122				-90.149079	-1.273619	-43.631734
00807	849548	0.224983	-9.779156	-0.110811				-0.001775	0.002497	0.001033				-90.149580	-1.273324	-43.632451
00808	849598	0.228639	-9.797546	-0.115410				-0.001135	0.004474	-0.000302				-90.147741	-1.272529	-43.633262
00809	849648	0.217589	-9.797032	-0.126905				-0.003096	0.000332	-0.002756				-90.148631	-1.273321	-43.633360
00810	849698	0.219385	-9.788900	-0.114251				-0.004428	0.001483	0.002129				-90.147779	-1.271843	-43.633324
00811	849748	0.218290	-9.803669	-0.126634				-0.002743	-0.001561	0.000085				-90.148582	-1.271818	-43.632884
00812	849798	0.219613	-9.806662	-0.100515				-0.001698	0.000880	-0.000544				-90.146937	-1.271096	-43.632667
00813	849848	0.211797	-9.809267	-0.138625				-0.005164	0.000909	-0.003003				-90.148413	-1.271956	-43.632932
00814	849898	0.237647	-9.798767	-0.121483				-0.002768	0.000963	-0.004617				-90.147084	-1.272405	-43.632749
00815	849948	0.231908	-9.786180	-0.126983				-0.003041	0.004908	-0.001610				-90.147912	-1.272871	-43.634151
00816	849998	0.209762	-9.806048	-0.117753				-0.002536	0.000878	-0.002626				-90.146529	-1.272744	-43.633944
00817	850048	0.226672	-9.790016	-0.112770				-0.004192	0.002756	-0.000400				-90.147710	-1.272859	-43.634738
00818	850098	0.231509	-9.788450	-0.118464				0.000366	0.000082	-0.004148				-90.145490	-1.273172	-43.634281
00819	850148	0.231217	-9.793848	-0.122602				-0.000798	0.000946	-0.000128				-90.145709	-1.273204	-43.634550
00820	850198	0.231632	-9.799932	-0.127659				-0.002898	0.001092	-0.003105				-90.144413	-1.273225	-43.634406
00821	850248	0.221173	-9.780482	-0.135756				-0.002420	-0.000706	-0.001187				-90.145121	-1.273567	-43.634211
00822	850298	0.207981	-9.769291	-0.118439				-0.001800	-0.001750	0.002144				-90.143528	-1.272071	-43.633224
00823	850348	0.223487	-9.795527	-0.127712				-0.006401	-0.001617	-0.002921				-90.145362	-1.272908	-43.632751
00824	850398	0.209392	-9.779922	-0.120129				-0.002670	0.000428	0.000037				-90.144029	-1.272024	-43.632433
00825	850448	0.223737	-9.773859	-0.132515				-0.005692	-0.000697	-0.002592				-90.145678	-1.272769	-43.632236
00826	850498	0.223456	-9.788717	-0.138912				-0.002834	-0.000810	-0.001895				-90.144360	-1.272433	-43.631538
00827	850548	0.232718	-9.797028	-0.130807				-0.004506	0.004825	0.000864				-90.145623	-1.272186	-43.632930
00828	850598	0.217660	-9.791876	-0.122849				-0.003394	-0.000528	-0.002567				-90.144474	-1.272044	-43.632276
00829	850648	0.220573	-9.789568	-0.131444				-0.003132	0.001647	-0.001113				-90.145361	-1.272363	-43.632749
00830	850698	0.210794	-9.778357	-0.112704				-0.004271	0.003206	-0.001676				-90.144448	-1.271977	-43.633217
00831	850748	0.222973	-9.793862	-0.128160				-0.005563	0.001439	-0.001425				-90.146028	-1.272382	-43.633632
00832	850798	0.222854	-9.785739	-0.116669				-0.005283	-0.000402	-0.003396				-90.145442	-1.272485	-43.633071
00833	850848	0.225590	-9.797619	-0.128354				0.000188	-0.002177	-0.000823				-90.145395	-1.272725	-43.632437
00834	850898	0.226308	-9.800228	-0.112531				-0.003148	0.002060	-0.003452				-90.144185	-1.272830	-43.632564
00835	850948	0.217838	-9.791307	-0.128859				-0.004918	0.000358	0.000618				-90.145592	-1.272651	-43.632668
00836	850998	0.215654	-9.806225	-0.116560				-0.002270	-0.000342	-0.001121				-90.144118	-1.272094	-43.632090
00837	851048	0.219073	-9.785076	-0.131913				-0.002252	0.000075	-0.000609				-90.144760	-1.272270	-43.632110
00838	851098	0.227364	-9.793797	-0.113227				-0.003303	0.000097	0.000803				-90.143583	-1.271175	-43.631656
00839	851148	0.204307	-9.804257	-0.130207				-0.004442	0.004693	-0.000996				-90.144820	-1.271465	-43.632993
00840	851198	0.213961	-9.799276	-0.122554				-0.003253	-0.000655	-0.001059				-90.143636	-1.270880	-43.632350
00841	851248	0.213145	-9.791274	-0.134816				-0.003134	0.001843	0.000236				-90.144533	-1.270813	-43.632885
00842	851298	0.223970	-9.805177	-0.116951				-0.006355	0.002399	0.001370				-90.144224	-1.269542	-43.633118
00843	851348	0.202734	-9.777641	-0.119160				-0.003155	0.002388	-0.001108				-90.145116	-1.269863	-43.633806
00844	851398	0.212404	-9.788479	-0.116562				-0.004434	0.001068	-0.003354				-90.144257	-1.269947	-43.633643
00845	851448	0.217443	-9.781406	-0.140140				-0.003302	-0.003340	-0.002197				-90.145219	-1.270573	-43.632680
00846	851498	0.202448	-9.772732	-0.130399				-0.002801	0.000422	-0.000574				-90.143923	-1.269860	-43.632346
00847	851548	0.215584	-9.788050	-0.111352				-0.005536	0.002968	0.001596				-90.145488	-1.269403	-43.633208
00848	851598	0.239777	-9.801145	-0.135440				-0.004883	0.004262	-0.000583				-90.144735	-1.268703	-43.633951
00849	851648	0.233910	-9.793767	-0.125544				-0.003474	-0.000916	-0.001992				-90.145724	-1.269276	-43.633682
00850	851698	0.234079	-9.813066	-0.119748				-0.000652	0.002143	-0.000702				-90.143794	-1.268595	-43.633833
00851	851748	0.225436	-9.812226	-0.135008				0.001380	-0.000440	-0.001968				-90.143414	-1.269162	-43.633718
00852	851798	0.216212	-9.779657	-0.116394				-0.004537	-0.000477	0.000004				-90.142594	-1.268276	-43.633114
00853	851848	0.213981	-9.784010	-0.144132				-0.002772	-0.001908	-0.003474				-90.143385	-1.269270	-43.632561
00854	851898	0.213977	-9.785539	-0.121399				-0.004026	0.000634	0.000296				-90.142426	-1.268311	-43.632271
00855	851948	0.218508	-9.794925	-0.124311				-0.004496	-0.002071	-0.002091				-90.143735	-1.268913	-43.631681
00856	851998	0.226563	-9.795146	-0.119323				-0.005525	0.002014	-0.006015				-90.143191	-1.269754	-43.631792
00857	852048	0.234749	-9.796914	-0.105446				-0.004417	0.000814	-0.000857				-90.144452	-1.270000	-43.632028
00858	852098	0.238170	-9.798985	-0.122227				-0.004979	0.001518	0.002130				-90.143754	-1.268519	-43.631975
00859	852148	0.212768	-9.787653	-0.108113				-0.001790	0.005899	-0.001925				-90.144234	-1.269074	-43.633665
00860	852198	0.213277	-9.784577	-0.122450				-0.000550	-0.003324	-0.002073				-90.142288	-1.268786	-43.632236
00861	852248	0.230674	-9.801910	-0.123346				-0.002848	0.001712	-0.001658				-90.143102	-1.269268	-43.632727
00862	852298	0.209784	-9.781078	-0.121866				-0.005262	-0.001176	-0.003495				-90.142488	-1.269381	-43.631909
00863	852348	0.226127	-9.771721	-0.115251				-0.004398	-0.000863	-0.000285				-90.143747	-1.269458	-43.631656
00864	852398	0.211319	-9.796321	-0.131807				-0.001144	-0.002422	0.000181				-90.141988	-1.268538	-43.630509
00865	852448	0.225895	-9.767488	-0.113278				-0.003662	0.002151	-0.001237				-90.143020	-1.268892	-43.631122
00866	852498	0.218208	-9.776127	-0.128098				-0.004137	-0.001926	0.000541				-90.142110	-1.267860	-43.630104
00867	852548	0.210388	-9.790891	-0.115843				-0.003910	0.001183	0.001138				-90.143231	-1.267537	-43.630444
00868	852598	0.216133	-9.802302	-0.125025				-0.006259	0.001137	-0.001841				-90.142909	-1.267182	-43.630299
00869	852648	0.210469	-9.768372	-0.129932				-0.000682	0.000301	0.001021				-90.143108	-1.266886	-43.630388
00870	852698	0.240526	-9.799511	-0.132784				-0.004178	0.004043	-0.004177				-90.142170	-1.267218	-43.631081
00871	852748	0.208891	-9.784932	-0.103060				-0.001486	0.001319	-0.000221				-90.142581	-1.267278	-43.631452
00872	852798	0.219189	-9.777102	-0.125688				-0.001608	0.000925	-0.001921				-90.140935	-1.266956	-43.631276
00873	852848	0.219041	-9.797836	-0.104427				-0.005190	-0.001170	-0.000611				-90.142427	-1.267131	-43.630945
00874	852898	0.226988	-9.787086	-0.133433				-0.002623	-0.000223	-0.000448				-90.141073	-1.266385	-43.630396
00875	852948	0.227199	-9.802562	-0.129339				-0.004041	-0.000349	-0.004200				-90.142227	-1.267585	-43.630290
00876	852998	0.243659	-9.800851	-0.119859				-0.004320	-0.002415	0.000922				-90.141382	-1.266440	-43.629158
00877	853048	0.212820	-9.798709	-0.114157				-0.003663	-0.000357	0.003888				-90.142439	-1.265325	-43.629061
00878	853098	0.226498	-9.801968	-0.138200				-0.003993	-0.000767	-0.003112				-90.141479	-1.265339	-43.628377
00879	853148	0.222810	-9.785583	-0.126541				-0.007710	0.003865	-0.000125				-90.143660	-1.265375	-43.629485
00880	853198	0.244861	-9.794249	-0.131841				-0.004138	0.000175	0.001223				-90.142749	-1.264156	-43.629063
00881	853248	0.211301	-9.778440	-0.122023				-0.001947	-0.001602	-0.001707				-90.143326	-1.264646	-43.628606
00882	853298	0.244469	-9.791444	-0.128879				0.000050	0.001016	-0.004306				-90.141193	-1.265000	-43.628423
00883	853348	0.217996	-9.796037	-0.129406				0.000897	0.002037	-0.001054				-90.140927	-1.265298	-43.629004
00884	853398	0.223843	-9.791138	-0.119794				-0.004506	0.003461	-0.003219				-90.140079	-1.265349	-43.629539
00885	853448	0.210663	-9.799799	-0.122006				-0.002312	-0.000189	-0.002211				-90.140733	-1.265981	-43.629475
00886	853498	0.221603	-9.784779	-0.118106				-0.003823	0.001472	0.000652				-90.139726	-1.264916	-43.629438
00887	853548	0.217775	-9.766054	-0.120388				-0.003105	0.002036	0.001167				-90.140596	-1.264582	-43.630024
00888	853598	0.227161	-9.790145	-0.119456				-0.001376	-0.000101	-0.000387				-90.138880	-1.263814	-43.629521
00889	853648	0.210855	-9.781534	-0.106565				-0.005031	-0.002205	-0.002445				-90.140341	-1.264514	-43.628891
00890	853698	0.237440	-9.789379	-0.130220				0.000727	-0.000006	-0.002576				-90.138027	-1.264385	-43.628432
00891	853748	0.215087	-9.781655	-0.126150				-0.001105	0.001850	0.003602				-90.138346	-1.263354	-43.628971
00892	853798	0.211461	-9.771303	-0.123785				-0.004184	0.003564	-0.000103				-90.137391	-1.262502	-43.629514
00893	853848	0.213502	-9.794019	-0.125546				0.000020	-0.001888	-0.001905				-90.137398	-1.263050	-43.628975
00894	853898	0.221209	-9.779141	-0.130536				-0.005545	-0.001183	-0.002658				-90.136898	-1.262938	-43.628164
00895	853948	0.208739	-9.773422	-0.111041				-0.004075	0.001178	-0.001015				-90.138057	-1.263232	-43.628502
00896	853998	0.235055	-9.797917	-0.116823				-0.000560	-0.000636	0.000955				-90.136103	-1.262063	-43.627843
00897	854048	0.210183	-9.794610	-0.136214				-0.003878	-0.001410	-0.002632				-90.137223	-1.262818	-43.627438
00898	854098	0.211502	-9.798363	-0.106962				-0.002949	-0.000392	-0.002339				-90.135981	-1.262618	-43.626857
00899	854148	0.229300	-9.806427	-0.123415				-0.003417	0.002415	-0.002581				-90.136949	-1.263356	-43.627544
00900	854198	0.218683	-9.790277	-0.118304				-0.004508	-0.002977	-0.005526				-90.136139	-1.264063	-43.626239
00901	854248	0.220530	-9.800008	-0.116095				-0.002677	0.001492	0.000267				-90.136892	-1.263989	-43.626668
00902	854298	0.226212	-9.776206	-0.116664				-0.003200	0.003006	0.000018				-90.135703	-1.263106	-43.627083
00903	854348	0.212960	-9.797755	-0.129977				-0.003282	-0.001618	0.001344				-90.136651	-1.262712	-43.626625
00904	854398	0.216089	-9.798957	-0.111091				-0.004275	-0.004198	-0.004218				-90.135804	-1.263048	-43.624937
00905	854448	0.211134	-9.791945	-0.108222				-0.004747	-0.002037	-0.000199				-90.137177	-1.263103	-43.624358
00906	854498	0.227409	-9.802732	-0.118502				-0.001924	-0.000378	-0.004819				-90.135628	-1.263609	-43.623793
00907	854548	0.214497	-9.792664	-0.104748				-0.000355	-0.000083	-0.001707				-90.135747	-1.264100	-43.623776
00908	854598	0.240156	-9.790378	-0.125063				-0.001913	0.000107	-0.005648				-90.134154	-1.264832	-43.623306
00909	854648	0.231826	-9.797843	-0.124499				-0.000885	0.001425	-0.001892				-90.134398	-1.265375	-43.623707
00910	854698	0.246125	-9.796182	-0.128490				-0.003577	0.001441	-0.001820				-90.133320	-1.265022	-43.623662
00911	854748	0.227354	-9.808441	-0.117519				-0.001394	0.002549	-0.000570				-90.133699	-1.265186	-43.624394
00912	854798	0.218086	-9.795950	-0.119619				-0.001033	0.001767	-0.005510				-90.131865	-1.265891	-43.624427
00913	854848	0.224481	-9.787674	-0.112795				-0.002345	-0.000086	-0.001702				-90.132534	-1.266381	-43.624395
00914	854898	0.208102	-9.775022	-0.115442				-0.004544	0.000785	-0.000693				-90.131741	-1.265700	-43.624162
00915	854948	0.240868	-9.799705	-0.119407				-0.005593	0.001342	-0.002005				-90.133336	-1.266276	-43.624546
00916	854998	0.206941	-9.777658	-0.114838				-0.002722	-0.000995	0.000415				-90.132031	-1.265279	-43.623800
00917	855048	0.221187	-9.791583	-0.123771				-0.004715	0.001267	0.001136				-90.133382	-1.264953	-43.624165
00918	855098	0.211195	-9.795507	-0.107514				-0.004710	0.000712	-0.001882				-90.132607	-1.264614	-43.623917
00919	855148	0.233621	-9.799941	-0.125362				-0.006459	-0.000314	0.001804				-90.134468	-1.264099	-43.623828
00920	855198	0.232796	-9.789591	-0.120651				-0.006858	-0.000905	0.002028				-90.134339	-1.262649	-43.623092
00921	855248	0.211803	-9.782946	-0.122095				-0.004565	0.002492	-0.001486				-90.135630	-1.263077	-43.623809
00922	855298	0.206694	-9.786494	-0.127103				-0.004022	0.000301	-0.002688				-90.134683	-1.262971	-43.623416
00923	855348	0.213806	-9.797918	-0.118373				-0.000091	0.001025	0.001376				-90.134696	-1.262575	-43.623699
00924	855398	0.198856	-9.776785	-0.116975				-0.003804	0.000793	-0.000182				-90.133694	-1.261749	-43.623494
00925	855448	0.217253	-9.779282	-0.124849				-0.007556	-0.002312	-0.000418				-90.135880	-1.261868	-43.622835
00926	855498	0.215486	-9.789565	-0.120645				-0.001871	0.000144	-0.001153				-90.134324	-1.261328	-43.622405
00927	855548	0.220778	-9.774950	-0.125272				-0.003809	0.000723	-0.001721				-90.135405	-1.261817	-43.622610
00928	855598	0.195394	-9.785084	-0.119391				-0.004189	-0.000374	-0.000476				-90.134522	-1.261084	-43.622039
00929	855648	0.227873	-9.800923	-0.127938				-0.005378	0.001536	-0.003803				-90.136050	-1.262175	-43.622473
00930	855698	0.220826	-9.802244	-0.140094				-0.004417	0.002525	-0.003478				-90.135198	-1.262298	-43.622735
00931	855748	0.232054	-9.796883	-0.124789				-0.001394	0.000352	0.000321				-90.135586	-1.262207	-43.622834
00932	855798	0.230559	-9.792945	-0.119685				-0.002042	-0.000665	-0.002348				-90.134096	-1.262000	-43.622214
00933	855848	0.221678	-9.788817	-0.117529				-0.000861	-0.001419	-0.002256				-90.134360	-1.262647	-43.621808
00934	855898	0.214333	-9.794533	-0.122074				-0.001448	0.001255	0.001065				-90.132653	-1.261468	-43.621687
00935	855948	0.245972	-9.805202	-0.128267				-0.003782	0.000989	-0.000350				-90.133736	-1.261574	-43.621972
00936	855998	0.223913	-9.795120	-0.123134				-0.005572	0.001894	-0.000784				-90.133223	-1.260919	-43.622065
00937	856048	0.230729	-9.797144	-0.140454				-0.005085	0.003643	-0.001929				-90.134653	-1.261472	-43.623100
00938	856098	0.216945	-9.791454	-0.135381				-0.007832	0.001472	0.001208				-90.134798	-1.260246	-43.623063
00939	856148	0.216901	-9.796047	-0.145438				-0.004981	-0.000715	-0.000191				-90.136226	-1.260297	-43.622861
00940	856198	0.236183	-9.801181	-0.120152				-0.008707	-0.001725	-0.004067				-90.136656	-1.260590	-43.621894
00941	856248	0.223053	-9.779665	-0.125765				-0.005381	0.002503	-0.005331				-90.138181	-1.262118	-43.622612
00942	856298	0.221863	-9.783249	-0.125084				-0.004800	-0.001488	-0.001732				-90.137471	-1.261743	-43.621707
00943	856348	0.222592	-9.793938	-0.108552				-0.005824	0.001761	0.000305				-90.139124	-1.261655	-43.622207
00944	856398	0.219515	-9.798734	-0.107489				-0.004024	-0.000031	-0.006764				-90.138179	-1.262709	-43.621744
00945	856448	0.235688	-9.799006	-0.138543				-0.004344	0.000361	-0.001599				-90.139419	-1.263167	-43.621844
00946	856498	0.233220	-9.796139	-0.126006				-0.004598	0.000293	-0.000669				-90.138643	-1.262494	-43.621449
00947	856548	0.219838	-9.796702	-0.115952				-0.004589	-0.000999	-0.001059				-90.139959	-1.262802	-43.621153
00948	856598	0.220414	-9.785023	-0.118793				-0.004707	0.000777	-0.001273				-90.139208	-1.262276	-43.620916
00949	856648	0.214470	-9.784400	-0.118061				-0.005720	-0.003836	-0.002450				-90.140879	-1.262980	-43.619819
00950	856698	0.212936	-9.792369	-0.125769				-0.006115	0.001685	-0.000588				-90.140530	-1.262272	-43.619842
00951	856748	0.232630	-9.794257	-0.109929				-0.002581	-0.001677	-0.000876				-90.141285	-1.262523	-43.619361
00952	856798	0.241608	-9.806983	-0.108471				-0.001203	0.000284	-0.002154				-90.139515	-1.262265	-43.618960
00953	856848	0.202972	-9.774966	-0.123517				-0.005695	0.002536	-0.002350				-90.141135	-1.262945	-43.619683
00954	856898	0.217930	-9.782210	-0.118539				-0.004748	0.002266	0.000662				-90.140386	-1.261870	-43.619862
00955	856948	0.219020	-9.779335	-0.135263				-0.001510	-0.002075	-0.000783				-90.140838	-1.262089	-43.619276
00956	856998	0.227968	-9.796362	-0.115907				-0.002663	-0.000098	-0.003050				-90.139510	-1.262086	-43.618778
00957	857048	0.217111	-9.790034	-0.119683				-0.002259	0.000428	-0.000764				-90.140148	-1.262304	-43.618897
00958	857098	0.235803	-9.789049	-0.122612				-0.000656	0.001134	-0.003722				-90.138232	-1.262500	-43.618754
00959	857148	0.206575	-9.764526	-0.121037				-0.001506	0.001933	-0.001144				-90.138654	-1.262837	-43.619305
00960	857198	0.224720	-9.801409	-0.114294				-0.004673	0.001515	-0.003418				-90.137894	-1.262933	-43.619273
00961	857248	0.208171	-9.783886	-0.110211				0.000243	-0.001689	-0.000336				-90.137835	-1.263025	-43.618795
00962	857298	0.232962	-9.791053	-0.117685				-0.005425	0.002889	-0.004277				-90.137277	-1.263368	-43.619154
00963	857348	0.217893	-9.788030	-0.125650				-0.001689	0.000440	-0.002631				-90.137764	-1.264123	-43.619287
00964	857398	0.218330	-9.784808	-0.119253				-0.002270	0.001688	-0.003231				-90.136299	-1.264174	-43.619302
00965	857448	0.218600	-9.794203	-0.140597				-0.005021	-0.002727	-0.002863				-90.137754	-1.264993	-43.618517
00966	857498	0.212361	-9.770191	-0.118527				-0.004657	0.000200	-0.000633				-90.136997	-1.264293	-43.618103
00967	857548	0.219536	-9.793563	-0.120010				-0.004862	0.000680	-0.000151				-90.138398	-1.264339	-43.618302
00968	857598	0.235956	-9.820518	-0.112185				-0.006578	0.002331	0.000922				-90.138148	-1.263193	-43.618513
00969	857648	0.215711	-9.799312	-0.134300				-0.000991	0.001714	-0.001182				-90.138411	-1.263529	-43.619003
00970	857698	0.205861	-9.781201	-0.132317				-0.002153	0.001179	0.000329				-90.136947	-1.262565	-43.618865
00971	857748	0.228619	-9.794175	-0.118753				-0.000169	0.001249	0.000066				-90.136985	-1.262549	-43.619219
00972	857798	0.207206	-9.789495	-0.132126				-0.003108	-0.000100	-0.000320				-90.135806	-1.261768	-43.618746
00973	857848	0.215714	-9.772194	-0.124373				-0.007949	-0.002123	-0.000507				-90.138106	-1.261913	-43.618143
00974	857898	0.227095	-9.782345	-0.117906				-0.005102	0.000764	-0.004031				-90.137466	-1.262188	-43.617877
00975	857948	0.231125	-9.794793	-0.137931				-0.002570	0.002205	-0.001046				-90.138190	-1.262490	-43.618514
00976	857998	0.214500	-9.771458	-0.110843				-0.002387	0.002437	-0.001431				-90.136772	-1.262034	-43.618745
00977	858048	0.231798	-9.780781	-0.107970				-0.002306	0.001588	-0.003556				-90.137424	-1.263049	-43.619198
00978	858098	0.218641	-9.790732	-0.119255				-0.002418	-0.004099	-0.003166				-90.136058	-1.263082	-43.617570
00979	858148	0.212426	-9.793222	-0.116321				-0.001893	0.000825	-0.001790				-90.136600	-1.263598	-43.617805
00980	858198	0.203413	-9.784530	-0.133983				-0.001320	-0.001238	-0.004149				-90.134897	-1.263907	-43.616979
00981	858248	0.220362	-9.797112	-0.135120				-0.006270	-0.001575	-0.000188				-90.136705	-1.263956	-43.616531
00982	858298	0.224087	-9.795108	-0.123451				-0.007354	0.003639	0.000544				-90.136691	-1.262939	-43.617094
00983	858348	0.212169	-9.791142	-0.113289				-0.005298	0.001022	-0.002167				-90.138203	-1.263555	-43.617386
00984	858398	0.218203	-9.813066	-0.133132				-0.003604	0.000375	-0.000575				-90.137149	-1.262855	-43.617016
00985	858448	0.218396	-9.791211	-0.119487				-0.003665	0.002050	-0.003191				-90.138184	-1.263765	-43.617603
00986	858498	0.221532	-9.788176	-0.097919				-0.004794	0.001420	-0.001557				-90.137473	-1.263339	-43.617543
00987	858548	0.227777	-9.810339	-0.117059				-0.000740	-0.001796	0.002680				-90.137695	-1.262568	-43.617039
00988	858598	0.227361	-9.802486	-0.118836				-0.003854	0.000916	-0.003234				-90.136724	-1.262629	-43.616820
00989	858648	0.224486	-9.777730	-0.127168				-0.003170	-0.001399	-0.002605				-90.137639	-1.263374	-43.616418
00990	858698	0.201531	-9.778514	-0.125398				-0.003952	0.000143	-0.002495				-90.136686	-1.263215	-43.615972
00991	858748	0.228042	-9.788771	-0.131366				-0.006580	0.001592	0.002906				-90.138557	-1.262383	-43.616429
00992	858798	0.219347	-9.785463	-0.121845				-0.002573	0.000906	-0.004741				-90.137203	-1.262870	-43.616211
00993	858848	0.212827	-9.781098	-0.133679				-0.006750	0.000678	-0.000496				-90.139132	-1.263015	-43.616410
00994	858898	0.223507	-9.807405	-0.126679				-0.002918	0.004268	0.002367				-90.137855	-1.261464	-43.617168
00995	858948	0.213197	-9.791400	-0.111366				-0.006301	-0.000809	-0.004902				-90.139673	-1.262869	-43.616936
00996	858998	0.216852	-9.793480	-0.142650				-0.001615	-0.000881	-0.001452				-90.138038	-1.262406	-43.616202
00997	859048	0.220647	-9.782837	-0.121979				-0.006267	-0.001775	-0.002890				-90.139853	-1.263231	-43.615699
00998	859098	0.235867	-9.792373	-0.137645				-0.005766	0.000660	-0.000725				-90.139412	-1.262559	-43.615399
00999	859148	0.211509	-9.785038	-0.124963				-0.004132	-0.002647	-0.004628				-90.140610	-1.263879	-43.614640
01000	859198	0.225980	-9.786002	-0.127900				-0.003768	-0.001731	-0.002155				-90.139633	-1.263622	-43.613673
01001	859248	0.225839	-9.790659	-0.133744				-0.006040	0.000297	-0.002173				-90.141359	-1.264250	-43.613757
01002	859298	0.221767	-9.784963	-0.106127				-0.004760	-0.000646	-0.001476				-90.140637	-1.263787	-43.613098
01003	859348	0.234763	-9.797401	-0.135588				-0.004631	0.002229	-0.003290				-90.141954	-1.264732	-43.613744
01004	859398	0.213826	-9.790726	-0.123825				-0.005596	-0.009031	-0.001930				-90.141537	-1.264403	-43.610685
01005	859448	0.209092	-9.791537	-0.120654				-0.004545	0.001750	-0.001559				-90.142834	-1.264852	-43.611187
01006	859498	0.211964	-9.784238	-0.114464				0.003579	0.004613	0.001805				-90.139697	-1.263464	-43.612051
01007	859548	0.216565	-9.797838	-0.122069				-0.003143	0.006103	-0.002788				-90.140559	-1.264267	-43.613797
01008	859598	0.230409	-9.804111	-0.118799				-0.002026	0.002150	-0.001337				-90.139031	-1.263772	-43.613932
01009	859648	0.206428	-9.776224	-0.116083				-0.003042	-0.000032	0.000487				-90.139900	-1.263630	-43.613920
01010	859698	0.220557	-9.801585	-0.136743				-0.005037	0.002027	-0.002164				-90.139237	-1.263376	-43.614040
01011	859748	0.219329	-9.787451	-0.131822				-0.006294	0.005632	-0.000022				-90.140996	-1.263384	-43.615649
01012	859798	0.230585	-9.801694	-0.106369				-0.002054	-0.000281	-0.002474				-90.139521	-1.263219	-43.615101
01013	859848	0.236106	-9.798224	-0.111523				-0.007367	0.002698	-0.004110				-90.141609	-1.264400	-43.615867
01014	859898	0.223706	-9.798800	-0.130577				-0.005516	-0.001045	-0.000247				-90.141131	-1.263587	-43.615107
01015	859948	0.233641	-9.791988	-0.118233				-0.007418	0.003409	-0.002532				-90.143230	-1.264314	-43.616077
01016	859998	0.225503	-9.799031	-0.113994				-0.003451	-0.000231	0.000681				-90.142137	-1.263243	-43.615546
01017	860048	0.230000	-9.804655	-0.114706				-0.002463	0.000487	-0.003778				-90.142847	-1.264327	-43.615693
01018	860098	0.227561	-9.759093	-0.133568				-0.007778	0.001724	-0.001254				-90.142974	-1.263816	-43.615699
01019	860148	0.216050	-9.788878	-0.118454				-0.001793	-0.003011	0.002395				-90.143497	-1.263124	-43.614832
01020	860198	0.223109	-9.792693	-0.126712				-0.004016	-0.000688	0.001863				-90.142577	-1.261716	-43.614165
01021	860248	0.239831	-9.807317	-0.119016				0.000285	0.001796	-0.004516				-90.142486	-1.263014	-43.614689
01022	860298	0.229079	-9.787304	-0.117822				-0.001842	0.003278	-0.003444				-90.140913	-1.263125	-43.615160
01023	860348	0.230288	-9.792836	-0.126955				-0.003667	0.002675	0.001080				-90.141947	-1.262819	-43.615928
01024	860398	0.199620	-9.797127	-0.119857				-0.002600	-0.001025	-0.000125				-90.140619	-1.261989	-43.615162
01025	860448	0.216795	-9.774068	-0.124887				-0.007716	-0.001510	-0.003358				-90.142837	-1.262951	-43.614719
01026	860498	0.202650	-9.781380	-0.107926				-0.003792	-0.001954	-0.001507				-90.141861	-1.262503	-43.613682
01027	860548	0.208858	-9.793662	-0.121814				-0.003416	-0.001688	-0.000673				-90.142839	-1.262699	-43.613190
01028	860598	0.231978	-9.791273	-0.135147				-0.004084	-0.000729	-0.000796				-90.141945	-1.262044	-43.612526
01029	860648	0.216821	-9.790078	-0.117047				-0.002842	-0.001286	0.001156				-90.142770	-1.261709	-43.612163
01030	860698	0.219685	-9.798651	-0.127628				-0.001024	-0.000255	0.000128				-90.140996	-1.260807	-43.611636
01031	860748	0.220154	-9.806417	-0.115795				-0.001446	0.005262	-0.000931				-90.141367	-1.261078	-43.613136
01032	860798	0.231059	-9.809002	-0.124579				-0.004308	-0.000996	-0.003496				-90.140526	-1.261203	-43.612378
01033	860848	0.221063	-9.791021	-0.129265				-0.000901	-0.000963	-0.000390				-90.140788	-1.261320	-43.612100
01034	860898	0.230266	-9.795772	-0.106139				-0.004278	0.003432	-0.002059				-90.139931	-1.261036	-43.612614
01035	860948	0.239058	-9.781051	-0.130700				-0.006764	-0.000264	-0.003003				-90.141875	-1.261898	-43.612538
01036	860998	0.226034	-9.790400	-0.119450				-0.002249	-0.000285	-0.003048				-90.140450	-1.261899	-43.611976
01037	861048	0.205133	-9.789916	-0.136857				-0.002177	0.001688	-0.003865				-90.141061	-1.263008	-43.612458
01038	861098	0.205770	-9.777939	-0.128503				-0.003732	0.000009	-0.004897				-90.140037	-1.263529	-43.612035
01039	861148	0.223215	-9.775834	-0.127960				-0.005411	-0.002337	-0.000994				-90.141593	-1.263811	-43.611360
01040	861198	0.211645	-9.787126	-0.128033				-0.003616	-0.000236	-0.000154				-90.140563	-1.262990	-43.610827
01041	861248	0.231153	-9.807934	-0.116621				-0.001598	-0.002306	0.000116				-90.141044	-1.262956	-43.610167
01042	861298	0.217059	-9.800699	-0.120204				-0.003418	0.001574	-0.001301				-90.139932	-1.262451	-43.610152
01043	861348	0.215528	-9.791840	-0.111057				-0.004522	0.002940	-0.003697				-90.141204	-1.263511	-43.610985
01044	861398	0.220553	-9.791198	-0.118155				-0.005948	0.000361	-0.003804				-90.140855	-1.263725	-43.610651
01045	861448	0.225087	-9.799973	-0.145680				-0.004087	0.003373	-0.002187				-90.142010	-1.264358	-43.611624
01046	861498	0.217591	-9.798190	-0.144230				-0.007232	-0.000395	0.000241				-90.142002	-1.263418	-43.611040
01047	861548	0.215793	-9.774426	-0.117309				-0.002484	0.001300	-0.002041				-90.142708	-1.264007	-43.611406
01048	861598	0.208307	-9.798879	-0.138105				-0.003634	0.002512	0.000054				-90.141649	-1.263117	-43.611668
01049	861648	0.227715	-9.798198	-0.120294				-0.005253	0.003001	-0.000933				-90.143143	-1.263388	-43.612529
01050	861698	0.207041	-9.779761	-0.117013				-0.004265	0.000943	-0.002197				-90.142277	-1.263145	-43.612328
01051	861748	0.226763	-9.792352	-0.115268				-0.003508	0.002085	-0.004666				-90.143268	-1.264478	-43.612924
01052	861798	0.213762	-9.784724	-0.113003				-0.002928	0.002032	-0.003253				-90.142034	-1.264549	-43.613044
01053	861848	0.237425	-9.791397	-0.122705				-0.003755	0.004286	-0.001154				-90.143080	-1.264885	-43.614272
01054	861898	0.214511	-9.793188	-0.117123				-0.005467	-0.000401	0.000845				-90.142574	-1.263765	-43.613696
01055	861948	0.230395	-9.796179	-0.141149				-0.005470	0.001899	0.000696				-90.144138	-1.263572	-43.614240
01056	861998	0.225875	-9.802999	-0.118045				-0.001218	-0.000228	-0.001379				-90.142406	-1.263081	-43.613704
01057	862048	0.212592	-9.792936	-0.134902				0.000707	0.002743	-0.002716				-90.142192	-1.263860	-43.614489
01058	862098	0.216798	-9.797893	-0.117776				-0.003529	-0.000238	-0.001755				-90.141137	-1.263495	-43.613970
01059	862148	0.228693	-9.778658	-0.125301				-0.003864	0.002569	-0.001518				-90.142232	-1.263931	-43.614705
01060	862198	0.210952	-9.790479	-0.126388				-0.004680	-0.000899	0.001326				-90.141496	-1.262678	-43.613987
01061	862248	0.203826	-9.802510	-0.136849				-0.001808	0.002381	0.000561				-90.142004	-1.262524	-43.614672
01062	862298	0.197023	-9.776165	-0.127746				-0.003278	0.000223	-0.000501				-90.140866	-1.261793	-43.614249
01063	862348	0.231744	-9.783733	-0.116187				-0.003535	0.001321	0.001360				-90.141875	-1.261402	-43.614631
01064	862398	0.218803	-9.792643	-0.118249				-0.003543	-0.002529	0.000636				-90.140838	-1.260352	-43.613437
01065	862448	0.215478	-9.793043	-0.110110				-0.003332	0.000834	-0.001108				-90.141788	-1.260676	-43.613669
01066	862498	0.233965	-9.801016	-0.116864				-0.002284	-0.000025	-0.002629				-90.140365	-1.260541	-43.613189
01067	862548	0.218511	-9.790133	-0.111926				-0.007766	0.002306	-0.001057				-90.142580	-1.260843	-43.613849
01068	862598	0.232520	-9.799778	-0.136874				-0.005846	-0.001324	-0.007020				-90.142186	-1.261987	-43.613006
01069	862648	0.209396	-9.798756	-0.129483				-0.004274	0.001501	0.000884				-90.143399	-1.261732	-43.613435
01070	862698	0.215172	-9.783207	-0.133045				0.000320	0.000928	-0.000352				-90.141233	-1.260959	-43.613230
01071	862748	0.219579	-9.787525	-0.126567				-0.001167	0.000027	-0.002725				-90.141572	-1.261739	-43.613240
01072	862798	0.221482	-9.811697	-0.111422				-0.006324	0.003134	-0.004012				-90.141301	-1.262014	-43.613657
01073	862848	0.224656	-9.789088	-0.128871				-0.004175	0.001911	-0.003798				-90.142485	-1.263103	-43.614202
01074	862898	0.204506	-9.787234	-0.111134				-0.005786	0.004502	-0.003006				-90.142071	-1.263091	-43.615033
01075	862948	0.222884	-9.790730	-0.116374				-0.003558	0.002895	-0.003762				-90.143071	-1.264170	-43.615860
01076	862998	0.215965	-9.794850	-0.100341				-0.005688	0.000270	-0.002807				-90.142606	-1.264103	-43.615453
01077	863048	0.222618	-9.790425	-0.120376				-0.001334	-0.000649	-0.001349				-90.143000	-1.264490	-43.615266
01078	863098	0.204862	-9.801574	-0.119652				-0.003029	0.001487	-0.000147				-90.141793	-1.263661	-43.615228
01079	863148	0.233678	-9.798167	-0.117114				-0.003560	-0.000045	-0.001214				-90.142797	-1.264004	-43.615211
01080	863198	0.222470	-9.807786	-0.117803				-0.002144	0.001460	-0.005091				-90.141363	-1.264596	-43.615168
01081	863248	0.225106	-9.798966	-0.118391				-0.006668	0.002067	-0.000972				-90.143263	-1.264872	-43.615764
01082	863298	0.231384	-9.801454	-0.121260				-0.002964	0.002392	-0.001618				-90.142022	-1.264464	-43.615971
01083	863348	0.209487	-9.805895	-0.127708				0.000364	-0.001453	0.001497				-90.141941	-1.264036	-43.615565
01084	863398	0.210208	-9.779238	-0.133376				-0.005228	0.002059	-0.000747				-90.141347	-1.263373	-43.615668
01085	863448	0.208480	-9.779891	-0.122979				-0.002399	0.002819	-0.002320				-90.142019	-1.264039	-43.616472
01086	863498	0.230399	-9.802752	-0.114805				-0.003969	-0.001375	-0.001767				-90.141097	-1.263674	-43.615631
01087	863548	0.214390	-9.772211	-0.108208				-0.002339	-0.002023	0.001757				-90.141778	-1.263171	-43.615052
01088	863598	0.216095	-9.796295	-0.129702				-0.000700	0.002784	-0.002325				-90.139897	-1.262967	-43.615375
01089	863648	0.222986	-9.817380	-0.125942				-0.002243	0.001954	-0.001047				-90.140529	-1.263272	-43.615926
01090	863698	0.216237	-9.795214	-0.122767				-0.000788	0.002628	0.001519				-90.138666	-1.261960	-43.616205
01091	863748	0.226810	-9.797804	-0.115920				-0.003038	-0.003688	-0.002387				-90.139566	-1.262641	-43.615140
01092	863798	0.211592	-9.780385	-0.118947				-0.003956	-0.000666	-0.001501				-90.138641	-1.262200	-43.614483
01093	863848	0.220278	-9.787323	-0.124068				-0.003027	-0.000877	-0.002085				-90.139514	-1.262800	-43.614231
01094	863898	0.231634	-9.786022	-0.121992				-0.003597	0.000185	-0.000734				-90.138478	-1.262131	-43.613810
