// General information: 
//  MT Manager version: 2022.0.0 
//  XDA version: 2022.0.0 build 7085 rev 119802 built on 2022-11-08
// Device information: 
//  DeviceId: 037004D1
//  ProductCode: MTi-300-2A5G4
//  Firmware Version: 1.4.1
//  Hardware Version: 2.1.0
// Device settings: 
//  Filter Profile: general(39.16)
//  Option Flags: Orientation Smoother Disabled, Position/Velocity Smoother Disabled, Continuous Zero Rotation Update Disabled, AHS Disabled, ICC Disabled
// Coordinate system: ENU
PacketCounter	SampleTimeFine	Acc_X	Acc_Y	Acc_Z	AccHR_X	AccHR_Y	AccHR_Z	Gyr_X	Gyr_Y	Gyr_Z	GyrHR_X	GyrHR_Y	GyrHR_Z	Roll	Pitch	Yaw
00001	15367412	-0.146924	-0.123775	9.807074				-0.004461	0.001649	-0.001504				-0.450505	0.797480	-20.786085
00002	15367462	-0.147348	-0.104092	9.801560				-0.000750	-0.000289	-0.002584				-0.448526	0.797070	-20.786227
00003	15367512	-0.154319	-0.099971	9.796805				-0.003469	0.000796	-0.000482				-0.449522	0.797297	-20.786365
00004	15367562	-0.154681	-0.094278	9.784586				-0.004072	-0.001606	-0.000492				-0.448486	0.796515	-20.785896
00005	15367612	-0.159632	-0.092640	9.799461				-0.001983	0.000309	-0.000878				-0.449058	0.796602	-20.786149
00006	15367662	-0.143917	-0.129153	9.794833				-0.001650	-0.000272	-0.000846				-0.447330	0.796202	-20.785811
00007	15367712	-0.136073	-0.101222	9.800300				-0.005376	0.003149	-0.004062				-0.448886	0.797095	-20.786983
00008	15367762	-0.155113	-0.101419	9.785784				-0.001339	-0.000551	0.002456				-0.447056	0.796622	-20.785685
00009	15367812	-0.155106	-0.097577	9.806871				-0.005089	0.000083	-0.003308				-0.448527	0.796638	-20.786629
00010	15367862	-0.136651	-0.107998	9.794320				-0.003107	0.004157	-0.004765				-0.447232	0.797497	-20.787403
00011	15367912	-0.146656	-0.114827	9.814741				-0.004093	0.002176	-0.000858				-0.448408	0.798119	-20.787655
00012	15367962	-0.148944	-0.115548	9.813316				-0.003997	0.000612	-0.006417				-0.447375	0.797959	-20.788896
00013	15368012	-0.164883	-0.091370	9.793505				-0.007949	0.001558	-0.001942				-0.449660	0.798401	-20.789450
00014	15368062	-0.151543	-0.105116	9.782894				-0.003808	0.001407	0.000450				-0.448545	0.798484	-20.788731
00015	15368112	-0.170414	-0.093675	9.812222				0.000075	0.001019	-0.001773				-0.448530	0.798772	-20.789242
00016	15368162	-0.182438	-0.096748	9.814202				-0.003741	-0.004096	-0.002945				-0.447409	0.797272	-20.789476
00017	15368212	-0.164193	-0.102654	9.794220				-0.004414	-0.002099	-0.001972				-0.448682	0.796666	-20.790037
00018	15368262	-0.172862	-0.113783	9.817269				-0.004674	0.002519	-0.000983				-0.447821	0.797065	-20.789728
00019	15368312	-0.168007	-0.103254	9.803345				-0.002674	-0.000621	-0.005621				-0.448610	0.796874	-20.791338
00020	15368362	-0.164381	-0.092751	9.801886				-0.001007	-0.000391	-0.002870				-0.446706	0.796435	-20.791586
00021	15368412	-0.153603	-0.121123	9.810699				0.001455	-0.001120	-0.001467				-0.446295	0.796111	-20.792005
00022	15368462	-0.147428	-0.099985	9.799880				-0.006237	0.001936	-0.002841				-0.445890	0.796339	-20.792234
00023	15368512	-0.167386	-0.096566	9.798541				-0.003155	-0.000498	-0.004338				-0.446811	0.796187	-20.793477
00024	15368562	-0.148408	-0.107045	9.787431				-0.002526	0.000234	0.000216				-0.445330	0.795934	-20.792803
00025	15368612	-0.139036	-0.106378	9.799848				-0.002324	0.003345	0.002608				-0.445985	0.796898	-20.792061
00026	15368662	-0.143627	-0.087250	9.779728				-0.004373	0.001876	-0.001792				-0.445042	0.797111	-20.791982
00027	15368712	-0.171361	-0.091612	9.782505				-0.003832	0.006150	-0.002633				-0.446150	0.798867	-20.792747
00028	15368762	-0.142552	-0.082354	9.791467				-0.001057	-0.000389	0.001170				-0.444245	0.798438	-20.791829
00029	15368812	-0.142993	-0.106705	9.798183				-0.004186	-0.001223	-0.001229				-0.445449	0.798085	-20.792179
00030	15368862	-0.145329	-0.093545	9.792926				-0.002337	0.001529	0.000576				-0.443913	0.798204	-20.791422
00031	15368912	-0.138460	-0.112994	9.814701				-0.002354	-0.001155	-0.000527				-0.444589	0.797872	-20.791572
00032	15368962	-0.140502	-0.112946	9.787635				-0.003162	0.003061	-0.002334				-0.443301	0.798423	-20.791655
00033	15369012	-0.150256	-0.109773	9.805655				-0.002489	0.004467	0.000272				-0.444014	0.799703	-20.791589
00034	15369062	-0.126171	-0.112628	9.786594				-0.000813	-0.000519	-0.002809				-0.442054	0.799228	-20.791796
00035	15369112	-0.160745	-0.095129	9.800188				-0.005131	-0.000527	-0.000773				-0.443527	0.799075	-20.792017
00036	15369162	-0.150551	-0.104395	9.795106				-0.005558	-0.003476	-0.002363				-0.442926	0.797754	-20.792073
00037	15369212	-0.169630	-0.125545	9.785623				-0.002001	0.003055	-0.000055				-0.443499	0.798629	-20.792094
00038	15369262	-0.163632	-0.102212	9.786544				-0.001831	-0.001635	-0.001428				-0.441826	0.797837	-20.791914
00039	15369312	-0.159750	-0.102724	9.804496				-0.001692	-0.001018	-0.002611				-0.442321	0.797539	-20.792657
00040	15369362	-0.161973	-0.106001	9.802830				-0.003146	0.002940	0.001578				-0.441012	0.798065	-20.791614
00041	15369412	-0.159683	-0.092998	9.818875				-0.001633	-0.000557	0.000595				-0.441477	0.797906	-20.791441
00042	15369462	-0.159433	-0.099340	9.786292				-0.002599	-0.000311	0.002781				-0.440007	0.797503	-20.790038
00043	15369512	-0.163037	-0.104149	9.796849				-0.006209	0.000529	0.001353				-0.441781	0.797658	-20.789651
00044	15369562	-0.143392	-0.103761	9.810168				-0.003074	0.001345	-0.002155				-0.440467	0.797718	-20.789655
00045	15369612	-0.167003	-0.089000	9.821311				-0.000237	0.002923	-0.001471				-0.440541	0.798552	-20.790080
00046	15369662	-0.155510	-0.099904	9.805441				-0.004893	0.000487	0.002984				-0.439728	0.798378	-20.788617
00047	15369712	-0.151489	-0.103316	9.783851				-0.006441	-0.000416	0.001764				-0.441566	0.798263	-20.788109
00048	15369762	-0.145588	-0.119436	9.788620				-0.004366	-0.001384	0.000086				-0.440613	0.797546	-20.787467
00049	15369812	-0.141211	-0.094653	9.806801				-0.001320	-0.001624	-0.001238				-0.440996	0.797078	-20.787817
00050	15369862	-0.132422	-0.124325	9.812758				-0.004872	0.002415	-0.001922				-0.440197	0.797445	-20.787769
00051	15369912	-0.142589	-0.104431	9.791472				-0.000528	0.003377	0.002137				-0.440340	0.798417	-20.787164
00052	15369962	-0.145207	-0.105416	9.795084				-0.002901	0.000804	-0.004098				-0.438985	0.798318	-20.787738
00053	15370012	-0.158680	-0.106397	9.792516				-0.007032	0.000126	0.000314				-0.440998	0.798355	-20.787647
00054	15370062	-0.157422	-0.115388	9.799465				-0.002909	0.000260	0.000297				-0.439627	0.798110	-20.786959
00055	15370112	-0.168378	-0.107979	9.799756				-0.003539	0.002991	-0.002668				-0.440652	0.798961	-20.787735
00056	15370162	-0.172142	-0.113884	9.809117				-0.004663	0.003944	-0.003429				-0.439799	0.799762	-20.788133
00057	15370212	-0.155732	-0.110931	9.782919				-0.006253	0.001425	-0.002380				-0.441600	0.800166	-20.788819
00058	15370262	-0.157422	-0.110930	9.812160				-0.005028	0.004454	-0.002143				-0.440846	0.801116	-20.788838
00059	15370312	-0.154923	-0.112023	9.782908				-0.002293	-0.001221	-0.002372				-0.441513	0.800761	-20.789514
00060	15370362	-0.163075	-0.087939	9.799959				-0.001208	0.002164	-0.003061				-0.439669	0.801054	-20.789801
00061	15370412	-0.153803	-0.106345	9.809267				-0.005771	-0.000537	-0.002138				-0.441331	0.800896	-20.790408
00062	15370462	-0.156230	-0.105774	9.789145				-0.003345	-0.001273	-0.001823				-0.440094	0.800207	-20.790347
00063	15370512	-0.152132	-0.116125	9.789609				-0.001141	0.000836	-0.003295				-0.440434	0.800439	-20.791292
00064	15370562	-0.156664	-0.098563	9.800409				-0.003019	-0.000456	-0.000764				-0.439099	0.799986	-20.790911
00065	15370612	-0.166174	-0.092887	9.789675				-0.003193	-0.002043	-0.001794				-0.440021	0.799397	-20.791420
00066	15370662	-0.144656	-0.100752	9.812572				-0.005522	0.001594	-0.005144				-0.439421	0.799522	-20.792288
00067	15370712	-0.152316	-0.109934	9.806863				-0.000802	0.000623	-0.000376				-0.439652	0.799700	-20.792396
00068	15370762	-0.159883	-0.075673	9.801142				-0.004842	0.001879	0.001179				-0.438833	0.799921	-20.791469
00069	15370812	-0.149602	-0.101265	9.780004				-0.002814	0.000295	-0.000504				-0.439641	0.800004	-20.791614
00070	15370862	-0.154611	-0.096086	9.792731				-0.004057	0.002278	0.000217				-0.438600	0.800337	-20.790940
00071	15370912	-0.144375	-0.101278	9.783580				-0.005926	-0.000902	-0.003805				-0.440313	0.800070	-20.792026
00072	15370962	-0.159012	-0.109929	9.797544				-0.001629	0.001382	-0.000246				-0.438578	0.800145	-20.791503
00073	15371012	-0.143690	-0.112070	9.804187				-0.004797	0.000656	0.003964				-0.439936	0.800342	-20.790366
00074	15371062	-0.147435	-0.095697	9.804433				-0.003651	-0.000691	-0.001179				-0.438785	0.799821	-20.790100
00075	15371112	-0.164942	-0.098743	9.784160				-0.005300	0.000832	0.000467				-0.440301	0.800060	-20.789964
00076	15371162	-0.155275	-0.099290	9.785074				-0.004167	0.003764	0.000800				-0.439290	0.800820	-20.789115
00077	15371212	-0.166679	-0.083163	9.795668				-0.002067	0.001883	-0.003448				-0.439896	0.801352	-20.790103
00078	15371262	-0.173267	-0.103627	9.801921				-0.003214	-0.002231	-0.000770				-0.438618	0.800391	-20.789757
00079	15371312	-0.161737	-0.111874	9.796371				-0.003713	0.000114	-0.002617				-0.439692	0.800418	-20.790505
00080	15371362	-0.178126	-0.099776	9.793091				-0.004446	0.002074	-0.003373				-0.438777	0.800684	-20.790875
00081	15371412	-0.150104	-0.127944	9.798945				-0.005129	-0.001822	-0.004360				-0.440264	0.800153	-20.792120
00082	15371462	-0.150374	-0.107135	9.802298				-0.004840	-0.000421	-0.000308				-0.439449	0.799712	-20.791618
00083	15371512	-0.154092	-0.114960	9.802077				-0.004003	0.000336	-0.000820				-0.440600	0.799806	-20.791856
00084	15371562	-0.147433	-0.114532	9.795092				-0.005101	0.000677	-0.000624				-0.439862	0.799678	-20.791433
00085	15371612	-0.171680	-0.115014	9.786354				-0.004880	0.001205	0.003648				-0.441245	0.800031	-20.790389
00086	15371662	-0.152041	-0.098945	9.781696				-0.002273	-0.000601	-0.000317				-0.439696	0.799538	-20.789886
00087	15371712	-0.153038	-0.090343	9.801587				-0.006853	0.002683	0.001030				-0.441655	0.800309	-20.789594
00088	15371762	-0.149338	-0.118402	9.801098				-0.001155	0.000454	-0.001793				-0.439791	0.800115	-20.789503
00089	15371812	-0.153821	-0.106519	9.808785				-0.003394	0.001413	-0.000240				-0.440765	0.800520	-20.789573
00090	15371862	-0.136679	-0.096850	9.791917				-0.004814	0.000873	-0.000142				-0.439943	0.800450	-20.789009
00091	15371912	-0.141736	-0.115496	9.800104				-0.003021	0.000840	-0.000663				-0.440811	0.800689	-20.789199
00092	15371962	-0.165501	-0.095639	9.795423				-0.006482	-0.000421	-0.002871				-0.440478	0.800242	-20.789422
00093	15372012	-0.145180	-0.104352	9.796999				-0.004272	0.000719	-0.001077				-0.441706	0.800446	-20.789728
00094	15372062	-0.158526	-0.086684	9.801373				-0.000107	-0.000276	-0.003050				-0.439548	0.800040	-20.790005
00095	15372112	-0.157272	-0.109605	9.790590				-0.002164	0.004058	-0.001283				-0.440173	0.801199	-20.790378
00096	15372162	-0.162181	-0.116125	9.797810				-0.001563	-0.000782	0.000001				-0.438419	0.800656	-20.789749
00097	15372212	-0.141214	-0.107117	9.803215				-0.007076	0.004584	0.000397				-0.440444	0.801970	-20.789645
00098	15372262	-0.156767	-0.117686	9.809275				-0.002310	0.001665	0.000367				-0.438903	0.802128	-20.788953
00099	15372312	-0.160521	-0.122573	9.813852				-0.003735	0.001089	-0.001170				-0.439978	0.802437	-20.789289
00100	15372362	-0.140474	-0.121984	9.807279				-0.003131	-0.000005	-0.001436				-0.438680	0.802112	-20.789107
00101	15372412	-0.168438	-0.106904	9.819407				-0.005858	0.003573	0.000840				-0.440354	0.803138	-20.788873
00102	15372462	-0.156460	-0.100712	9.796577				-0.004714	0.000881	0.001682				-0.439498	0.803073	-20.787787
00103	15372512	-0.164916	-0.108921	9.804528				-0.002277	0.000301	-0.002591				-0.440160	0.803154	-20.788526
00104	15372562	-0.162185	-0.111766	9.793490				-0.001221	0.000715	-0.000186				-0.438310	0.803038	-20.787989
00105	15372612	-0.167925	-0.093426	9.790633				-0.005507	0.000311	-0.002453				-0.439898	0.803122	-20.788691
00106	15372662	-0.168755	-0.086829	9.811245				-0.001676	-0.003304	-0.000878				-0.438181	0.801854	-20.788356
00107	15372712	-0.147724	-0.099228	9.816183				-0.003933	0.000147	0.000075				-0.439307	0.801896	-20.788335
00108	15372762	-0.145304	-0.098683	9.797956				-0.004794	0.002133	-0.000650				-0.438483	0.802186	-20.787948
00109	15372812	-0.152780	-0.106582	9.799439				-0.004839	0.002290	-0.003117				-0.439882	0.802835	-20.788844
00110	15372862	-0.159987	-0.102873	9.810494				-0.006067	-0.001254	-0.001433				-0.439425	0.802153	-20.788662
00111	15372912	-0.161834	-0.088910	9.797556				-0.004382	0.002237	-0.002315				-0.440689	0.802788	-20.789329
00112	15372962	-0.153520	-0.108650	9.809260				-0.005666	-0.000796	-0.002813				-0.440123	0.802234	-20.789539
00113	15373012	-0.154813	-0.099637	9.802081				-0.008506	0.003200	-0.000888				-0.442564	0.803149	-20.789801
00114	15373062	-0.141256	-0.113608	9.799619				-0.005193	0.000278	-0.003608				-0.441865	0.802901	-20.790255
00115	15373112	-0.141897	-0.100705	9.800816				-0.007917	-0.000376	-0.000817				-0.444137	0.802791	-20.790489
00116	15373162	-0.152106	-0.097868	9.817163				-0.003690	0.001537	-0.001875				-0.443001	0.802908	-20.790437
00117	15373212	-0.153343	-0.101247	9.805432				-0.002752	0.001161	-0.003383				-0.443803	0.803233	-20.791409
00118	15373262	-0.149959	-0.107981	9.800861				-0.002263	0.000947	-0.003836				-0.442266	0.803176	-20.791894
00119	15373312	-0.167626	-0.108298	9.807418				-0.003637	0.002255	0.000792				-0.443305	0.803824	-20.791669
00120	15373362	-0.150588	-0.110836	9.803974				-0.000752	-0.000922	0.001473				-0.441313	0.803243	-20.790685
00121	15373412	-0.170992	-0.094753	9.787785				-0.002459	0.000004	-0.003523				-0.442032	0.803236	-20.791693
00122	15373462	-0.160584	-0.108549	9.790367				-0.006545	-0.000387	-0.002580				-0.441717	0.802800	-20.791806
00123	15373512	-0.148557	-0.110062	9.782159				-0.003760	-0.000074	0.001392				-0.442788	0.802782	-20.791403
00124	15373562	-0.152630	-0.120012	9.802550				-0.007146	0.000572	0.000118				-0.442634	0.802626	-20.790761
00125	15373612	-0.172037	-0.096709	9.809112				-0.001632	-0.000294	0.002125				-0.443093	0.802547	-20.790150
00126	15373662	-0.170062	-0.088657	9.813658				-0.000230	0.002831	0.000370				-0.440957	0.803039	-20.789465
00127	15373712	-0.154979	-0.121201	9.804962				-0.004692	-0.002290	-0.001059				-0.442306	0.802380	-20.789760
00128	15373762	-0.144146	-0.114910	9.807058				-0.002830	-0.000388	-0.001829				-0.440924	0.801945	-20.789695
00129	15373812	-0.153520	-0.103244	9.795364				-0.005033	0.002349	-0.004686				-0.442384	0.802608	-20.791040
00130	15373862	-0.160119	-0.108270	9.794442				-0.002894	-0.000225	-0.001726				-0.441020	0.802220	-20.790958
00131	15373912	-0.130972	-0.106264	9.802680				-0.007774	0.003476	0.000648				-0.443244	0.803218	-20.790777
00132	15373962	-0.137201	-0.087717	9.785937				-0.004336	0.000783	-0.000338				-0.442288	0.803121	-20.790270
00133	15374012	-0.147850	-0.096966	9.800119				-0.000172	-0.001375	-0.002190				-0.442346	0.802723	-20.790900
00134	15374062	-0.161458	-0.079972	9.801147				-0.004229	0.001697	0.000088				-0.441357	0.802889	-20.790282
00135	15374112	-0.136482	-0.096120	9.812767				-0.003102	-0.001713	-0.000290				-0.442247	0.802398	-20.790361
00136	15374162	-0.144793	-0.123022	9.815929				0.000405	-0.001136	-0.001003				-0.439934	0.801750	-20.790031
00137	15374212	-0.141811	-0.091618	9.801529				-0.004582	0.001655	-0.000429				-0.441249	0.802223	-20.790162
00138	15374262	-0.139307	-0.116748	9.806799				-0.004102	-0.000764	-0.002561				-0.440234	0.801679	-20.790302
00139	15374312	-0.145934	-0.086760	9.804668				-0.006977	0.001123	-0.002827				-0.442245	0.801995	-20.791112
00140	15374362	-0.159803	-0.105574	9.805937				-0.002012	0.001048	-0.003292				-0.440634	0.801968	-20.791460
00141	15374412	-0.153352	-0.104639	9.796564				-0.004313	0.004476	0.000966				-0.441866	0.803252	-20.791194
00142	15374462	-0.170028	-0.080292	9.795201				-0.005229	-0.001103	0.000490				-0.441163	0.802617	-20.790467
00143	15374512	-0.160815	-0.102073	9.791082				-0.003878	-0.001632	-0.000795				-0.442277	0.802148	-20.790694
00144	15374562	-0.155135	-0.122345	9.788906				-0.003654	0.000574	0.001681				-0.441117	0.801996	-20.789616
00145	15374612	-0.150435	-0.116391	9.789120				-0.004321	-0.000702	0.000748				-0.442352	0.801797	-20.789397
00146	15374662	-0.139716	-0.125532	9.804404				-0.004210	0.000753	-0.001460				-0.441364	0.801689	-20.789228
00147	15374712	-0.151208	-0.100114	9.795831				-0.002252	0.000523	-0.002875				-0.442021	0.801833	-20.790056
00148	15374762	-0.154886	-0.095557	9.800643				-0.007719	0.001107	-0.004145				-0.442049	0.801821	-20.790609
00149	15374812	-0.160247	-0.086829	9.817204				-0.004991	0.000387	-0.000109				-0.443479	0.801932	-20.790639
00150	15374862	-0.168796	-0.083813	9.799750				-0.004211	0.001051	0.002008				-0.442477	0.801917	-20.789490
00151	15374912	-0.147843	-0.079596	9.792933				-0.001807	0.002189	0.001076				-0.442991	0.802547	-20.789187
00152	15374962	-0.149471	-0.104163	9.797020				-0.003956	0.001185	0.000820				-0.441920	0.802568	-20.788354
00153	15375012	-0.150371	-0.099511	9.803012				-0.004002	0.001539	0.000726				-0.443064	0.803011	-20.788151
00154	15375062	-0.137696	-0.111221	9.799842				-0.004245	-0.000215	-0.001114				-0.442085	0.802627	-20.787838
00155	15375112	-0.156439	-0.101430	9.798486				-0.004550	0.000752	0.001942				-0.443380	0.802847	-20.787280
00156	15375162	-0.129811	-0.105343	9.783977				-0.002930	-0.000359	-0.002882				-0.442031	0.802418	-20.787504
00157	15375212	-0.138205	-0.107789	9.791925				-0.004239	0.000522	-0.003836				-0.443261	0.802559	-20.788602
00158	15375262	-0.149173	-0.095312	9.808283				-0.003029	-0.000035	-0.001177				-0.441934	0.802227	-20.788340
00159	15375312	-0.156153	-0.103242	9.808082				-0.003877	-0.001665	-0.001376				-0.443050	0.801746	-20.788732
00160	15375362	-0.155837	-0.087832	9.781236				-0.002509	0.003084	0.001084				-0.441565	0.802313	-20.787804
00161	15375412	-0.138734	-0.092666	9.799358				-0.001919	0.002348	-0.001874				-0.442122	0.802981	-20.788342
00162	15375462	-0.150113	-0.095974	9.801105				-0.005057	0.002550	-0.000422				-0.441373	0.803391	-20.787885
00163	15375512	-0.170796	-0.112023	9.793535				-0.005545	0.001441	-0.002570				-0.442972	0.803798	-20.788622
00164	15375562	-0.166728	-0.101055	9.799259				-0.002655	0.003266	-0.002828				-0.441544	0.804407	-20.788847
00165	15375612	-0.160694	-0.119884	9.791556				-0.003062	-0.000364	-0.005641				-0.442444	0.804291	-20.790463
00166	15375662	-0.179241	-0.102261	9.791182				-0.002347	0.000653	-0.001207				-0.440922	0.804155	-20.790210
00167	15375712	-0.187378	-0.086451	9.801277				-0.004061	0.001242	-0.001068				-0.442090	0.804509	-20.790520
00168	15375762	-0.145725	-0.094555	9.791245				-0.004190	-0.000793	-0.000440				-0.441093	0.803961	-20.790073
00169	15375812	-0.155695	-0.099981	9.796331				-0.003932	0.001949	-0.004533				-0.442238	0.804509	-20.791375
00170	15375862	-0.176853	-0.097925	9.787094				-0.003630	0.000434	-0.003834				-0.441093	0.804305	-20.791871
00171	15375912	-0.168320	-0.094571	9.784169				-0.006166	0.000849	-0.001131				-0.442864	0.804546	-20.792191
00172	15375962	-0.145111	-0.095170	9.804187				-0.003910	0.001302	-0.003349				-0.441798	0.804592	-20.792545
00173	15376012	-0.164618	-0.098902	9.782714				-0.002068	-0.001855	0.001252				-0.442385	0.804063	-20.792188
00174	15376062	-0.130272	-0.110133	9.810588				-0.006542	0.001848	0.000697				-0.442056	0.804275	-20.791384
00175	15376112	-0.146479	-0.099264	9.802038				-0.007329	-0.000954	-0.002904				-0.444168	0.803995	-20.792213
00176	15376162	-0.151196	-0.085783	9.815479				-0.006595	-0.000644	0.000210				-0.443857	0.803492	-20.791548
00177	15376212	-0.151010	-0.098944	9.815237				-0.002107	-0.001764	-0.000259				-0.444461	0.802986	-20.791618
00178	15376262	-0.132478	-0.095105	9.808911				-0.001847	0.000282	0.000840				-0.442788	0.802749	-20.790776
00179	15376312	-0.135124	-0.117701	9.786642				0.001226	-0.000405	0.003041				-0.442424	0.802640	-20.789902
00180	15376362	-0.166369	-0.093734	9.799018				-0.003353	0.004390	-0.000384				-0.441187	0.803577	-20.789427
00181	15376412	-0.141066	-0.112474	9.804166				-0.003552	0.000343	-0.000468				-0.442207	0.803674	-20.789559
00182	15376462	-0.155558	-0.103715	9.809505				-0.003012	0.000618	-0.000438				-0.440872	0.803531	-20.789079
00183	15376512	-0.172293	-0.093601	9.813661				-0.003847	-0.001538	-0.002212				-0.441983	0.803085	-20.789708
00184	15376562	-0.168547	-0.106792	9.797832				-0.003690	0.002501	-0.004498				-0.440859	0.803472	-20.790385
00185	15376612	-0.170340	-0.099049	9.806237				-0.001980	0.001146	-0.002490				-0.441436	0.803795	-20.791100
00186	15376662	-0.156391	-0.129126	9.816712				-0.002703	-0.000224	-0.001244				-0.440016	0.803408	-20.790843
00187	15376712	-0.173498	-0.097977	9.789958				-0.005222	-0.000919	-0.004833				-0.441531	0.803134	-20.792226
00188	15376762	-0.159149	-0.107229	9.790352				-0.002696	0.000589	-0.000153				-0.440105	0.802984	-20.791662
00189	15376812	-0.161600	-0.101065	9.779824				-0.006694	0.003623	-0.000154				-0.442024	0.804021	-20.791718
00190	15376862	-0.156918	-0.092474	9.781241				-0.006233	0.000039	-0.001330				-0.441615	0.803710	-20.791505
00191	15376912	-0.167060	-0.108115	9.794951				-0.001583	0.001092	0.000203				-0.442068	0.804024	-20.791446
00192	15376962	-0.159020	-0.087182	9.795153				-0.003472	0.002833	-0.002543				-0.440874	0.804510	-20.791583
00193	15377012	-0.144137	-0.101173	9.795557				-0.003581	-0.003656	0.002496				-0.441889	0.803468	-20.790857
00194	15377062	-0.168948	-0.108653	9.795441				-0.003474	0.000024	0.000330				-0.440684	0.803157	-20.790145
00195	15377112	-0.155954	-0.096062	9.803041				-0.006151	-0.002579	-0.001055				-0.442450	0.802416	-20.790438
00196	15377162	-0.155049	-0.103791	9.804714				-0.001682	0.003064	-0.000235				-0.440734	0.802973	-20.789905
00197	15377212	-0.133774	-0.108332	9.800779				-0.003304	0.001576	-0.002392				-0.441691	0.803420	-20.790594
00198	15377262	-0.153888	-0.097062	9.797035				-0.002231	0.000174	-0.000635				-0.440134	0.803149	-20.790185
00199	15377312	-0.148393	-0.101325	9.815704				-0.002559	-0.000902	-0.002722				-0.440878	0.802884	-20.790965
00200	15377362	-0.148966	-0.107136	9.801808				-0.006124	-0.000675	-0.004417				-0.440451	0.802361	-20.791644
00201	15377412	-0.153142	-0.103242	9.804949				-0.005865	0.002501	-0.001604				-0.442138	0.803074	-20.792106
00202	15377462	-0.148962	-0.110542	9.803729				-0.000041	0.001531	-0.002817				-0.439962	0.803187	-20.792305
00203	15377512	-0.161389	-0.099693	9.791325				-0.002344	-0.000440	-0.001311				-0.440639	0.803058	-20.792681
00204	15377562	-0.165653	-0.083150	9.799008				-0.008011	-0.001705	-0.002168				-0.440743	0.802245	-20.792711
00205	15377612	-0.160491	-0.090994	9.816487				-0.002771	0.002370	0.001719				-0.441530	0.802928	-20.792222
00206	15377662	-0.164540	-0.084117	9.796850				-0.001097	0.001610	-0.004058				-0.439663	0.803061	-20.792800
00207	15377712	-0.156730	-0.099042	9.800408				-0.001758	0.001112	-0.003646				-0.440181	0.803372	-20.793845
00208	15377762	-0.164460	-0.105920	9.796376				-0.002245	0.001568	-0.001489				-0.438632	0.803499	-20.793673
00209	15377812	-0.163636	-0.102225	9.785340				-0.001224	-0.001421	-0.001509				-0.438988	0.803088	-20.794098
00210	15377862	-0.173407	-0.115571	9.808410				-0.004198	-0.000767	-0.002911				-0.438004	0.802543	-20.794327
00211	15377912	-0.160158	-0.095210	9.808334				-0.004865	0.001393	0.000340				-0.439396	0.802943	-20.794227
00212	15377962	-0.169120	-0.094800	9.792088				-0.002748	0.002430	-0.000268				-0.437986	0.803319	-20.793733
00213	15378012	-0.160218	-0.097162	9.793954				-0.003944	-0.000504	-0.001115				-0.439120	0.803172	-20.794051
00214	15378062	-0.154237	-0.103378	9.799441				-0.006977	0.001056	-0.003921				-0.438936	0.803147	-20.794580
00215	15378112	-0.150413	-0.108039	9.808764				0.000544	0.000546	-0.000540				-0.438783	0.803302	-20.794735
00216	15378162	-0.146300	-0.095384	9.771117				-0.000327	0.000726	-0.000603				-0.436680	0.803190	-20.794295
00217	15378212	-0.143205	-0.109353	9.785488				-0.003724	0.001635	-0.001489				-0.437753	0.803655	-20.794725
00218	15378262	-0.137650	-0.113578	9.787618				-0.002644	0.000614	-0.004675				-0.436330	0.803502	-20.795465
00219	15378312	-0.139041	-0.116061	9.792658				-0.002757	0.000557	0.001133				-0.437116	0.803664	-20.795140
00220	15378362	-0.140831	-0.110094	9.809920				-0.001521	-0.002208	-0.001836				-0.435361	0.802708	-20.795077
00221	15378412	-0.146436	-0.108045	9.803718				-0.004601	0.002235	0.000089				-0.436678	0.803349	-20.795054
00222	15378462	-0.156238	-0.105285	9.788185				-0.003525	-0.002696	-0.001094				-0.435494	0.802255	-20.794774
00223	15378512	-0.143472	-0.101557	9.786685				-0.004178	-0.000854	0.002862				-0.436679	0.802016	-20.793951
00224	15378562	-0.154364	-0.112556	9.789141				-0.001677	0.001564	-0.004578				-0.434979	0.802135	-20.794655
00225	15378612	-0.141247	-0.111208	9.814235				-0.001701	0.003645	-0.001900				-0.435475	0.803175	-20.795208
00226	15378662	-0.142870	-0.115156	9.795069				-0.002916	-0.000745	-0.002339				-0.434121	0.802638	-20.795258
00227	15378712	-0.151811	-0.115138	9.795356				-0.006007	-0.003025	0.001410				-0.435836	0.801774	-20.794842
00228	15378762	-0.159144	-0.098749	9.811448				-0.000424	0.000760	-0.000474				-0.433761	0.801671	-20.794368
00229	15378812	-0.158538	-0.095285	9.805689				-0.002449	0.003210	0.001211				-0.434458	0.802594	-20.794027
00230	15378862	-0.162313	-0.108270	9.808835				-0.001974	-0.000114	-0.001211				-0.432830	0.802239	-20.793779
00231	15378912	-0.167734	-0.108132	9.804305				-0.005317	-0.001495	-0.000119				-0.434354	0.801811	-20.793806
00232	15378962	-0.172979	-0.092086	9.796662				-0.003821	0.002060	0.001276				-0.433245	0.802084	-20.792820
00233	15379012	-0.157977	-0.094435	9.801612				-0.006828	0.000447	-0.003188				-0.435214	0.802206	-20.793735
00234	15379062	-0.155413	-0.100869	9.792260				-0.004566	0.000070	-0.000022				-0.434324	0.801906	-20.793149
00235	15379112	-0.150664	-0.105486	9.802537				-0.004213	0.000817	-0.002648				-0.435541	0.802135	-20.793909
00236	15379162	-0.144565	-0.114785	9.800593				-0.002000	0.000085	0.000906				-0.433913	0.801842	-20.793040
00237	15379212	-0.124196	-0.115993	9.774132				-0.001898	-0.000309	-0.000741				-0.434460	0.801752	-20.793248
00238	15379262	-0.149905	-0.095165	9.808759				-0.006831	0.000572	-0.002768				-0.434230	0.801591	-20.793449
00239	15379312	-0.129940	-0.126809	9.792140				-0.003859	0.003156	0.000634				-0.435333	0.802496	-20.793274
00240	15379362	-0.150393	-0.108842	9.801819				-0.007042	0.000383	0.000339				-0.435151	0.802288	-20.792553
00241	15379412	-0.153796	-0.108850	9.812142				-0.008509	0.001198	0.000381				-0.437587	0.802632	-20.792447
00242	15379462	-0.140573	-0.118080	9.780200				-0.005458	-0.001272	-0.000348				-0.436954	0.801947	-20.791928
00243	15379512	-0.134701	-0.096497	9.822105				-0.003042	-0.000553	-0.001217				-0.437831	0.801786	-20.792280
00244	15379562	-0.152201	-0.103061	9.800633				-0.004922	0.002865	-0.004722				-0.437061	0.802278	-20.793024
00245	15379612	-0.175917	-0.106247	9.801472				-0.004646	0.001293	-0.002509				-0.438403	0.802643	-20.793741
00246	15379662	-0.154996	-0.104824	9.805920				-0.004271	0.000322	-0.006463				-0.437455	0.802401	-20.794987
00247	15379712	-0.163961	-0.088043	9.806192				-0.001425	-0.002177	-0.002475				-0.437873	0.801772	-20.795691
00248	15379762	-0.179838	-0.090176	9.789741				-0.003948	0.000759	-0.000975				-0.436810	0.801669	-20.795372
00249	15379812	-0.154278	-0.094079	9.787456				-0.003590	-0.000462	-0.000891				-0.437842	0.801535	-20.795623
00250	15379862	-0.150889	-0.095042	9.799452				-0.001933	0.001466	-0.004862				-0.436218	0.801625	-20.796407
00251	15379912	-0.171233	-0.106604	9.783311				-0.007209	0.002340	-0.002176				-0.438292	0.802290	-20.797032
00252	15379962	-0.150732	-0.108029	9.797830				-0.002091	-0.001410	-0.000801				-0.436697	0.801565	-20.796674
00253	15380012	-0.160929	-0.110693	9.795719				0.000181	-0.000634	-0.004138				-0.436662	0.801374	-20.797862
00254	15380062	-0.169680	-0.092274	9.806302				-0.001527	0.002933	-0.002155				-0.434911	0.801890	-20.797891
00255	15380112	-0.155332	-0.104393	9.799532				-0.005392	-0.000438	-0.001365				-0.436461	0.801762	-20.798279
00256	15380162	-0.150048	-0.119991	9.786327				-0.003753	0.000665	0.001336				-0.435333	0.801637	-20.797292
00257	15380212	-0.147924	-0.112911	9.811475				-0.000577	0.001398	-0.000306				-0.435500	0.802036	-20.797380
00258	15380262	-0.138847	-0.113386	9.803520				-0.000667	0.001140	-0.001015				-0.433498	0.802041	-20.797072
00259	15380312	-0.148944	-0.101242	9.801893				-0.002306	0.000235	-0.001654				-0.434165	0.802105	-20.797542
00260	15380362	-0.147734	-0.110647	9.784636				-0.002605	-0.001388	-0.001118				-0.432718	0.801386	-20.797265
00261	15380412	-0.125687	-0.123974	9.803458				-0.003693	0.003634	-0.001060				-0.433781	0.802425	-20.797575
00262	15380462	-0.142809	-0.110493	9.792282				-0.003327	-0.000489	0.002740				-0.432526	0.801971	-20.796204
00263	15380512	-0.145011	-0.087601	9.796115				-0.004404	-0.000321	-0.001108				-0.433792	0.801877	-20.796518
00264	15380562	-0.142199	-0.095283	9.807841				-0.001502	0.001118	-0.002201				-0.432035	0.801873	-20.796544
00265	15380612	-0.154382	-0.104595	9.799284				-0.004530	0.001781	-0.000901				-0.433336	0.802382	-20.796807
00266	15380662	-0.136143	-0.097996	9.797030				-0.005689	0.001753	-0.003438				-0.432782	0.802557	-20.797182
00267	15380712	-0.157713	-0.094758	9.792338				-0.002588	-0.003166	-0.001706				-0.433530	0.801647	-20.797663
00268	15380762	-0.137700	-0.106132	9.790576				-0.005087	0.000990	-0.001135				-0.432796	0.801608	-20.797408
00269	15380812	-0.144062	-0.109721	9.801628				-0.004940	-0.001050	-0.006113				-0.434235	0.801294	-20.799156
00270	15380862	-0.149954	-0.116358	9.796631				-0.004232	0.001166	-0.003442				-0.433264	0.801302	-20.799544
00271	15380912	-0.172193	-0.094961	9.803208				-0.006343	0.003655	0.000558				-0.435080	0.802350	-20.799387
00272	15380962	-0.176955	-0.099492	9.822645				-0.002588	-0.000803	0.000878				-0.433621	0.801802	-20.798528
00273	15381012	-0.161493	-0.116410	9.805799				-0.005388	0.002474	-0.002695				-0.435175	0.802505	-20.799305
00274	15381062	-0.158207	-0.125352	9.797389				-0.008201	0.002261	-0.002847				-0.435339	0.802828	-20.799509
00275	15381112	-0.167341	-0.106608	9.782335				-0.003791	-0.001568	-0.001820				-0.436432	0.802375	-20.800024
00276	15381162	-0.155462	-0.114651	9.790426				-0.003742	0.002184	-0.000520				-0.435310	0.802680	-20.799585
00277	15381212	-0.155802	-0.086624	9.799765				-0.005845	0.001181	0.002724				-0.436974	0.803024	-20.798805
00278	15381262	-0.150879	-0.099169	9.795906				0.000465	-0.000166	0.000195				-0.434644	0.802658	-20.798192
00279	15381312	-0.145130	-0.107542	9.803788				-0.001071	0.001511	-0.003768				-0.434966	0.803083	-20.799274
00280	15381362	-0.148267	-0.101306	9.810991				-0.000063	-0.001060	-0.005484				-0.432809	0.802448	-20.800218
00281	15381412	-0.136865	-0.117165	9.799917				-0.002713	-0.000298	-0.003872				-0.433602	0.802354	-20.801326
00282	15381462	-0.139329	-0.108995	9.794418				-0.001231	0.002033	0.001560				-0.431752	0.802621	-20.800270
00283	15381512	-0.151615	-0.099583	9.793038				-0.007607	0.001656	-0.002983				-0.433943	0.803089	-20.801128
00284	15381562	-0.141793	-0.114201	9.783885				-0.004761	0.001571	-0.005557				-0.433133	0.803208	-20.802124
00285	15381612	-0.153022	-0.092501	9.783218				-0.004479	0.000671	-0.006042				-0.434441	0.803387	-20.803854
00286	15381662	-0.147322	-0.093180	9.792780				-0.001219	0.000247	-0.003652				-0.432608	0.803131	-20.804287
00287	15381712	-0.136292	-0.094259	9.788645				-0.004318	-0.002196	-0.002084				-0.433853	0.802497	-20.804882
00288	15381762	-0.148617	-0.105674	9.795184				-0.006057	0.000624	0.001308				-0.433386	0.802360	-20.803899
00289	15381812	-0.158224	-0.106913	9.801943				-0.007398	0.003312	-0.001079				-0.435510	0.803306	-20.804210
00290	15381862	-0.146716	-0.110182	9.789894				0.000194	0.002281	-0.001075				-0.433263	0.803638	-20.803950
00291	15381912	-0.161112	-0.114023	9.817292				-0.005997	0.003595	-0.001659				-0.434987	0.804664	-20.804428
00292	15381962	-0.162088	-0.094355	9.790210				-0.003620	0.001371	-0.002031				-0.433837	0.804734	-20.804422
00293	15382012	-0.170171	-0.099560	9.796730				-0.004306	0.000618	-0.001035				-0.435074	0.804908	-20.804724
00294	15382062	-0.175568	-0.096366	9.787171				-0.003935	-0.000763	-0.000499				-0.434008	0.804370	-20.804280
00295	15382112	-0.167639	-0.105865	9.795760				-0.002993	-0.000101	0.001006				-0.434861	0.804343	-20.803991
00296	15382162	-0.181217	-0.107570	9.791506				-0.000571	0.000173	0.000203				-0.432828	0.804074	-20.803325
00297	15382212	-0.146839	-0.097500	9.804269				-0.004822	-0.001330	-0.002396				-0.434219	0.803688	-20.804005
00298	15382262	-0.140229	-0.103172	9.797535				-0.001909	-0.003181	0.000377				-0.432569	0.802459	-20.803308
00299	15382312	-0.157437	-0.089614	9.792343				-0.004831	0.001124	-0.000746				-0.433956	0.802779	-20.803520
00300	15382362	-0.158722	-0.103703	9.800024				-0.004010	0.001234	-0.003088				-0.432921	0.802807	-20.803795
00301	15382412	-0.155484	-0.089951	9.800484				-0.004113	-0.001155	0.001646				-0.434093	0.802480	-20.803322
00302	15382462	-0.137758	-0.106917	9.808303				-0.004972	0.000771	0.000758				-0.433318	0.802383	-20.802498
00303	15382512	-0.148007	-0.109693	9.783430				-0.001401	0.000055	-0.000440				-0.433721	0.802398	-20.802621
00304	15382562	-0.155000	-0.106563	9.794970				-0.000217	-0.001986	0.000607				-0.431585	0.801511	-20.801854
00305	15382612	-0.158824	-0.114527	9.794517				-0.003270	0.002252	-0.003082				-0.432534	0.802150	-20.802741
00306	15382662	-0.153019	-0.096852	9.792564				-0.003570	0.000858	-0.000330				-0.431363	0.802076	-20.802251
00307	15382712	-0.155500	-0.106448	9.791624				-0.005995	0.001166	-0.002634				-0.433091	0.802404	-20.803006
00308	15382762	-0.153873	-0.114265	9.810067				-0.006044	0.000676	-0.004370				-0.432644	0.802270	-20.803638
00309	15382812	-0.144781	-0.114667	9.813618				-0.005601	-0.001889	0.001036				-0.434244	0.801731	-20.803337
00310	15382862	-0.158214	-0.115837	9.786124				-0.005836	-0.000242	0.003035				-0.433708	0.801349	-20.801868
00311	15382912	-0.170894	-0.094089	9.804394				0.000618	-0.001910	0.000378				-0.433529	0.800803	-20.801753
00312	15382962	-0.147561	-0.100917	9.796131				-0.005006	0.000542	-0.001968				-0.432775	0.800636	-20.801722
00313	15383012	-0.149064	-0.122900	9.775054				-0.004543	0.003100	-0.002886				-0.434089	0.801517	-20.802553
00314	15383062	-0.161102	-0.109553	9.783742				-0.007689	-0.000798	-0.001197				-0.434101	0.800967	-20.802294
00315	15383112	-0.150682	-0.098749	9.803102				-0.005924	0.001269	-0.000485				-0.435800	0.801330	-20.802431
00316	15383162	-0.149032	-0.125642	9.814839				-0.004283	0.001841	-0.004561				-0.434849	0.801529	-20.803127
00317	15383212	-0.165217	-0.113458	9.786160				-0.001418	0.001477	-0.002483				-0.435266	0.801946	-20.803844
00318	15383262	-0.153330	-0.111316	9.792085				-0.002020	0.002341	-0.000329				-0.433651	0.802297	-20.803350
00319	15383312	-0.164127	-0.089287	9.800528				-0.002941	0.001231	0.001016				-0.434489	0.802652	-20.803059
00320	15383362	-0.142252	-0.118634	9.787004				0.000779	0.001162	0.001520				-0.432065	0.802670	-20.802030
00321	15383412	-0.160038	-0.108827	9.810576				-0.002506	-0.003255	0.002885				-0.432771	0.801743	-20.801194
00322	15383462	-0.156548	-0.102418	9.804325				-0.006101	-0.001019	0.004154				-0.432307	0.801142	-20.799397
00323	15383512	-0.137809	-0.117658	9.780029				-0.006324	0.004948	-0.000050				-0.434119	0.802559	-20.799419
00324	15383562	-0.138912	-0.106793	9.809991				-0.007828	-0.000475	-0.000395				-0.434168	0.802103	-20.798934
00325	15383612	-0.152063	-0.100032	9.793994				-0.006464	0.002300	0.000262				-0.436019	0.802763	-20.798856
00326	15383662	-0.160826	-0.097820	9.825193				-0.000744	0.001223	-0.005276				-0.434059	0.802783	-20.799810
00327	15383712	-0.145397	-0.114119	9.788698				-0.006556	-0.000165	-0.002065				-0.435945	0.802731	-20.800397
00328	15383762	-0.158921	-0.108960	9.820631				-0.002717	-0.000000	-0.002493				-0.434539	0.802407	-20.800519
00329	15383812	-0.156350	-0.100836	9.801213				-0.004102	0.000235	-0.002165				-0.435722	0.802470	-20.801136
00330	15383862	-0.157427	-0.101481	9.781087				-0.001930	-0.000141	0.002514				-0.434070	0.802116	-20.799823
00331	15383912	-0.143521	-0.102572	9.798034				-0.006516	0.003447	-0.005732				-0.435960	0.803091	-20.801470
00332	15383962	-0.151912	-0.111405	9.797828				-0.002462	-0.000799	0.000294				-0.434470	0.802544	-20.800808
00333	15384012	-0.162739	-0.095309	9.772724				-0.004618	0.001685	0.001629				-0.435786	0.803031	-20.800346
00334	15384062	-0.145487	-0.128039	9.797562				-0.007383	-0.001313	-0.000498				-0.435708	0.802335	-20.799874
00335	15384112	-0.165989	-0.101114	9.808206				-0.005803	0.002466	-0.002660				-0.437381	0.803035	-20.800638
00336	15384162	-0.151937	-0.111537	9.805264				-0.006022	0.000069	-0.002801				-0.436923	0.802730	-20.800855
00337	15384212	-0.179987	-0.100594	9.808519				-0.005183	0.000249	-0.000139				-0.438408	0.802801	-20.800892
00338	15384262	-0.142153	-0.108848	9.791315				-0.005095	0.002220	-0.002728				-0.437684	0.803112	-20.801072
00339	15384312	-0.152412	-0.105612	9.802633				-0.006220	-0.001447	0.001554				-0.439460	0.802701	-20.800617
00340	15384362	-0.160744	-0.091349	9.803388				-0.000225	-0.000094	-0.005256				-0.437351	0.802344	-20.801516
00341	15384412	-0.147583	-0.096640	9.796134				-0.003248	0.001471	-0.004020				-0.438298	0.802757	-20.802670
00342	15384462	-0.154149	-0.107151	9.806952				-0.006829	0.000512	-0.001769				-0.438066	0.802582	-20.802578
00343	15384512	-0.143247	-0.112531	9.803061				-0.004541	0.003263	-0.001185				-0.439372	0.803514	-20.802921
00344	15384562	-0.155690	-0.112771	9.803369				-0.004962	-0.001079	-0.003515				-0.438613	0.802879	-20.803323
00345	15384612	-0.154353	-0.088496	9.802877				-0.002989	-0.001492	-0.001565				-0.439476	0.802448	-20.803769
00346	15384662	-0.153194	-0.084914	9.799034				-0.005876	-0.000183	-0.000045				-0.438965	0.802077	-20.803168
00347	15384712	-0.146683	-0.110936	9.798531				-0.003764	0.001755	-0.003118				-0.440056	0.802573	-20.804064
00348	15384762	-0.150986	-0.105841	9.794474				-0.002753	0.000288	-0.000852				-0.438653	0.802336	-20.803703
00349	15384812	-0.145064	-0.100630	9.799714				-0.002556	-0.002935	0.000158				-0.439385	0.801495	-20.803648
00350	15384862	-0.145125	-0.097838	9.782938				-0.004444	0.001003	-0.001712				-0.438470	0.801460	-20.803522
00351	15384912	-0.157632	-0.095149	9.808645				-0.000641	0.000295	-0.002046				-0.438662	0.801540	-20.804109
00352	15384962	-0.157703	-0.107276	9.800736				-0.003545	0.002053	-0.001419				-0.437490	0.801806	-20.803953
00353	15385012	-0.160127	-0.104366	9.793086				-0.005388	0.003506	-0.003039				-0.439046	0.802804	-20.804832
00354	15385062	-0.161617	-0.100214	9.799799				-0.004052	0.000948	0.000309				-0.438011	0.802758	-20.804144
00355	15385112	-0.162436	-0.109830	9.811788				-0.002605	-0.000550	-0.003100				-0.438770	0.802594	-20.805031
00356	15385162	-0.170374	-0.108862	9.792417				0.000529	-0.002366	-0.001290				-0.436429	0.801595	-20.804779
00357	15385212	-0.183084	-0.103997	9.815247				-0.004232	0.000260	-0.003444				-0.437655	0.801662	-20.805764
00358	15385262	-0.154295	-0.107460	9.819416				-0.002551	0.001943	-0.001291				-0.436197	0.801897	-20.805550
00359	15385312	-0.162824	-0.097812	9.794286				-0.004260	0.002234	-0.003690				-0.437432	0.802529	-20.806609
00360	15385362	-0.172680	-0.107178	9.801771				-0.001963	0.000430	-0.003454				-0.435815	0.802327	-20.807029
00361	15385412	-0.164948	-0.097441	9.802688				-0.005371	-0.000276	-0.002772				-0.437364	0.802241	-20.807822
00362	15385462	-0.171781	-0.099155	9.791938				-0.001384	-0.000393	-0.000506				-0.435569	0.801809	-20.807359
00363	15385512	-0.165049	-0.112871	9.787113				-0.004044	-0.003707	-0.000932				-0.436731	0.800746	-20.807617
00364	15385562	-0.158056	-0.111300	9.798585				-0.005800	-0.000800	-0.001585				-0.436205	0.800195	-20.807451
00365	15385612	-0.158911	-0.105470	9.794751				-0.002322	0.001617	-0.002996				-0.436882	0.800651	-20.808312
00366	15385662	-0.150397	-0.099014	9.794704				-0.003164	0.001863	-0.003831				-0.435610	0.800859	-20.808791
00367	15385712	-0.144616	-0.100090	9.794436				-0.002492	-0.000441	0.003602				-0.436310	0.800740	-20.807758
00368	15385762	-0.145184	-0.106486	9.811461				-0.001515	0.001833	-0.000140				-0.434551	0.800947	-20.807209
00369	15385812	-0.132201	-0.125070	9.799894				0.000962	0.001294	-0.000475				-0.434277	0.801317	-20.807349
00370	15385862	-0.158530	-0.113646	9.796909				-0.005434	-0.000311	-0.003573				-0.433655	0.800901	-20.807781
00371	15385912	-0.144144	-0.113485	9.778627				-0.004505	0.000837	-0.002350				-0.434955	0.801136	-20.808453
00372	15385962	-0.164515	-0.091995	9.789506				-0.003702	0.001624	-0.004305				-0.433839	0.801274	-20.809083
00373	15386012	-0.153485	-0.104258	9.791608				-0.004894	0.003999	-0.003777				-0.435257	0.802411	-20.810176
00374	15386062	-0.149405	-0.098565	9.790874				-0.007122	0.000569	-0.001512				-0.435109	0.802253	-20.809998
00375	15386112	-0.146619	-0.116509	9.790381				-0.005847	0.002920	0.000355				-0.436783	0.803090	-20.809903
00376	15386162	-0.157220	-0.103317	9.792348				-0.002834	0.000741	-0.000788				-0.435404	0.802983	-20.809531
00377	15386212	-0.169429	-0.107174	9.779955				-0.006915	0.001156	-0.000289				-0.437386	0.803313	-20.809617
00378	15386262	-0.138719	-0.105040	9.796329				-0.004177	0.000685	-0.002228				-0.436399	0.803186	-20.809634
00379	15386312	-0.151155	-0.108149	9.790400				-0.002809	-0.000199	-0.002136				-0.437212	0.803125	-20.810243
00380	15386362	-0.168354	-0.090444	9.793365				-0.003708	-0.001118	-0.003392				-0.436094	0.802479	-20.810599
00381	15386412	-0.158924	-0.107903	9.809134				-0.004784	0.000313	-0.004310				-0.437482	0.802559	-20.811835
00382	15386462	-0.148028	-0.107111	9.817224				-0.004236	0.000385	-0.003447				-0.436516	0.802344	-20.812239
00383	15386512	-0.168350	-0.082525	9.821877				-0.002421	-0.001024	0.000524				-0.437208	0.802052	-20.812087
00384	15386562	-0.151362	-0.122265	9.802391				-0.007692	0.001560	-0.001026				-0.437223	0.802178	-20.811762
00385	15386612	-0.148411	-0.110965	9.805244				-0.004320	0.002038	-0.002507				-0.438470	0.802757	-20.812481
00386	15386662	-0.133463	-0.120803	9.801579				-0.005988	-0.000865	-0.000498				-0.437994	0.802190	-20.812015
00387	15386712	-0.138562	-0.111637	9.795855				-0.002205	0.002338	0.000057				-0.438626	0.802860	-20.812008
00388	15386762	-0.139842	-0.109817	9.825090				-0.006955	0.005846	0.000310				-0.438424	0.804217	-20.811302
00389	15386812	-0.152491	-0.100410	9.791367				-0.003928	0.001886	-0.001287				-0.439555	0.804755	-20.811675
00390	15386862	-0.156384	-0.097311	9.788749				-0.003260	0.003121	-0.001510				-0.438302	0.805327	-20.811528
00391	15386912	-0.136267	-0.091083	9.800865				-0.001457	0.002438	-0.007069				-0.438748	0.806010	-20.813558
00392	15386962	-0.158976	-0.100188	9.790200				-0.002636	0.001352	-0.004377				-0.437328	0.806070	-20.814216
00393	15387012	-0.143658	-0.108100	9.801384				-0.006026	0.001462	-0.001638				-0.439061	0.806485	-20.814683
00394	15387062	-0.146498	-0.104609	9.791099				-0.003114	0.000706	0.000244				-0.437759	0.806370	-20.814001
00395	15387112	-0.150912	-0.109880	9.793281				-0.003077	-0.000618	0.000010				-0.438640	0.806193	-20.813997
00396	15387162	-0.144451	-0.104079	9.804745				-0.002893	0.000512	-0.001394				-0.437281	0.806018	-20.813775
00397	15387212	-0.165494	-0.100418	9.807732				-0.006036	0.001786	0.000414				-0.439009	0.806531	-20.813660
00398	15387262	-0.153651	-0.104359	9.796642				-0.004245	-0.000381	-0.001367				-0.438037	0.806100	-20.813437
00399	15387312	-0.170608	-0.119504	9.799129				-0.005434	0.000720	-0.003148				-0.439607	0.806300	-20.814339
00400	15387362	-0.160880	-0.108869	9.790932				-0.005949	-0.002424	-0.003969				-0.439134	0.805279	-20.814869
00401	15387412	-0.150582	-0.107894	9.803811				-0.003296	0.001116	-0.002579				-0.440089	0.805593	-20.815609
00402	15387462	-0.153351	-0.110449	9.793529				-0.006060	0.003531	-0.001402				-0.439638	0.806283	-20.815430
00403	15387512	-0.155428	-0.099506	9.806718				-0.004560	-0.000453	-0.001592				-0.440950	0.806150	-20.815886
00404	15387562	-0.162802	-0.094158	9.790934				-0.004442	0.000609	-0.003440				-0.440045	0.805999	-20.816289
00405	15387612	-0.145301	-0.104992	9.800921				-0.004521	-0.000451	0.000466				-0.441338	0.805870	-20.816153
00406	15387662	-0.151378	-0.100827	9.804298				-0.004051	0.000651	-0.002998				-0.440318	0.805733	-20.816413
00407	15387712	-0.133122	-0.112652	9.797984				-0.005312	0.002450	0.001122				-0.441835	0.806437	-20.816094
00408	15387762	-0.150083	-0.120271	9.788719				-0.005279	0.000888	-0.003634				-0.441169	0.806365	-20.816510
00409	15387812	-0.135188	-0.119852	9.807094				-0.002012	0.000747	-0.005247				-0.441767	0.806568	-20.818013
00410	15387862	-0.143047	-0.096478	9.804736				-0.005703	-0.000564	0.000273				-0.441207	0.806089	-20.817346
00411	15387912	-0.170608	-0.089596	9.799841				-0.003389	0.003355	0.000099				-0.442177	0.807050	-20.817321
00412	15387962	-0.131351	-0.122226	9.802768				-0.006777	0.000964	-0.000488				-0.441928	0.807007	-20.816855
00413	15388012	-0.152898	-0.124988	9.786820				-0.004223	0.001110	-0.000425				-0.443140	0.807324	-20.816981
00414	15388062	-0.158914	-0.085861	9.794990				-0.004454	0.003461	-0.001407				-0.442230	0.807994	-20.816796
00415	15388112	-0.136390	-0.112063	9.805184				-0.003947	-0.001805	-0.003109				-0.443373	0.807470	-20.817681
00416	15388162	-0.145668	-0.110817	9.793250				-0.005370	-0.001015	0.000238				-0.442718	0.806862	-20.816989
00417	15388212	-0.173491	-0.093306	9.784039				0.000107	0.000820	-0.004284				-0.442705	0.807087	-20.818213
00418	15388262	-0.163979	-0.097425	9.789268				-0.004581	0.001422	-0.000200				-0.441826	0.807176	-20.817671
00419	15388312	-0.182829	-0.097566	9.797031				-0.004319	0.001938	-0.004047				-0.443079	0.807722	-20.818832
00420	15388362	-0.153337	-0.107434	9.785865				-0.002197	0.002048	-0.000749				-0.441520	0.807990	-20.818468
00421	15388412	-0.147790	-0.117173	9.789431				-0.003896	0.000685	-0.003445				-0.442650	0.808178	-20.819452
00422	15388462	-0.152738	-0.108991	9.806698				-0.004249	0.002042	-0.001992				-0.441683	0.808441	-20.819441
00423	15388512	-0.151921	-0.112228	9.777946				-0.003201	-0.003083	-0.003049				-0.442612	0.807551	-20.820306
00424	15388562	-0.168110	-0.100587	9.807977				-0.002740	0.003039	-0.000865				-0.441208	0.808102	-20.819940
00425	15388612	-0.162439	-0.092318	9.810109				-0.004142	-0.000544	-0.001718				-0.442402	0.807942	-20.820432
00426	15388662	-0.167428	-0.109290	9.806782				-0.002211	-0.000639	-0.000760				-0.440846	0.807439	-20.820060
00427	15388712	-0.145003	-0.110859	9.793488				-0.005393	0.000994	0.003296				-0.442378	0.807731	-20.819116
00428	15388762	-0.148731	-0.108283	9.779847				-0.004733	0.001094	-0.000553				-0.441544	0.807726	-20.818679
00429	15388812	-0.155791	-0.104565	9.786590				-0.000989	0.002363	0.000660				-0.441824	0.808404	-20.818495
00430	15388862	-0.133837	-0.108783	9.793665				-0.002649	-0.000130	-0.003043				-0.440404	0.808042	-20.818765
00431	15388912	-0.151383	-0.106090	9.789922				-0.004833	-0.001941	-0.000121				-0.441789	0.807486	-20.818796
00432	15388962	-0.144288	-0.121385	9.791807				-0.003637	-0.002110	0.001992				-0.440631	0.806568	-20.817620
00433	15389012	-0.154570	-0.103585	9.790174				-0.005650	-0.000640	-0.003576				-0.442264	0.806377	-20.818642
00434	15389062	-0.137853	-0.126050	9.814785				-0.007237	0.002250	-0.001568				-0.442151	0.806700	-20.818496
00435	15389112	-0.167007	-0.106101	9.813728				-0.001773	0.000893	0.000399				-0.442657	0.806957	-20.818380
00436	15389162	-0.170355	-0.091452	9.778988				-0.004444	-0.002063	-0.000986				-0.441743	0.806046	-20.818047
00437	15389212	-0.153686	-0.109516	9.813660				-0.002208	-0.000632	0.001930				-0.442368	0.805869	-20.817496
00438	15389262	-0.153314	-0.109727	9.794724				-0.003428	-0.001053	-0.003906				-0.441174	0.805241	-20.818030
00439	15389312	-0.161030	-0.108080	9.805068				-0.002547	-0.001290	-0.001117				-0.441908	0.804869	-20.818342
00440	15389362	-0.152977	-0.093372	9.780340				-0.003430	0.000574	0.001208				-0.440695	0.804718	-20.817396
00441	15389412	-0.154045	-0.116950	9.804563				-0.001998	0.001790	-0.000558				-0.441269	0.805230	-20.817558
00442	15389462	-0.151462	-0.105954	9.804301				-0.000451	-0.002872	-0.002027				-0.439215	0.804085	-20.817540
00443	15389512	-0.150534	-0.106991	9.819874				-0.002448	0.001980	0.000473				-0.439915	0.804653	-20.817412
00444	15389562	-0.157272	-0.100323	9.796417				-0.004239	0.000323	-0.003958				-0.438953	0.804420	-20.817941
00445	15389612	-0.158466	-0.084634	9.807925				-0.004201	-0.000482	-0.001011				-0.440160	0.804279	-20.818228
00446	15389662	-0.165005	-0.107151	9.785438				-0.004600	0.002170	0.000545				-0.439285	0.804585	-20.817472
00447	15389712	-0.154008	-0.092970	9.775073				-0.000708	0.004196	-0.004850				-0.439508	0.805776	-20.818875
00448	15389762	-0.159913	-0.105062	9.795716				-0.003833	0.003016	-0.002696				-0.438426	0.806317	-20.819044
00449	15389812	-0.140805	-0.109819	9.797061				-0.002004	0.002923	-0.001579				-0.439006	0.807151	-20.819500
00450	15389862	-0.145852	-0.101543	9.802321				-0.003227	0.003026	-0.002567				-0.437750	0.807694	-20.819652
00451	15389912	-0.144495	-0.110219	9.796039				-0.003555	0.004277	-0.003976				-0.438785	0.808911	-20.820806
00452	15389962	-0.141229	-0.099999	9.809204				-0.004359	-0.000581	-0.000630				-0.437845	0.808425	-20.820384
00453	15390012	-0.155706	-0.088740	9.806875				-0.004672	0.002192	-0.002474				-0.439193	0.809048	-20.821094
00454	15390062	-0.150483	-0.113719	9.786476				-0.003207	-0.000620	0.000038				-0.437921	0.808552	-20.820510
00455	15390112	-0.138963	-0.111466	9.792409				-0.000729	0.003203	-0.001870				-0.438138	0.809466	-20.821051
00456	15390162	-0.124308	-0.120663	9.795454				-0.003006	0.001226	-0.001013				-0.436812	0.809497	-20.820744
00457	15390212	-0.158093	-0.100012	9.792269				-0.007033	0.001962	-0.000830				-0.438830	0.810057	-20.820988
00458	15390262	-0.167929	-0.110314	9.794480				-0.004883	-0.000129	0.000757				-0.438036	0.809704	-20.820176
00459	15390312	-0.162582	-0.091296	9.780785				-0.004804	-0.000683	0.000432				-0.439410	0.809509	-20.820050
00460	15390362	-0.174982	-0.096237	9.810562				-0.005935	0.002723	-0.002111				-0.438928	0.809967	-20.820055
00461	15390412	-0.172472	-0.099915	9.812956				-0.003576	0.000758	-0.003573				-0.439967	0.810177	-20.821078
00462	15390462	-0.169151	-0.096395	9.810299				-0.007784	0.000263	-0.002988				-0.440018	0.809928	-20.821321
00463	15390512	-0.166306	-0.104528	9.791832				-0.004074	-0.001574	-0.000922				-0.441189	0.809475	-20.821580
00464	15390562	-0.164484	-0.107908	9.814349				-0.001791	-0.000925	-0.002498				-0.439521	0.808887	-20.821666
00465	15390612	-0.143175	-0.123769	9.777823				-0.003770	0.000753	-0.002965				-0.440613	0.809096	-20.822513
00466	15390662	-0.142874	-0.124802	9.802500				-0.004251	0.001006	-0.002740				-0.439651	0.809060	-20.822701
00467	15390712	-0.142330	-0.098937	9.817835				-0.005892	0.001135	-0.003408				-0.441352	0.809378	-20.823680
00468	15390762	-0.143285	-0.110854	9.800349				-0.007617	0.003046	-0.003584				-0.441359	0.809925	-20.824122
00469	15390812	-0.147773	-0.106092	9.790786				-0.001608	0.002439	-0.003699				-0.441834	0.810616	-20.825183
00470	15390862	-0.158626	-0.097520	9.787962				-0.005326	0.002772	0.001412				-0.441164	0.811095	-20.824161
00471	15390912	-0.157386	-0.122743	9.809292				-0.006072	0.000714	-0.003502				-0.442917	0.811292	-20.825169
00472	15390962	-0.145553	-0.098405	9.807546				-0.005414	-0.000590	0.000849				-0.442274	0.810807	-20.824312
00473	15391012	-0.154503	-0.088593	9.803273				-0.002500	-0.000840	-0.003521				-0.443004	0.810559	-20.825321
00474	15391062	-0.141382	-0.109044	9.816631				-0.001691	-0.000144	-0.002397				-0.441308	0.810195	-20.825376
00475	15391112	-0.149113	-0.102767	9.804928				-0.001300	0.002098	0.000499				-0.441678	0.810797	-20.825233
00476	15391162	-0.155335	-0.109802	9.788430				-0.004072	0.002333	-0.003404				-0.440668	0.811140	-20.825599
00477	15391212	-0.139968	-0.096804	9.815180				0.002008	0.002259	0.003218				-0.440080	0.811795	-20.824686
00478	15391262	-0.160506	-0.103812	9.805222				-0.007208	0.001967	0.004175				-0.439937	0.812050	-20.822878
00479	15391312	-0.158756	-0.087972	9.803300				-0.003611	0.001180	-0.001102				-0.440976	0.812385	-20.823192
00480	15391362	-0.151933	-0.108197	9.794154				-0.005881	-0.002453	-0.003874				-0.440486	0.811356	-20.823693
00481	15391412	-0.169456	-0.096872	9.815571				-0.005833	0.001562	-0.001185				-0.442162	0.811801	-20.824031
00482	15391462	-0.175039	-0.097361	9.796904				-0.002876	-0.000039	-0.003710				-0.440811	0.811464	-20.824507
00483	15391512	-0.153971	-0.096296	9.797759				0.000007	-0.002057	-0.001418				-0.440815	0.810872	-20.824905
00484	15391562	-0.151392	-0.099748	9.789120				-0.001806	0.000494	-0.004451				-0.439159	0.810686	-20.825579
00485	15391612	-0.153720	-0.123065	9.790334				-0.003924	-0.000086	-0.000978				-0.440288	0.810659	-20.825855
00486	15391662	-0.161584	-0.090640	9.798271				-0.004850	0.000542	-0.003092				-0.439499	0.810490	-20.826134
00487	15391712	-0.146932	-0.114174	9.820731				-0.003394	0.002414	-0.000166				-0.440472	0.811181	-20.826190
00488	15391762	-0.160018	-0.087614	9.780299				-0.001998	0.000492	-0.003579				-0.438868	0.810997	-20.826593
00489	15391812	-0.165870	-0.110570	9.808848				0.000262	-0.001749	0.001341				-0.438788	0.810499	-20.826202
00490	15391862	-0.171208	-0.113220	9.783233				-0.003210	0.000705	-0.000236				-0.437518	0.810383	-20.825673
00491	15391912	-0.141831	-0.109009	9.811124				-0.001361	-0.000203	-0.001436				-0.437914	0.810321	-20.826083
00492	15391962	-0.142681	-0.110373	9.789081				-0.004368	-0.000321	-0.000627				-0.436978	0.809910	-20.825687
00493	15392012	-0.154801	-0.104117	9.778357				-0.002358	-0.001155	-0.000186				-0.437654	0.809579	-20.825739
00494	15392062	-0.148382	-0.094227	9.787663				-0.001051	0.001423	0.001620				-0.435758	0.809673	-20.824669
00495	15392112	-0.152384	-0.095421	9.810455				-0.004951	0.004265	0.000459				-0.437175	0.810896	-20.824549
00496	15392162	-0.148503	-0.093950	9.803722				-0.000388	0.001793	0.001556				-0.435089	0.811096	-20.823497
00497	15392212	-0.154652	-0.098146	9.800877				-0.004978	0.002231	0.003144				-0.436503	0.811742	-20.822600
00498	15392262	-0.154966	-0.081408	9.797042				-0.003019	-0.000556	-0.002619				-0.435188	0.811259	-20.822750
00499	15392312	-0.168007	-0.091391	9.800936				-0.002738	-0.000289	-0.001814				-0.435980	0.811172	-20.823270
00500	15392362	-0.135965	-0.108570	9.785695				-0.004503	-0.000525	-0.004445				-0.435097	0.810695	-20.823975
00501	15392412	-0.139427	-0.114434	9.805120				-0.007942	0.001167	-0.002024				-0.437381	0.811025	-20.824551
00502	15392462	-0.147517	-0.111217	9.804917				0.001141	0.000876	-0.000829				-0.434867	0.810957	-20.824163
00503	15392512	-0.158432	-0.101796	9.786999				-0.004414	-0.001999	-0.001086				-0.436136	0.810382	-20.824470
00504	15392562	-0.143981	-0.109755	9.780933				-0.003070	-0.004047	-0.000265				-0.434827	0.808904	-20.823936
00505	15392612	-0.163958	-0.091050	9.797570				-0.003311	0.001533	-0.004085				-0.435792	0.809334	-20.825107
00506	15392662	-0.162426	-0.119516	9.800203				-0.002728	0.000487	-0.002068				-0.434392	0.809152	-20.825116
00507	15392712	-0.157003	-0.090568	9.802810				-0.003452	-0.002082	-0.002531				-0.435391	0.808550	-20.825838
00508	15392762	-0.168956	-0.089440	9.798790				-0.003483	0.000951	-0.002865				-0.434210	0.808499	-20.826045
00509	15392812	-0.147764	-0.109831	9.797491				-0.002707	0.000942	0.000658				-0.434982	0.808770	-20.825856
00510	15392862	-0.159828	-0.093138	9.796832				-0.003933	0.000844	-0.004788				-0.433939	0.808684	-20.826632
00511	15392912	-0.157660	-0.093478	9.788910				-0.003390	0.000119	-0.001137				-0.434914	0.808716	-20.826954
00512	15392962	-0.179081	-0.071548	9.785899				-0.002313	-0.000349	0.000237				-0.433386	0.808299	-20.826279
00513	15393012	-0.142195	-0.107826	9.811366				-0.002319	0.002821	-0.001224				-0.434055	0.809104	-20.826635
00514	15393062	-0.150984	-0.073691	9.814515				-0.007435	0.002666	-0.001372				-0.434002	0.809547	-20.826424
00515	15393112	-0.129063	-0.112997	9.789254				-0.003578	0.000056	0.000912				-0.435023	0.809565	-20.826161
00516	15393162	-0.162075	-0.090991	9.804749				-0.005553	0.000267	-0.005559				-0.434446	0.809312	-20.827161
00517	15393212	-0.162477	-0.110930	9.793491				-0.004998	0.000382	-0.000973				-0.435882	0.809420	-20.827436
00518	15393262	-0.151752	-0.108141	9.785532				-0.006960	0.001536	-0.002597				-0.435697	0.809537	-20.827602
00519	15393312	-0.143344	-0.101354	9.794347				-0.003615	0.002211	-0.002665				-0.436743	0.810164	-20.828366
00520	15393362	-0.161706	-0.113838	9.783899				-0.003003	0.001291	0.000727				-0.435411	0.810218	-20.827571
00521	15393412	-0.143076	-0.104295	9.795310				-0.005105	0.003131	0.002122				-0.436865	0.811120	-20.826970
00522	15393462	-0.157727	-0.110743	9.801854				-0.004255	-0.000164	-0.004733				-0.435913	0.810745	-20.827710
00523	15393512	-0.156623	-0.092941	9.784352				-0.005268	-0.002340	-0.000508				-0.437424	0.810074	-20.827848
00524	15393562	-0.153207	-0.097219	9.773316				-0.004376	-0.000192	-0.002872				-0.436499	0.809695	-20.828045
00525	15393612	-0.145402	-0.104024	9.790048				-0.004831	0.001193	-0.000071				-0.437883	0.810037	-20.828067
00526	15393662	-0.152432	-0.106891	9.812372				-0.007164	-0.000946	-0.000110				-0.437747	0.809448	-20.827526
00527	15393712	-0.144921	-0.095746	9.808257				-0.004114	0.001916	-0.000457				-0.438927	0.809996	-20.827656
00528	15393762	-0.149552	-0.117956	9.815228				-0.002076	-0.003063	-0.001612				-0.437339	0.808798	-20.827504
00529	15393812	-0.152919	-0.098523	9.801104				-0.003216	-0.000038	0.000685				-0.438258	0.808788	-20.827304
00530	15393862	-0.149530	-0.099449	9.784801				-0.003643	0.002314	0.000280				-0.437111	0.809134	-20.826652
00531	15393912	-0.147125	-0.108610	9.804671				-0.006387	0.001746	-0.001990				-0.438949	0.809630	-20.827225
00532	15393962	-0.147416	-0.105353	9.810189				-0.005620	0.000890	0.000086				-0.438369	0.809568	-20.826607
00533	15394012	-0.143363	-0.123845	9.817369				-0.003906	0.000465	0.000402				-0.439486	0.809702	-20.826494
00534	15394062	-0.161138	-0.087997	9.792759				-0.000677	0.001626	0.000471				-0.437489	0.809851	-20.825750
00535	15394112	-0.156856	-0.102243	9.786510				-0.006194	0.001783	-0.001958				-0.439271	0.810358	-20.826310
00536	15394162	-0.144773	-0.099691	9.812091				-0.007104	-0.002891	-0.000184				-0.439117	0.809211	-20.825770
00537	15394212	-0.143004	-0.107957	9.804177				-0.003374	-0.000402	-0.003134				-0.440097	0.809089	-20.826667
00538	15394262	-0.149098	-0.100544	9.796772				-0.002818	0.001525	0.000475				-0.438713	0.809210	-20.825946
00539	15394312	-0.145858	-0.113294	9.786696				-0.006721	-0.002276	-0.003837				-0.440654	0.808549	-20.827035
00540	15394362	-0.161771	-0.095700	9.804753				-0.005893	0.000134	-0.003958				-0.440168	0.808261	-20.827587
00541	15394412	-0.144316	-0.107697	9.799864				-0.003080	0.003912	0.000420				-0.441049	0.809383	-20.827469
00542	15394462	-0.151469	-0.119617	9.795597				-0.005217	0.002149	-0.003500				-0.440368	0.809674	-20.827846
00543	15394512	-0.132357	-0.118275	9.788542				-0.003461	0.000075	-0.004286				-0.441377	0.809686	-20.829073
00544	15394562	-0.146531	-0.092685	9.801553				-0.000381	0.000498	0.000905				-0.439294	0.809513	-20.828228
00545	15394612	-0.153784	-0.097136	9.787695				-0.001694	0.001145	-0.002711				-0.439790	0.809836	-20.829004
00546	15394662	-0.159990	-0.096250	9.800909				-0.003921	-0.001677	-0.004225				-0.438740	0.809028	-20.829620
00547	15394712	-0.153407	-0.108665	9.792487				-0.004523	-0.000485	-0.001720				-0.440043	0.808886	-20.830111
00548	15394762	-0.163884	-0.093066	9.803321				-0.003729	0.000624	-0.003350				-0.438934	0.808740	-20.830470
00549	15394812	-0.159519	-0.098454	9.795627				-0.006811	-0.000370	-0.003281				-0.440899	0.808627	-20.831407
00550	15394862	-0.150815	-0.115613	9.801825				-0.003816	0.000300	-0.004280				-0.439821	0.808385	-20.832076
00551	15394912	-0.158758	-0.112128	9.801134				-0.002182	0.002891	0.001599				-0.440440	0.809217	-20.831623
00552	15394962	-0.135351	-0.127259	9.798632				-0.004125	-0.000058	-0.001202				-0.439437	0.808880	-20.831357
00553	15395012	-0.154197	-0.091828	9.798719				-0.001115	0.001027	-0.003419				-0.439770	0.809167	-20.832341
00554	15395062	-0.159215	-0.105219	9.786282				-0.001958	0.001635	0.000178				-0.438141	0.809318	-20.831702
00555	15395112	-0.145449	-0.103982	9.811852				0.000475	-0.000692	-0.003143				-0.438018	0.809113	-20.832599
00556	15395162	-0.146328	-0.099632	9.808743				-0.005824	0.002539	0.001413				-0.437491	0.809526	-20.831575
00557	15395212	-0.141748	-0.100120	9.803930				-0.004193	0.003368	-0.000833				-0.438696	0.810490	-20.831821
00558	15395262	-0.152515	-0.093751	9.801826				-0.000881	0.001877	-0.002644				-0.436770	0.810704	-20.831962
00559	15395312	-0.150743	-0.108634	9.788643				-0.006399	-0.001068	-0.001076				-0.438607	0.810396	-20.832268
00560	15395362	-0.139135	-0.097009	9.790733				-0.001828	0.003371	-0.003085				-0.436954	0.811037	-20.832542
00561	15395412	-0.142741	-0.110008	9.800817				-0.002179	-0.000697	0.000456				-0.437576	0.810838	-20.832410
00562	15395462	-0.151161	-0.106692	9.801584				-0.006065	0.002555	-0.003141				-0.437138	0.811246	-20.832714
00563	15395512	-0.137395	-0.117388	9.805343				-0.002778	-0.001938	0.000900				-0.437930	0.810693	-20.832455
00564	15395562	-0.156002	-0.076105	9.802075				-0.003111	-0.000621	-0.001337				-0.436637	0.810194	-20.832255
00565	15395612	-0.154187	-0.115997	9.808310				-0.003642	-0.000115	-0.001655				-0.437687	0.810158	-20.832730
00566	15395662	-0.144851	-0.113073	9.789086				-0.007056	0.003342	-0.005247				-0.437541	0.810787	-20.833617
00567	15395712	-0.160709	-0.099462	9.795402				-0.003072	0.001187	-0.002287				-0.438430	0.811122	-20.834275
00568	15395762	-0.161958	-0.098798	9.812656				-0.002147	-0.000575	-0.000886				-0.436860	0.810638	-20.833921
00569	15395812	-0.155055	-0.105489	9.794168				-0.008638	-0.002307	-0.003189				-0.439347	0.809970	-20.834825
00570	15395862	-0.176584	-0.090130	9.794523				-0.000435	0.002209	0.000210				-0.437282	0.810286	-20.834160
00571	15395912	-0.165135	-0.087995	9.797813				-0.002865	0.000641	-0.002934				-0.438115	0.810463	-20.835003
00572	15395962	-0.160695	-0.117714	9.791569				-0.004506	-0.000166	-0.003674				-0.437232	0.810090	-20.835467
00573	15396012	-0.163154	-0.089752	9.789424				-0.004469	0.000710	-0.003602				-0.438526	0.810285	-20.836499
00574	15396062	-0.147814	-0.094642	9.782155				-0.002186	0.000455	-0.002361				-0.436973	0.810093	-20.836589
00575	15396112	-0.157475	-0.101082	9.777405				-0.001924	0.001435	-0.001651				-0.437531	0.810501	-20.837067
00576	15396162	-0.171612	-0.091313	9.803601				-0.005975	0.002078	-0.000638				-0.437057	0.810777	-20.836618
00577	15396212	-0.147161	-0.092011	9.813304				-0.003191	0.001894	-0.003218				-0.437984	0.811313	-20.837547
00578	15396262	-0.138814	-0.099995	9.795528				-0.005098	0.001279	-0.003923				-0.437271	0.811353	-20.838035
00579	15396312	-0.153017	-0.097487	9.778102				-0.003485	0.000080	-0.001429				-0.438275	0.811373	-20.838445
00580	15396362	-0.129730	-0.104722	9.796921				-0.000704	0.000326	-0.001018				-0.436292	0.811147	-20.838134
00581	15396412	-0.150450	-0.105010	9.803253				-0.005673	0.001303	-0.002056				-0.437926	0.811516	-20.838719
00582	15396462	-0.136719	-0.095657	9.799356				-0.001263	-0.001232	0.000516				-0.436097	0.810846	-20.837985
00583	15396512	-0.151419	-0.114814	9.793441				-0.004313	-0.001460	-0.004481				-0.437351	0.810418	-20.839267
00584	15396562	-0.159383	-0.086527	9.816239				-0.003260	0.000756	-0.006685				-0.436122	0.810303	-20.840547
00585	15396612	-0.157288	-0.108057	9.799220				-0.003323	0.000218	0.000755				-0.437071	0.810368	-20.840330
00586	15396662	-0.170451	-0.090516	9.774360				-0.002307	0.000565	0.002070				-0.435535	0.810216	-20.839113
00587	15396712	-0.146415	-0.111060	9.787178				-0.002773	-0.001433	-0.005094				-0.436350	0.809795	-20.840569
00588	15396762	-0.139733	-0.107341	9.791942				-0.007466	0.003868	0.001938				-0.436292	0.810590	-20.839422
00589	15396812	-0.157599	-0.103907	9.803046				-0.006237	-0.001002	-0.001589				-0.438085	0.810299	-20.839871
00590	15396862	-0.138224	-0.099644	9.807989				-0.001995	0.003862	0.000063				-0.436468	0.811088	-20.839254
00591	15396912	-0.157548	-0.107098	9.810239				-0.004083	-0.002448	-0.002369				-0.437647	0.810382	-20.839929
00592	15396962	-0.165925	-0.085281	9.803330				-0.005078	-0.000003	0.000277				-0.436912	0.810064	-20.839249
00593	15397012	-0.145789	-0.101671	9.796047				-0.002915	0.003122	-0.005238				-0.437768	0.810947	-20.840755
00594	15397062	-0.154517	-0.103281	9.800159				-0.002687	0.000967	-0.003222				-0.436362	0.810900	-20.841084
00595	15397112	-0.137836	-0.103691	9.804394				-0.004185	0.001044	-0.000045				-0.437561	0.811199	-20.841096
00596	15397162	-0.158804	-0.102464	9.804260				-0.003043	-0.000546	0.002033				-0.436236	0.810730	-20.839899
00597	15397212	-0.148687	-0.123381	9.790310				0.000059	-0.000665	-0.002376				-0.436229	0.810534	-20.840579
00598	15397262	-0.145740	-0.119391	9.789810				-0.001908	0.001153	0.002100				-0.434579	0.810551	-20.839382
00599	15397312	-0.167433	-0.105379	9.791358				-0.000909	-0.002528	-0.002664				-0.434850	0.809821	-20.840139
00600	15397362	-0.148222	-0.106167	9.786468				-0.005975	0.001241	0.002690				-0.434362	0.809865	-20.838736
00601	15397412	-0.155634	-0.084630	9.800886				-0.004442	-0.000670	0.002709				-0.435624	0.809679	-20.837955
00602	15397462	-0.170100	-0.096879	9.809822				-0.006588	0.001030	-0.001476				-0.435329	0.809654	-20.837762
00603	15397512	-0.145915	-0.106748	9.799873				-0.005096	0.000309	-0.002998				-0.436801	0.809736	-20.838622
00604	15397562	-0.163072	-0.073607	9.788692				-0.006349	-0.000618	-0.002769				-0.436442	0.809236	-20.838790
00605	15397612	-0.123957	-0.115600	9.800011				-0.008164	0.004531	0.000915				-0.438777	0.810535	-20.838537
00606	15397662	-0.161355	-0.099262	9.775991				-0.004467	0.000908	-0.000523				-0.437870	0.810477	-20.838114
00607	15397712	-0.137152	-0.120146	9.781142				-0.003628	0.004802	-0.000409				-0.438912	0.811852	-20.838242
00608	15397762	-0.159112	-0.091809	9.791075				-0.002328	0.000904	-0.003094				-0.437403	0.811787	-20.838523
00609	15397812	-0.165489	-0.096475	9.793984				-0.003016	0.000254	-0.002426				-0.438277	0.811854	-20.839215
00610	15397862	-0.156665	-0.092412	9.802324				-0.001667	-0.002123	-0.005326				-0.436587	0.810917	-20.840135
00611	15397912	-0.173381	-0.081551	9.804566				-0.003459	-0.000758	-0.002620				-0.437589	0.810694	-20.840883
00612	15397962	-0.140994	-0.106881	9.794580				-0.004832	-0.001847	-0.000411				-0.436787	0.809847	-20.840403
00613	15398012	-0.142569	-0.102374	9.796506				-0.002437	-0.001645	-0.000834				-0.437488	0.809374	-20.840633
00614	15398062	-0.145354	-0.094997	9.810653				-0.002120	0.001361	-0.002804				-0.435918	0.809440	-20.840805
00615	15398112	-0.151924	-0.096734	9.795350				-0.002380	-0.001583	-0.002278				-0.436609	0.808982	-20.841450
00616	15398162	-0.168592	-0.078477	9.802862				-0.005489	-0.000242	-0.000074				-0.435993	0.808595	-20.840872
00617	15398212	-0.152577	-0.105821	9.796316				-0.001921	0.001502	-0.000910				-0.436547	0.809023	-20.841135
00618	15398262	-0.136657	-0.104481	9.799830				-0.004184	-0.000060	-0.001689				-0.435564	0.808685	-20.841026
00619	15398312	-0.156157	-0.097991	9.780998				-0.002696	0.001751	-0.000073				-0.436337	0.809186	-20.841048
00620	15398362	-0.163101	-0.107192	9.781747				-0.003729	-0.000638	-0.004189				-0.435234	0.808677	-20.841644
00621	15398412	-0.153585	-0.099303	9.797759				-0.003920	0.000686	-0.002898				-0.436368	0.808868	-20.842473
00622	15398462	-0.133889	-0.111289	9.779212				-0.004926	-0.005179	-0.000908				-0.435595	0.807065	-20.842099
00623	15398512	-0.141418	-0.098159	9.800571				-0.003114	-0.001619	-0.000314				-0.436488	0.806600	-20.842187
00624	15398562	-0.146285	-0.109853	9.797240				-0.004645	0.000520	0.000406				-0.435629	0.806433	-20.841433
00625	15398612	-0.170942	-0.095120	9.791372				-0.003555	-0.000500	0.001006				-0.436643	0.806292	-20.841147
00626	15398662	-0.160658	-0.105146	9.789889				-0.004306	0.004013	-0.000828				-0.435692	0.807122	-20.840789
00627	15398712	-0.157934	-0.081223	9.803292				-0.007489	0.002212	-0.001340				-0.437843	0.807753	-20.841175
00628	15398762	-0.152579	-0.119266	9.784575				-0.006071	0.000712	-0.003763				-0.437410	0.807631	-20.841655
00629	15398812	-0.151262	-0.113866	9.796073				-0.002639	0.000716	0.000016				-0.438166	0.807836	-20.841650
00630	15398862	-0.159595	-0.097373	9.811929				-0.002190	-0.001252	-0.000089				-0.436605	0.807160	-20.841063
00631	15398912	-0.165933	-0.093889	9.794942				-0.003470	-0.001237	0.001162				-0.437595	0.806808	-20.840724
00632	15398962	-0.151477	-0.101925	9.806855				-0.002663	0.001682	-0.001038				-0.436173	0.806971	-20.840409
00633	15399012	-0.152690	-0.095390	9.796553				-0.001544	0.001639	-0.001362				-0.436621	0.807437	-20.840802
00634	15399062	-0.149714	-0.104431	9.819547				-0.001418	0.002769	-0.001068				-0.434843	0.807911	-20.840503
00635	15399112	-0.148392	-0.098236	9.799651				-0.004446	0.002330	0.000895				-0.436113	0.808581	-20.840247
00636	15399162	-0.166447	-0.080563	9.801652				-0.006253	-0.001355	-0.000821				-0.435720	0.807873	-20.839888
00637	15399212	-0.154244	-0.093719	9.790334				-0.005289	-0.001729	-0.002203				-0.437244	0.807373	-20.840513
00638	15399262	-0.157492	-0.087403	9.797290				-0.003633	-0.002314	-0.001919				-0.436105	0.806389	-20.840454
00639	15399312	-0.161621	-0.097660	9.825835				-0.005019	0.001962	-0.001831				-0.437551	0.806947	-20.840982
00640	15399362	-0.160301	-0.095089	9.783649				-0.004178	0.003048	0.000196				-0.436559	0.807504	-20.840336
00641	15399412	-0.149018	-0.088611	9.808513				-0.001036	0.001710	-0.002131				-0.436865	0.807989	-20.840954
00642	15399462	-0.147843	-0.101878	9.802769				-0.005411	0.000142	-0.002549				-0.436237	0.807707	-20.841067
00643	15399512	-0.133785	-0.108636	9.810601				-0.002608	-0.000351	-0.000250				-0.436985	0.807606	-20.841138
00644	15399562	-0.147936	-0.106259	9.776643				-0.005600	0.002982	-0.004453				-0.436419	0.808133	-20.841808
00645	15399612	-0.155647	-0.091695	9.799921				-0.003745	0.001536	0.000060				-0.437492	0.808574	-20.841792
00646	15399662	-0.145663	-0.103373	9.791007				-0.006273	0.001230	-0.000614				-0.437103	0.808608	-20.841367
00647	15399712	-0.152036	-0.111834	9.800151				-0.005390	-0.000566	-0.002519				-0.438657	0.808440	-20.842083
00648	15399762	-0.135171	-0.091725	9.798859				-0.004924	0.004593	0.002193				-0.437871	0.809443	-20.840858
00649	15399812	-0.134762	-0.122391	9.792641				-0.002978	0.004458	-0.000831				-0.438728	0.810718	-20.841102
00650	15399862	-0.178959	-0.078217	9.807699				0.001303	0.000785	-0.001433				-0.436172	0.810623	-20.840902
00651	15399912	-0.144557	-0.109821	9.815691				-0.003769	0.002886	-0.005265				-0.437273	0.811438	-20.842414
00652	15399962	-0.151680	-0.100305	9.788405				-0.006133	0.002916	-0.001057				-0.436848	0.811954	-20.842126
00653	15400012	-0.153921	-0.098717	9.771638				-0.007769	0.001852	-0.002051				-0.439082	0.812481	-20.842716
00654	15400062	-0.163448	-0.097372	9.802841				-0.006852	0.002684	0.001387				-0.438851	0.812935	-20.841749
00655	15400112	-0.161653	-0.110405	9.808108				-0.005316	0.002348	-0.002279				-0.440384	0.813603	-20.842405
00656	15400162	-0.166494	-0.119332	9.812210				-0.003919	-0.001307	-0.000057				-0.439319	0.812912	-20.841797
00657	15400212	-0.165518	-0.107022	9.812197				-0.004747	0.000980	0.003194				-0.440666	0.813199	-20.840881
00658	15400262	-0.137957	-0.097259	9.801996				-0.004308	0.002144	0.000089				-0.439711	0.813497	-20.840244
00659	15400312	-0.155745	-0.107590	9.796570				-0.003365	-0.003525	0.000957				-0.440671	0.812489	-20.839963
00660	15400362	-0.147913	-0.098734	9.806358				-0.002633	0.000815	-0.000561				-0.439240	0.812404	-20.839502
00661	15400412	-0.157716	-0.084968	9.777162				-0.005787	0.001175	-0.000841				-0.440902	0.812739	-20.839739
00662	15400462	-0.149380	-0.101520	9.814751				-0.000277	0.000475	0.002544				-0.438784	0.812563	-20.838417
00663	15400512	-0.150395	-0.083421	9.792704				-0.000873	-0.000187	-0.000891				-0.439037	0.812508	-20.838673
00664	15400562	-0.148776	-0.098974	9.786712				-0.002374	0.000395	-0.002717				-0.437540	0.812298	-20.838824
00665	15400612	-0.136584	-0.100942	9.786649				-0.004429	0.001753	-0.000683				-0.438812	0.812798	-20.839018
00666	15400662	-0.146177	-0.093960	9.778306				-0.006216	0.000459	-0.000876				-0.438409	0.812611	-20.838669
00667	15400712	-0.154305	-0.085077	9.800637				-0.005084	0.001090	-0.002480				-0.439875	0.812917	-20.839382
00668	15400762	-0.167220	-0.096473	9.791118				-0.004354	0.003532	-0.001632				-0.438942	0.813609	-20.839280
00669	15400812	-0.138955	-0.103179	9.814703				-0.006633	0.002422	-0.003178				-0.440855	0.814296	-20.840194
00670	15400862	-0.163049	-0.086879	9.801636				-0.005667	0.000274	-0.001745				-0.440298	0.814053	-20.840101
00671	15400912	-0.152828	-0.125686	9.804714				-0.004514	0.000233	-0.001749				-0.441598	0.814116	-20.840604
00672	15400962	-0.153451	-0.109673	9.796805				-0.005122	0.000482	-0.000108				-0.440878	0.813937	-20.840039
00673	15401012	-0.163363	-0.109944	9.807398				-0.002812	0.003267	-0.001065				-0.441688	0.814870	-20.840350
00674	15401062	-0.154270	-0.087672	9.796801				-0.007281	0.002502	-0.005160				-0.441608	0.815258	-20.841220
00675	15401112	-0.176395	-0.097901	9.787807				-0.002128	-0.001017	-0.000414				-0.442219	0.814966	-20.841334
00676	15401162	-0.158285	-0.093674	9.802574				-0.003562	0.001807	0.000567				-0.441049	0.815168	-20.840575
00677	15401212	-0.140842	-0.096582	9.807520				-0.003605	0.002155	-0.000461				-0.442084	0.815785	-20.840713
00678	15401262	-0.159518	-0.098708	9.808090				-0.002327	-0.002027	-0.001186				-0.440568	0.814884	-20.840435
00679	15401312	-0.163685	-0.113898	9.803084				-0.003765	0.002021	-0.000648				-0.441649	0.815461	-20.840625
00680	15401362	-0.140651	-0.112171	9.811833				-0.006153	0.001395	-0.003855				-0.441240	0.815535	-20.841133
00681	15401412	-0.161941	-0.096080	9.783664				-0.003962	0.003480	0.000934				-0.442372	0.816534	-20.840871
00682	15401462	-0.164430	-0.075469	9.806196				-0.002939	0.000293	-0.000215				-0.441027	0.816301	-20.840329
00683	15401512	-0.184585	-0.085721	9.809174				-0.001163	0.001340	0.004277				-0.441343	0.816694	-20.839107
00684	15401562	-0.167190	-0.080378	9.810998				-0.002652	-0.002073	-0.004268				-0.439933	0.815774	-20.839717
00685	15401612	-0.148848	-0.097760	9.796773				-0.004027	-0.000056	-0.003708				-0.441102	0.815750	-20.840781
00686	15401662	-0.157124	-0.092571	9.815032				-0.001784	0.003219	-0.002027				-0.439433	0.816350	-20.840755
00687	15401712	-0.161831	-0.076661	9.803307				-0.004601	0.001137	-0.001391				-0.440757	0.816673	-20.841155
00688	15401762	-0.168510	-0.096174	9.786331				-0.004194	0.000306	-0.000079				-0.439771	0.816444	-20.840563
00689	15401812	-0.167710	-0.082152	9.803574				-0.001508	0.000641	-0.000375				-0.440204	0.816627	-20.840674
00690	15401862	-0.161249	-0.092341	9.789650				-0.004240	0.002115	0.002049				-0.439223	0.816920	-20.839508
00691	15401912	-0.149882	-0.084794	9.793416				0.000538	-0.000260	-0.000159				-0.439070	0.816845	-20.839555
00692	15401962	-0.151710	-0.079050	9.797744				-0.004994	0.000449	-0.000718				-0.438315	0.816655	-20.839128
00693	15402012	-0.145403	-0.104650	9.800355				-0.003662	-0.000240	-0.001849				-0.439372	0.816582	-20.839656
00694	15402062	-0.146727	-0.096713	9.794850				-0.002580	0.002043	-0.001358				-0.437929	0.816848	-20.839452
00695	15402112	-0.154458	-0.087548	9.809029				-0.003111	-0.001653	-0.002082				-0.438829	0.816370	-20.840043
00696	15402162	-0.174751	-0.096213	9.786838				-0.001699	-0.000427	-0.000025				-0.437128	0.815931	-20.839442
00697	15402212	-0.157486	-0.104241	9.783878				-0.000335	0.001590	-0.004676				-0.437243	0.816376	-20.840789
00698	15402262	-0.151494	-0.108670	9.795593				-0.003175	0.000877	0.002775				-0.435953	0.816316	-20.839385
00699	15402312	-0.155701	-0.088071	9.780991				-0.004556	-0.002517	-0.001186				-0.437263	0.815593	-20.839721
00700	15402362	-0.153309	-0.099442	9.793926				-0.004523	-0.000350	-0.001235				-0.436377	0.815172	-20.839479
00701	15402412	-0.154799	-0.108394	9.813582				0.000831	-0.000517	-0.002087				-0.436147	0.815020	-20.840077
00702	15402462	-0.159818	-0.096719	9.803539				-0.000621	0.001520	-0.004897				-0.434158	0.815128	-20.840907
00703	15402512	-0.152988	-0.092809	9.796793				-0.002847	0.002160	-0.003733				-0.434988	0.815738	-20.841977
00704	15402562	-0.156465	-0.091637	9.792020				-0.005273	-0.001175	-0.003195				-0.434324	0.815078	-20.842287
00705	15402612	-0.139679	-0.119221	9.814707				-0.003358	0.001223	-0.000882				-0.435290	0.815426	-20.842546
00706	15402662	-0.157361	-0.103860	9.803771				-0.003583	0.000215	-0.001332				-0.434134	0.815168	-20.842329
00707	15402712	-0.155895	-0.093505	9.799924				-0.007991	0.001847	-0.002469				-0.436434	0.815692	-20.843043
00708	15402762	-0.170715	-0.090265	9.805751				-0.002453	0.003208	-0.001223				-0.434954	0.816291	-20.842803
00709	15402812	-0.165226	-0.099722	9.786558				-0.004867	0.002457	-0.001799				-0.436356	0.816991	-20.843321
00710	15402862	-0.153892	-0.098012	9.809502				-0.005217	0.000386	0.000595				-0.435660	0.816786	-20.842553
00711	15402912	-0.154872	-0.096174	9.813586				-0.002986	-0.001194	-0.000441				-0.436518	0.816443	-20.842675
00712	15402962	-0.162145	-0.083211	9.784373				-0.002060	0.002927	-0.000840				-0.434924	0.816963	-20.842327
00713	15403012	-0.173643	-0.100425	9.795463				-0.003684	0.002279	-0.003920				-0.435996	0.817607	-20.843456
00714	15403062	-0.154216	-0.105657	9.798484				-0.004364	-0.000343	0.000174				-0.435057	0.817193	-20.842802
00715	15403112	-0.164662	-0.075825	9.812187				-0.002401	-0.000370	0.001804				-0.435738	0.817091	-20.842284
00716	15403162	-0.155896	-0.092559	9.810715				-0.002537	0.000749	-0.000917				-0.434280	0.816986	-20.841940
00717	15403212	-0.157658	-0.098505	9.783639				-0.000900	0.003690	-0.002122				-0.434547	0.818039	-20.842559
00718	15403262	-0.165363	-0.095707	9.799975				-0.007437	0.001865	0.001511				-0.434483	0.818260	-20.841491
00719	15403312	-0.179912	-0.089522	9.805798				-0.004525	0.001817	0.000095				-0.435779	0.818781	-20.841462
00720	15403362	-0.169825	-0.083053	9.781781				-0.002798	-0.002491	-0.002663				-0.434405	0.817744	-20.841617
00721	15403412	-0.167920	-0.072592	9.786086				-0.002401	0.000361	-0.002715				-0.435104	0.817841	-20.842391
00722	15403462	-0.143017	-0.106604	9.803454				-0.004995	-0.000717	-0.002652				-0.434357	0.817314	-20.842522
00723	15403512	-0.164503	-0.109616	9.784150				-0.003136	-0.001910	-0.002082				-0.435264	0.816762	-20.843116
00724	15403562	-0.155181	-0.089404	9.795604				-0.002094	0.001119	0.001392				-0.433670	0.816769	-20.842112
00725	15403612	-0.160797	-0.106922	9.783659				-0.002200	0.001311	0.001232				-0.434295	0.817147	-20.841755
00726	15403662	-0.142064	-0.130037	9.804902				-0.003038	0.001093	-0.003095				-0.432991	0.817137	-20.842041
00727	15403712	-0.142044	-0.090495	9.793628				-0.004853	0.002974	-0.002410				-0.434391	0.817984	-20.842736
00728	15403762	-0.127761	-0.114206	9.801949				-0.002998	0.002167	0.000630				-0.433060	0.818289	-20.841956
00729	15403812	-0.138103	-0.117186	9.790978				-0.002626	0.002199	-0.002901				-0.433824	0.818913	-20.842793
00730	15403862	-0.151255	-0.111311	9.788160				-0.000762	0.001366	0.000525				-0.431853	0.818988	-20.842043
00731	15403912	-0.145944	-0.107002	9.796037				0.002052	0.003517	-0.000275				-0.431267	0.819995	-20.842131
00732	15403962	-0.154059	-0.101315	9.795130				-0.003632	0.002994	-0.000291				-0.430121	0.820536	-20.841590
00733	15404012	-0.151513	-0.121195	9.791763				-0.005156	-0.002822	-0.001602				-0.431605	0.819724	-20.842039
00734	15404062	-0.165954	-0.094639	9.784159				-0.001325	0.000636	-0.004355				-0.429815	0.819581	-20.842722
00735	15404112	-0.135369	-0.109898	9.807255				-0.005499	-0.001209	-0.001784				-0.431398	0.819230	-20.843229
00736	15404162	-0.128703	-0.091612	9.803143				-0.003429	0.000147	-0.004192				-0.430210	0.818947	-20.843835
00737	15404212	-0.155489	-0.101656	9.812151				-0.004643	-0.001678	-0.000893				-0.431544	0.818464	-20.844087
00738	15404262	-0.158450	-0.104942	9.788922				-0.000325	-0.000473	-0.001220				-0.429454	0.818009	-20.843811
00739	15404312	-0.172241	-0.093101	9.801449				-0.005285	0.000775	0.001659				-0.430962	0.818235	-20.843334
00740	15404362	-0.166797	-0.097119	9.802133				-0.003068	0.002489	0.000796				-0.429651	0.818633	-20.842509
00741	15404412	-0.170940	-0.088526	9.801913				-0.001251	0.002711	0.000248				-0.430008	0.819410	-20.842444
00742	15404462	-0.152292	-0.089058	9.794632				-0.005884	0.001046	-0.003058				-0.429519	0.819386	-20.842711
00743	15404512	-0.145072	-0.095214	9.807301				-0.003473	-0.001110	-0.001053				-0.430518	0.819066	-20.843009
00744	15404562	-0.154765	-0.101388	9.800885				-0.002825	-0.000216	0.001933				-0.429133	0.818691	-20.841865
00745	15404612	-0.148377	-0.099629	9.827690				-0.002009	0.003315	-0.001482				-0.429714	0.819638	-20.842293
00746	15404662	-0.141760	-0.101754	9.788832				-0.002644	-0.002061	-0.000192				-0.428285	0.818730	-20.841731
00747	15404712	-0.158595	-0.107590	9.811205				-0.003815	0.001469	-0.002289				-0.429388	0.819146	-20.842389
00748	15404762	-0.142327	-0.115949	9.798189				-0.004046	-0.001770	-0.003714				-0.428375	0.818314	-20.842864
00749	15404812	-0.154193	-0.117939	9.810228				-0.005460	0.000957	-0.000557				-0.429942	0.818587	-20.843023
00750	15404862	-0.132897	-0.112993	9.798372				-0.005256	-0.000625	-0.001303				-0.429266	0.818088	-20.842793
00751	15404912	-0.164933	-0.088101	9.792068				-0.003389	0.002121	-0.004018				-0.430254	0.818687	-20.843946
00752	15404962	-0.160596	-0.099013	9.810490				-0.002559	0.001430	-0.001360				-0.428805	0.818777	-20.843701
00753	15405012	-0.163842	-0.099988	9.794928				-0.002417	0.002915	-0.002350				-0.429507	0.819607	-20.844381
00754	15405062	-0.156515	-0.094596	9.790827				-0.002947	0.002424	-0.002122				-0.428173	0.819980	-20.844405
00755	15405112	-0.145046	-0.109345	9.785974				-0.003528	0.000804	0.000721				-0.429181	0.820212	-20.844195
00756	15405162	-0.177343	-0.086409	9.801224				-0.006189	-0.000446	-0.002033				-0.428776	0.819763	-20.844164
00757	15405212	-0.170109	-0.085268	9.815815				-0.005197	0.003037	0.000710				-0.430262	0.820635	-20.843967
00758	15405262	-0.152173	-0.096726	9.791519				-0.000510	0.001337	-0.001559				-0.428228	0.820698	-20.843767
00759	15405312	-0.157713	-0.083053	9.790821				-0.003012	-0.002814	-0.002377				-0.429100	0.819887	-20.844442
00760	15405362	-0.165283	-0.093777	9.784874				-0.005980	0.001079	-0.001900				-0.428634	0.819875	-20.844390
00761	15405412	-0.160693	-0.107299	9.802588				-0.006495	0.000132	-0.000876				-0.430498	0.819911	-20.844641
00762	15405462	-0.164517	-0.112351	9.791348				-0.005279	0.000152	-0.001391				-0.429830	0.819635	-20.844467
00763	15405512	-0.145483	-0.094528	9.792446				-0.003608	-0.001212	-0.003360				-0.430877	0.819281	-20.845428
00764	15405562	-0.158901	-0.096594	9.808810				-0.002446	-0.000053	0.000007				-0.429391	0.818949	-20.844796
00765	15405612	-0.164095	-0.095084	9.811475				-0.003822	-0.001948	0.003792				-0.430471	0.818400	-20.843701
00766	15405662	-0.164428	-0.100085	9.808119				-0.008165	0.002562	-0.000153				-0.430624	0.818817	-20.843159
00767	15405712	-0.146956	-0.122503	9.798930				-0.007129	0.001629	-0.005713				-0.432690	0.819271	-20.844797
00768	15405762	-0.138514	-0.104605	9.807034				-0.003166	-0.000945	-0.001851				-0.431417	0.818680	-20.844716
00769	15405812	-0.140471	-0.114429	9.790744				-0.004791	-0.001396	-0.003297				-0.432803	0.818273	-20.845657
00770	15405862	-0.147137	-0.117852	9.794619				-0.003532	0.000802	-0.000079				-0.431629	0.818186	-20.845060
00771	15405912	-0.158989	-0.086461	9.797784				-0.003907	0.000335	-0.002260				-0.432758	0.818277	-20.845709
00772	15405962	-0.135925	-0.120066	9.795280				-0.002355	0.000422	-0.005408				-0.431268	0.818070	-20.846671
00773	15406012	-0.145409	-0.113979	9.799873				-0.006068	0.005316	0.000721				-0.433004	0.819595	-20.846476
00774	15406062	-0.157576	-0.085451	9.796819				-0.000944	-0.000031	-0.001278				-0.431093	0.819266	-20.846244
00775	15406112	-0.145985	-0.105501	9.803955				-0.006162	0.001919	-0.000995				-0.432863	0.819814	-20.846530
00776	15406162	-0.156395	-0.117946	9.799451				-0.000761	-0.000669	0.000388				-0.430893	0.819306	-20.845847
00777	15406212	-0.151838	-0.104771	9.802064				-0.004273	-0.001253	-0.001628				-0.432123	0.818944	-20.846311
00778	15406262	-0.150642	-0.102558	9.800624				-0.002939	-0.001005	-0.001629				-0.430786	0.818336	-20.846172
00779	15406312	-0.141532	-0.120347	9.781163				-0.001325	0.000776	-0.000728				-0.431169	0.818556	-20.846383
00780	15406362	-0.151591	-0.090448	9.794632				-0.005283	0.002647	0.000898				-0.430492	0.819000	-20.845502
00781	15406412	-0.126318	-0.126041	9.786847				-0.005571	0.002412	-0.001415				-0.432094	0.819688	-20.845913
00782	15406462	-0.164049	-0.098790	9.829924				0.001998	0.000084	-0.001891				-0.429344	0.819391	-20.845858
00783	15406512	-0.168301	-0.088888	9.809097				-0.001395	0.000093	0.000103				-0.429743	0.819418	-20.845826
00784	15406562	-0.169122	-0.094815	9.792088				-0.004628	0.001038	-0.000940				-0.428887	0.819397	-20.845509
00785	15406612	-0.128004	-0.108535	9.807697				-0.003112	-0.001685	-0.001575				-0.429785	0.818911	-20.845958
00786	15406662	-0.166323	-0.088301	9.792796				-0.001223	0.001448	-0.003550				-0.427964	0.819001	-20.846388
00787	15406712	-0.175390	-0.108932	9.792834				-0.004026	0.001051	-0.000556				-0.429120	0.819301	-20.846550
00788	15406762	-0.144026	-0.103624	9.808736				-0.004695	-0.002033	0.000677				-0.428277	0.818403	-20.845780
00789	15406812	-0.160345	-0.090358	9.800188				-0.005291	-0.000267	-0.000368				-0.429794	0.818326	-20.845886
00790	15406862	-0.153788	-0.118285	9.787218				-0.003677	0.000117	-0.001916				-0.428669	0.818039	-20.845797
00791	15406912	-0.146518	-0.110988	9.816418				-0.000792	0.004308	-0.001001				-0.428900	0.819271	-20.846090
00792	15406962	-0.168630	-0.110529	9.813890				-0.004448	0.002634	0.001635				-0.427982	0.819712	-20.845020
00793	15407012	-0.140026	-0.102893	9.798175				-0.004771	0.002655	0.001664				-0.429342	0.820476	-20.844545
00794	15407062	-0.148120	-0.102190	9.793418				-0.002714	0.003399	-0.000487				-0.427936	0.821132	-20.844114
00795	15407112	-0.163572	-0.095358	9.782708				-0.002617	0.002398	-0.000006				-0.428686	0.821819	-20.844120
00796	15407162	-0.138505	-0.110245	9.801761				-0.004232	0.001796	0.001369				-0.427707	0.822020	-20.843150
00797	15407212	-0.140653	-0.104254	9.780920				-0.003756	0.002599	-0.003184				-0.428796	0.822758	-20.844066
00798	15407262	-0.167054	-0.099123	9.806212				-0.004312	0.002277	0.001020				-0.427841	0.823095	-20.843168
00799	15407312	-0.151728	-0.098713	9.797991				-0.001857	0.003480	-0.001257				-0.428379	0.824090	-20.843532
00800	15407362	-0.144751	-0.111770	9.792442				-0.001749	-0.001147	-0.002280				-0.426703	0.823439	-20.843565
00801	15407412	-0.175623	-0.089768	9.803617				-0.000624	-0.001154	-0.001635				-0.426889	0.823105	-20.844035
00802	15407462	-0.150582	-0.106556	9.795830				-0.003588	-0.001593	0.000387				-0.425730	0.822333	-20.843333
00803	15407512	-0.161501	-0.103025	9.804749				-0.004559	0.001814	-0.000650				-0.427038	0.822852	-20.843520
00804	15407562	-0.145244	-0.110369	9.787893				-0.003596	-0.002765	-0.003501				-0.425897	0.821736	-20.843917
00805	15407612	-0.176450	-0.086953	9.809133				-0.005590	0.000989	-0.000773				-0.427502	0.822017	-20.844138
00806	15407662	-0.161454	-0.106741	9.794924				-0.007025	0.004070	0.000685				-0.427327	0.822868	-20.843340
00807	15407712	-0.155477	-0.105968	9.798966				-0.005921	0.001566	0.000766				-0.429020	0.823318	-20.843124
00808	15407762	-0.150305	-0.117155	9.809729				-0.003476	-0.001101	0.000325				-0.427828	0.822688	-20.842391
00809	15407812	-0.171949	-0.073077	9.795204				-0.001564	-0.001853	-0.002214				-0.428285	0.822152	-20.843024
00810	15407862	-0.138913	-0.102143	9.783303				-0.004084	-0.000449	-0.003742				-0.427285	0.821699	-20.843464
00811	15407912	-0.139733	-0.103709	9.791699				-0.003128	0.002030	-0.002481				-0.428191	0.822276	-20.844174
00812	15407962	-0.153782	-0.094582	9.788650				-0.003006	-0.001746	-0.000028				-0.426867	0.821459	-20.843531
00813	15408012	-0.137520	-0.105954	9.799840				-0.003944	-0.001271	0.002442				-0.427987	0.821100	-20.842827
00814	15408062	-0.151252	-0.090844	9.797747				-0.002097	-0.001278	-0.002240				-0.426412	0.820413	-20.842846
00815	15408112	-0.147869	-0.092369	9.806833				-0.001571	0.003777	0.000543				-0.426860	0.821496	-20.842702
00816	15408162	-0.151131	-0.090705	9.780012				-0.007605	-0.001409	-0.002422				-0.426863	0.820771	-20.842768
00817	15408212	-0.173247	-0.086368	9.787792				-0.008577	0.000294	-0.001000				-0.429324	0.820853	-20.843052
00818	15408262	-0.138981	-0.105674	9.791697				-0.006394	0.001940	-0.002728				-0.428981	0.821086	-20.843231
00819	15408312	-0.153483	-0.086167	9.788403				-0.007314	0.000764	-0.001001				-0.431081	0.821303	-20.843523
00820	15408362	-0.157834	-0.101431	9.803292				-0.002641	-0.002296	-0.002696				-0.429663	0.820323	-20.843680
00821	15408412	-0.144689	-0.104096	9.793644				-0.003137	0.000451	0.000171				-0.430561	0.820453	-20.843632
00822	15408462	-0.133191	-0.102169	9.800770				-0.006422	0.003044	-0.000639				-0.430218	0.821007	-20.843199
00823	15408512	-0.142037	-0.113663	9.802255				-0.004464	0.001884	0.000410				-0.431495	0.821548	-20.843077
00824	15408562	-0.164911	-0.100945	9.809316				-0.000304	0.002184	0.000661				-0.429395	0.821858	-20.842305
00825	15408612	-0.156521	-0.109519	9.793941				-0.000186	0.001078	-0.004096				-0.429465	0.822158	-20.843485
00826	15408662	-0.158130	-0.102145	9.802334				-0.002872	-0.000100	-0.002909				-0.428114	0.821807	-20.843703
00827	15408712	-0.149622	-0.096881	9.803255				-0.001079	0.001065	-0.001242				-0.428428	0.822109	-20.844058
00828	15408762	-0.143364	-0.121345	9.802262				-0.005663	0.001445	0.001182				-0.427861	0.822209	-20.843130
00829	15408812	-0.155261	-0.101433	9.799921				-0.004894	0.001626	0.003745				-0.429248	0.822683	-20.842056
00830	15408862	-0.144109	-0.092844	9.796995				-0.001373	0.000381	-0.001819				-0.427464	0.822472	-20.841986
00831	15408912	-0.142658	-0.103534	9.803459				-0.005218	0.003023	-0.005933				-0.428983	0.823325	-20.843692
00832	15408962	-0.154285	-0.116884	9.801842				-0.005463	-0.000881	0.000815				-0.428359	0.822759	-20.842830
00833	15409012	-0.168908	-0.091848	9.794241				-0.005678	-0.000239	0.000372				-0.429984	0.822691	-20.842722
00834	15409062	-0.151156	-0.101681	9.798703				-0.006600	-0.001387	0.001553				-0.429684	0.821980	-20.841653
00835	15409112	-0.148424	-0.114614	9.801088				-0.002898	0.000940	-0.000754				-0.430518	0.822248	-20.841869
00836	15409162	-0.146966	-0.111747	9.800604				-0.002335	-0.002263	-0.006744				-0.429029	0.821269	-20.843179
00837	15409212	-0.130318	-0.109993	9.788532				-0.004687	0.001644	-0.003541				-0.430386	0.821732	-20.844194
00838	15409262	-0.129414	-0.127434	9.799794				-0.004263	-0.000308	0.001360				-0.429417	0.821330	-20.843200
00839	15409312	-0.148884	-0.109372	9.795098				-0.003651	-0.000362	0.000844				-0.430460	0.821228	-20.842959
00840	15409362	-0.148076	-0.100852	9.801086				-0.003149	-0.000424	-0.001179				-0.429182	0.820788	-20.842690
00841	15409412	-0.163195	-0.098412	9.801404				-0.003058	0.002135	0.000599				-0.430056	0.821401	-20.842523
00842	15409462	-0.147083	-0.112855	9.806358				-0.006283	0.002115	0.004201				-0.429654	0.821699	-20.840718
00843	15409512	-0.159729	-0.093249	9.809768				-0.000780	0.000521	-0.003746				-0.429893	0.821840	-20.841797
00844	15409562	-0.151225	-0.113149	9.797752				-0.002469	-0.001573	0.000161				-0.428414	0.821073	-20.841110
00845	15409612	-0.165112	-0.093964	9.798300				-0.004639	0.001358	-0.001068				-0.429748	0.821460	-20.841414
00846	15409662	-0.164271	-0.104486	9.805722				-0.002848	-0.000844	-0.004037				-0.428395	0.820893	-20.841941
00847	15409712	-0.158989	-0.116059	9.792278				-0.004735	-0.000540	0.001714				-0.429745	0.820742	-20.841446
00848	15409762	-0.153627	-0.101899	9.801353				-0.003639	0.001893	-0.001517				-0.428609	0.820965	-20.841281
00849	15409812	-0.151370	-0.104934	9.801342				-0.003189	-0.001100	-0.000349				-0.429524	0.820649	-20.841379
00850	15409862	-0.167533	-0.097874	9.805736				-0.003846	0.003701	-0.000446				-0.428443	0.821392	-20.840924
00851	15409912	-0.140999	-0.110648	9.792665				-0.004340	0.001198	0.000957				-0.429683	0.821738	-20.840656
00852	15409962	-0.142357	-0.100157	9.790037				-0.003560	0.001731	0.000476				-0.428516	0.821918	-20.839893
00853	15410012	-0.156940	-0.104980	9.811434				-0.006253	0.000643	-0.001188				-0.430312	0.822100	-20.840231
00854	15410062	-0.141251	-0.100586	9.804652				-0.002473	0.000614	-0.001456				-0.428842	0.821956	-20.840052
00855	15410112	-0.145825	-0.105437	9.809943				-0.001236	-0.003956	-0.000168				-0.429197	0.820822	-20.840096
00856	15410162	-0.162488	-0.112671	9.787264				-0.002732	0.002871	-0.001381				-0.427800	0.821326	-20.839846
00857	15410212	-0.137235	-0.122727	9.809664				-0.004543	0.003257	-0.001793				-0.429109	0.822255	-20.840362
00858	15410262	-0.129620	-0.122493	9.812264				-0.005834	0.003459	-0.003261				-0.428610	0.822922	-20.840690
00859	15410312	-0.127895	-0.105865	9.786366				-0.004829	0.000345	0.000022				-0.429993	0.823021	-20.840686
00860	15410362	-0.174889	-0.092414	9.814880				-0.003061	0.005355	-0.000691				-0.428689	0.824237	-20.840280
00861	15410412	-0.151545	-0.097536	9.811889				-0.004154	0.001101	-0.001193				-0.429884	0.824550	-20.840623
00862	15410462	-0.147712	-0.114849	9.799170				-0.002927	0.001504	-0.004464				-0.428557	0.824655	-20.841318
00863	15410512	-0.158494	-0.092350	9.794906				-0.004715	0.003638	-0.002877				-0.429919	0.825691	-20.842148
00864	15410562	-0.159236	-0.104559	9.795637				-0.005453	0.000660	-0.001189				-0.429302	0.825561	-20.841847
00865	15410612	-0.145703	-0.105474	9.795804				-0.001113	0.001223	-0.000430				-0.429623	0.825910	-20.841979
00866	15410662	-0.152591	-0.116560	9.795599				-0.004993	-0.001561	0.001524				-0.428863	0.825150	-20.840956
00867	15410712	-0.146357	-0.086908	9.801795				-0.004389	-0.000452	-0.000044				-0.430121	0.825020	-20.840966
00868	15410762	-0.151152	-0.108342	9.798467				0.001987	0.003272	-0.004275				-0.427385	0.825632	-20.841571
00869	15410812	-0.146305	-0.124684	9.796767				-0.001270	-0.000045	-0.002167				-0.427758	0.825614	-20.842194
00870	15410862	-0.165906	-0.083429	9.789432				-0.006091	0.000548	-0.001030				-0.427323	0.825452	-20.841897
00871	15410912	-0.178301	-0.089150	9.806270				-0.000815	-0.000232	-0.002392				-0.427567	0.825380	-20.842585
00872	15410962	-0.162188	-0.110428	9.793736				-0.003748	-0.000667	-0.000463				-0.426458	0.824872	-20.842101
00873	15411012	-0.165367	-0.091540	9.794703				-0.005232	0.001989	0.000487				-0.427955	0.825443	-20.841961
00874	15411062	-0.157156	-0.099040	9.800413				-0.000203	0.000720	-0.001588				-0.425836	0.825329	-20.841817
00875	15411112	-0.146579	-0.096144	9.800123				-0.005054	0.003314	-0.000954				-0.427288	0.826277	-20.842092
00876	15411162	-0.134174	-0.114900	9.770583				-0.002222	0.000644	-0.001717				-0.425748	0.826141	-20.841960
00877	15411212	-0.161259	-0.089421	9.801391				-0.001890	-0.001509	0.000487				-0.426287	0.825710	-20.841818
00878	15411262	-0.149160	-0.106460	9.796301				-0.001993	-0.001609	-0.001600				-0.424680	0.824929	-20.841652
00879	15411312	-0.147237	-0.115392	9.808270				0.000045	0.000174	0.000715				-0.424664	0.824981	-20.841445
00880	15411362	-0.143817	-0.101537	9.804186				-0.001913	-0.001033	-0.002943				-0.423041	0.824362	-20.841673
00881	15411412	-0.159293	-0.070400	9.781237				-0.006572	-0.000762	-0.005750				-0.424947	0.824131	-20.843319
00882	15411462	-0.155354	-0.128344	9.787706				-0.004256	0.003229	-0.004040				-0.423999	0.824731	-20.843844
00883	15411512	-0.142342	-0.118097	9.783572				-0.004256	0.002325	-0.001284				-0.425224	0.825395	-20.844215
00884	15411562	-0.150786	-0.103839	9.776900				-0.003100	0.000887	-0.004465				-0.423947	0.825322	-20.844898
00885	15411612	-0.158630	-0.095109	9.790112				-0.002417	0.001676	-0.004241				-0.424657	0.825793	-20.846111
00886	15411662	-0.160495	-0.104955	9.805700				-0.005368	-0.000282	-0.003474				-0.424026	0.825388	-20.846529
00887	15411712	-0.156238	-0.108456	9.819823				-0.005332	0.000852	-0.001254				-0.425559	0.825630	-20.846888
00888	15411762	-0.153012	-0.102735	9.799910				-0.002214	-0.002224	0.001027				-0.424005	0.824678	-20.845963
00889	15411812	-0.167668	-0.096001	9.795668				-0.001869	0.000750	-0.002068				-0.424549	0.824889	-20.846557
00890	15411862	-0.159767	-0.108831	9.814570				-0.003915	0.000948	0.001473				-0.423481	0.824847	-20.845531
00891	15411912	-0.160916	-0.099184	9.790127				-0.003720	0.000594	-0.000425				-0.424548	0.825017	-20.845650
00892	15411962	-0.147543	-0.098471	9.784540				-0.001739	-0.000577	-0.004836				-0.422883	0.824525	-20.846379
00893	15412012	-0.156026	-0.117416	9.806164				-0.003076	0.001541	0.000252				-0.423763	0.824967	-20.846306
00894	15412062	-0.147491	-0.108402	9.797729				-0.004732	-0.001980	-0.001784				-0.422942	0.824079	-20.846201
00895	15412112	-0.139784	-0.121352	9.803685				-0.007465	0.000657	0.001316				-0.425075	0.824270	-20.845827
00896	15412162	-0.146269	-0.117185	9.795572				-0.006712	0.002927	-0.003229				-0.424829	0.824785	-20.846154
00897	15412212	-0.160577	-0.103469	9.790608				-0.003778	-0.001843	-0.003292				-0.425925	0.824251	-20.847094
00898	15412262	-0.138102	-0.106226	9.785940				-0.003330	0.004774	0.000909				-0.424692	0.825304	-20.846217
00899	15412312	-0.148317	-0.100856	9.798692				-0.004160	0.000292	-0.000329				-0.425885	0.825387	-20.846312
00900	15412362	-0.155886	-0.113987	9.800410				-0.001484	0.002927	-0.000900				-0.424131	0.825906	-20.845968
00901	15412412	-0.153946	-0.093736	9.801119				-0.000615	0.002781	0.000060				-0.424307	0.826703	-20.845955
00902	15412462	-0.147255	-0.095702	9.804438				-0.003247	0.000954	-0.000171				-0.423056	0.826659	-20.845432
00903	15412512	-0.144334	-0.102199	9.812568				-0.005092	-0.001661	-0.000533				-0.424517	0.826183	-20.845578
00904	15412562	-0.137342	-0.120586	9.795759				-0.004274	0.000299	0.003842				-0.423543	0.825960	-20.843912
00905	15412612	-0.154268	-0.094617	9.788897				-0.003535	-0.000051	0.001529				-0.424549	0.825948	-20.843473
00906	15412662	-0.149122	-0.111363	9.784081				-0.006038	0.001004	0.001825				-0.424089	0.825923	-20.842346
00907	15412712	-0.162173	-0.092639	9.793007				-0.004505	-0.001074	-0.001523				-0.425385	0.825612	-20.842782
00908	15412762	-0.139882	-0.092654	9.807275				-0.005784	-0.000131	-0.003637				-0.424875	0.825250	-20.843261
00909	15412812	-0.163324	-0.094781	9.783908				-0.000471	0.001998	-0.004280				-0.425028	0.825814	-20.844490
00910	15412862	-0.163444	-0.094818	9.797085				-0.003236	0.001375	-0.002380				-0.423781	0.825886	-20.844544
00911	15412912	-0.156263	-0.102430	9.819100				-0.004417	0.001555	0.001476				-0.425041	0.826334	-20.844126
00912	15412962	-0.134781	-0.117467	9.795989				-0.002045	-0.000866	-0.001436				-0.423450	0.825767	-20.843946
00913	15413012	-0.160967	-0.097889	9.801871				-0.000656	-0.001162	0.000390				-0.423636	0.825435	-20.843835
00914	15413062	-0.157256	-0.092533	9.793225				-0.002453	0.001262	0.000601				-0.422154	0.825481	-20.843075
00915	15413112	-0.140701	-0.099842	9.817104				-0.002980	0.003479	-0.002401				-0.423018	0.826473	-20.843770
00916	15413162	-0.154778	-0.096118	9.794651				-0.004002	0.000525	0.001084				-0.421977	0.826309	-20.842851
00917	15413212	-0.133827	-0.114362	9.790471				-0.005454	-0.000443	-0.000945				-0.423543	0.826180	-20.843118
00918	15413262	-0.146970	-0.096914	9.791261				-0.004543	0.002287	-0.001796				-0.422671	0.826514	-20.843035
00919	15413312	-0.133026	-0.100518	9.789265				-0.004775	0.001676	0.001794				-0.424031	0.826998	-20.842524
00920	15413362	-0.141247	-0.102211	9.801296				-0.004074	0.001548	-0.003344				-0.423030	0.827118	-20.842900
00921	15413412	-0.147848	-0.105012	9.797256				-0.000703	0.002388	-0.002000				-0.423240	0.827798	-20.843481
00922	15413462	-0.146622	-0.105592	9.801553				-0.004909	0.000569	-0.002317				-0.422474	0.827639	-20.843515
00923	15413512	-0.141394	-0.107657	9.796980				-0.004999	0.002539	-0.001184				-0.423911	0.828364	-20.843857
00924	15413562	-0.135298	-0.131928	9.778021				-0.004029	0.006041	-0.004791				-0.422903	0.829768	-20.844657
00925	15413612	-0.145804	-0.096863	9.807305				-0.002400	0.000323	-0.000366				-0.423592	0.829859	-20.844762
00926	15413662	-0.147859	-0.102973	9.802045				-0.001234	0.001053	-0.001777				-0.421770	0.829841	-20.844663
00927	15413712	-0.155712	-0.075569	9.803276				-0.003413	-0.001218	-0.003544				-0.422763	0.829484	-20.845677
00928	15413762	-0.157885	-0.109019	9.815274				-0.002068	0.000405	0.005183				-0.421151	0.829295	-20.843577
00929	15413812	-0.163680	-0.104051	9.780319				-0.003915	0.000713	-0.001034				-0.422277	0.829497	-20.843872
00930	15413862	-0.140051	-0.097935	9.800330				-0.004966	0.001112	-0.004364				-0.421535	0.829489	-20.844508
00931	15413912	-0.161761	-0.078453	9.794202				-0.004631	0.003393	0.000588				-0.422859	0.830463	-20.844346
00932	15413962	-0.148746	-0.100891	9.793428				-0.007167	-0.000763	0.000150				-0.422729	0.829927	-20.843688
00933	15414012	-0.155675	-0.103143	9.815511				-0.006962	-0.003380	-0.001308				-0.424729	0.828956	-20.844053
00934	15414062	-0.157179	-0.117160	9.801851				-0.001903	-0.001450	-0.002272				-0.423101	0.828219	-20.844102
00935	15414112	-0.147235	-0.096395	9.788858				-0.004523	0.003843	-0.001112				-0.424401	0.829318	-20.844426
00936	15414162	-0.147703	-0.110964	9.792218				-0.004140	0.000580	-0.002513				-0.423415	0.829162	-20.844525
00937	15414212	-0.154293	-0.112086	9.798245				-0.005574	-0.002837	-0.001883				-0.425019	0.828346	-20.845055
00938	15414262	-0.148891	-0.095358	9.796534				-0.002206	0.001458	-0.000428				-0.423472	0.828445	-20.844582
00939	15414312	-0.146142	-0.093117	9.776152				-0.004629	0.001325	0.002982				-0.424786	0.828831	-20.843723
00940	15414362	-0.162616	-0.086004	9.806669				-0.005890	0.000392	0.000634				-0.424288	0.828628	-20.842927
00941	15414412	-0.153366	-0.094814	9.798474				-0.005929	-0.001648	-0.001299				-0.425992	0.828153	-20.843296
00942	15414462	-0.142251	-0.117623	9.808248				-0.006714	0.000022	-0.001065				-0.425738	0.827840	-20.843000
00943	15414512	-0.163808	-0.093023	9.788944				-0.002939	-0.000851	-0.001042				-0.426584	0.827594	-20.843297
00944	15414562	-0.137116	-0.091403	9.805581				-0.006288	0.000773	-0.000325				-0.426205	0.827498	-20.842782
00945	15414612	-0.151603	-0.106570	9.800150				-0.002619	0.000227	0.000690				-0.426953	0.827564	-20.842585
00946	15414662	-0.151152	-0.109566	9.808059				-0.004052	0.000777	-0.002673				-0.425942	0.827465	-20.842745
00947	15414712	-0.154760	-0.104241	9.797525				-0.002868	0.002456	0.002440				-0.426754	0.828173	-20.842051
00948	15414762	-0.148563	-0.101533	9.795583				-0.003990	0.000676	-0.004470				-0.425733	0.828041	-20.842705
00949	15414812	-0.149273	-0.111319	9.784078				-0.003006	-0.001118	-0.004675				-0.426614	0.827710	-20.844046
00950	15414862	-0.155965	-0.106380	9.805676				-0.000753	0.001965	-0.002766				-0.424660	0.827951	-20.844261
00951	15414912	-0.164625	-0.103450	9.811954				-0.005677	0.003787	-0.001107				-0.426291	0.829033	-20.844581
00952	15414962	-0.157821	-0.120727	9.801621				-0.003908	-0.000711	-0.002099				-0.425237	0.828509	-20.844581
00953	15415012	-0.158326	-0.105864	9.800177				0.000316	0.001497	-0.003418				-0.425161	0.828930	-20.845560
00954	15415062	-0.134648	-0.106661	9.795269				-0.004296	0.000615	0.000373				-0.424208	0.828791	-20.844828
00955	15415112	-0.153941	-0.120126	9.801600				-0.003250	-0.002278	-0.001212				-0.425144	0.828136	-20.845170
00956	15415162	-0.154777	-0.101221	9.803031				-0.001477	-0.000767	-0.004229				-0.423403	0.827590	-20.845793
00957	15415212	-0.151585	-0.089062	9.799190				-0.003763	0.000881	-0.001102				-0.424486	0.827840	-20.846107
00958	15415262	-0.151808	-0.104426	9.798474				-0.005139	-0.000310	-0.002544				-0.423787	0.827429	-20.846242
00959	15415312	-0.132133	-0.126197	9.794303				-0.005326	0.002857	-0.001504				-0.425319	0.828244	-20.846679
00960	15415362	-0.161484	-0.094983	9.790850				-0.003348	0.000957	-0.001130				-0.424102	0.828199	-20.846365
00961	15415412	-0.139149	-0.106262	9.800807				-0.005585	-0.003484	-0.001052				-0.425706	0.827199	-20.846657
00962	15415462	-0.143425	-0.110096	9.798194				-0.006021	-0.000713	-0.002707				-0.425260	0.826672	-20.846843
00963	15415512	-0.159480	-0.103768	9.807377				-0.004476	-0.001039	-0.001873				-0.426550	0.826371	-20.847375
00964	15415562	-0.141942	-0.120963	9.804653				-0.000108	0.002017	0.000791				-0.424397	0.826633	-20.846569
00965	15415612	-0.165804	-0.093467	9.799497				-0.003473	0.000982	-0.000906				-0.425396	0.826913	-20.846831
00966	15415662	-0.157660	-0.112364	9.799457				-0.002256	-0.001230	-0.001977				-0.423870	0.826239	-20.846812
00967	15415712	-0.154245	-0.096739	9.783620				-0.006273	0.001024	-0.003336				-0.425680	0.826526	-20.847763
00968	15415762	-0.157351	-0.100035	9.800653				-0.005133	-0.002003	-0.006916				-0.424998	0.825620	-20.849107
00969	15415812	-0.141842	-0.110950	9.798655				-0.003073	0.001212	-0.002192				-0.425887	0.825963	-20.849740
00970	15415862	-0.158323	-0.103497	9.792272				-0.006173	0.002161	-0.002818				-0.425486	0.826259	-20.849923
00971	15415912	-0.141176	-0.105331	9.804408				-0.003549	0.001071	-0.003602				-0.426518	0.826558	-20.850952
00972	15415962	-0.169002	-0.106433	9.796880				-0.001432	0.001147	-0.001295				-0.424753	0.826568	-20.850732
00973	15416012	-0.148547	-0.109192	9.799894				-0.003676	0.003372	-0.000443				-0.425808	0.827533	-20.850866
00974	15416062	-0.156109	-0.088646	9.802320				-0.001948	0.000066	-0.002069				-0.424193	0.827231	-20.850843
00975	15416112	-0.153665	-0.114370	9.798484				-0.001630	0.002275	-0.002729				-0.424671	0.827877	-20.851624
00976	15416162	-0.144109	-0.112659	9.787405				-0.001325	0.001865	0.000373				-0.422868	0.828095	-20.850879
00977	15416212	-0.160392	-0.096923	9.786046				-0.002506	-0.001624	-0.003131				-0.423599	0.827623	-20.851771
00978	15416262	-0.161500	-0.105305	9.789646				-0.000561	-0.000095	0.000172				-0.421579	0.827279	-20.851127
00979	15416312	-0.147806	-0.105044	9.796294				-0.003532	-0.000243	-0.000466				-0.422592	0.827208	-20.851260
00980	15416362	-0.161616	-0.090270	9.778142				-0.005230	-0.001671	-0.002585				-0.421920	0.826408	-20.851370
00981	15416412	-0.139445	-0.115629	9.775883				-0.004780	-0.000523	-0.000944				-0.423293	0.826256	-20.851638
00982	15416462	-0.130865	-0.113067	9.808907				-0.000646	-0.000256	0.000909				-0.421294	0.825868	-20.850769
00983	15416512	-0.135019	-0.117701	9.795988				-0.005418	0.001496	-0.000899				-0.422850	0.826295	-20.851027
00984	15416562	-0.147355	-0.111788	9.792699				-0.008010	-0.003049	-0.003996				-0.422980	0.825096	-20.851552
00985	15416612	-0.164857	-0.110154	9.793982				-0.004001	0.001591	0.000447				-0.424125	0.825553	-20.851430
00986	15416662	-0.146917	-0.117503	9.785270				-0.004824	0.002022	-0.002246				-0.423336	0.825811	-20.851468
00987	15416712	-0.167926	-0.091381	9.791356				-0.009824	0.000723	0.005914				-0.426126	0.826031	-20.849774
00988	15416762	-0.149944	-0.107513	9.795582				-0.005097	0.001697	-0.001475				-0.425411	0.826197	-20.849594
00989	15416812	-0.144146	-0.110298	9.799390				-0.004020	-0.000323	-0.003543				-0.426578	0.826097	-20.850609
00990	15416862	-0.151654	-0.106171	9.801106				-0.004768	0.002185	-0.001920				-0.425771	0.826402	-20.850535
00991	15416912	-0.161548	-0.104762	9.781746				-0.003891	0.000942	-0.000938				-0.426890	0.826670	-20.850803
00992	15416962	-0.170624	-0.087330	9.803345				0.000526	-0.000919	0.000296				-0.424558	0.826090	-20.850082
00993	15417012	-0.159779	-0.106517	9.788446				-0.003724	0.005694	-0.003733				-0.425640	0.827713	-20.851162
00994	15417062	-0.155267	-0.103899	9.805918				-0.004974	0.002567	-0.003941				-0.424901	0.828124	-20.851690
00995	15417112	-0.157588	-0.103383	9.799459				-0.005966	-0.000186	0.001760				-0.426603	0.828075	-20.851180
00996	15417162	-0.160555	-0.107597	9.792284				-0.004943	-0.000307	-0.001069				-0.425843	0.827668	-20.850845
00997	15417212	-0.142913	-0.100981	9.814002				-0.002859	-0.000630	-0.003740				-0.426678	0.827479	-20.851914
00998	15417262	-0.150312	-0.115650	9.799182				-0.007061	0.000826	0.000353				-0.426519	0.827400	-20.851245
00999	15417312	-0.153171	-0.112274	9.796322				-0.004462	0.000707	-0.001705				-0.427804	0.827599	-20.851728
01000	15417362	-0.160956	-0.101046	9.797803				-0.005839	0.000417	-0.004625				-0.427316	0.827392	-20.852437
01001	15417412	-0.137495	-0.119553	9.790495				-0.003794	-0.002386	-0.002400				-0.428413	0.826703	-20.853117
01002	15417462	-0.155891	-0.097783	9.811434				-0.003476	0.003119	-0.001343				-0.427235	0.827277	-20.852907
01003	15417512	-0.152949	-0.101662	9.802547				-0.003672	-0.005260	-0.001322				-0.428292	0.825768	-20.853273
01004	15417562	-0.145634	-0.103820	9.794609				-0.002360	-0.000037	-0.003351				-0.426801	0.825433	-20.853623
01005	15417612	-0.158591	-0.113462	9.803783				-0.007315	-0.002413	-0.001748				-0.428904	0.824738	-20.854117
01006	15417662	-0.156084	-0.104743	9.790098				-0.006522	-0.000207	-0.004276				-0.428610	0.824353	-20.854708
01007	15417712	-0.136988	-0.086203	9.781857				-0.003639	0.001241	0.000380				-0.429651	0.824710	-20.854600
01008	15417762	-0.172899	-0.091499	9.800493				-0.005355	-0.003675	-0.002527				-0.429015	0.823335	-20.854724
01009	15417812	-0.153234	-0.094964	9.795835				-0.003862	0.002338	0.001283				-0.430117	0.824007	-20.854363
01010	15417862	-0.140150	-0.113649	9.808956				-0.002340	-0.000452	-0.000598				-0.428609	0.823560	-20.853894
01011	15417912	-0.156686	-0.091126	9.781234				-0.002639	0.001836	-0.002185				-0.429374	0.824081	-20.854528
01012	15417962	-0.156560	-0.102636	9.808798				0.000793	0.002702	-0.002062				-0.426976	0.824534	-20.854525
01013	15418012	-0.158080	-0.100946	9.799462				-0.000831	-0.000717	-0.001884				-0.427222	0.824325	-20.855064
01014	15418062	-0.175599	-0.108719	9.795470				-0.003820	0.001621	-0.002154				-0.426146	0.824468	-20.855043
01015	15418112	-0.152232	-0.091929	9.800864				-0.005659	0.001138	-0.001571				-0.427773	0.824791	-20.855494
01016	15418162	-0.161793	-0.096536	9.789890				-0.001200	0.002926	-0.003084				-0.425950	0.825305	-20.855755
01017	15418212	-0.141839	-0.101687	9.798902				-0.002535	-0.002588	-0.000573				-0.426679	0.824563	-20.855914
01018	15418262	-0.137425	-0.119759	9.803204				-0.003921	0.000746	-0.001553				-0.425629	0.824457	-20.855760
01019	15418312	-0.146655	-0.116633	9.793900				-0.003855	0.000556	-0.002318				-0.426743	0.824611	-20.856422
01020	15418362	-0.155924	-0.092386	9.812148				-0.002927	0.000700	-0.003765				-0.425418	0.824486	-20.856926
01021	15418412	-0.130937	-0.116692	9.800521				-0.009739	-0.001715	-0.000938				-0.428212	0.823993	-20.857194
01022	15418462	-0.158195	-0.089131	9.784604				-0.004353	0.001190	-0.002766				-0.427291	0.824011	-20.857361
01023	15418512	-0.155766	-0.114702	9.796095				-0.004096	0.001128	-0.003179				-0.428477	0.824328	-20.858277
01024	15418562	-0.167309	-0.094173	9.803574				0.000683	0.002054	-0.003285				-0.426115	0.824593	-20.858586
01025	15418612	-0.136682	-0.116966	9.781379				-0.001624	0.002152	0.000503				-0.426579	0.825210	-20.858450
01026	15418662	-0.170527	-0.104360	9.818218				-0.005217	0.000405	0.000832				-0.425890	0.825011	-20.857570
01027	15418712	-0.171731	-0.085920	9.811750				-0.002940	0.002055	-0.003915				-0.426748	0.825592	-20.858694
01028	15418762	-0.153571	-0.067655	9.810694				-0.004098	-0.000484	-0.000655				-0.425746	0.825135	-20.858236
01029	15418812	-0.160334	-0.093793	9.791803				-0.004271	0.002944	0.000294				-0.426969	0.825979	-20.858157
01030	15418862	-0.160064	-0.082013	9.812405				-0.004764	0.001185	-0.001602				-0.426161	0.825999	-20.857990
01031	15418912	-0.158309	-0.091658	9.805929				-0.004840	0.002542	-0.002110				-0.427556	0.826723	-20.858595
01032	15418962	-0.145611	-0.117292	9.788852				-0.004105	-0.001752	-0.003775				-0.426568	0.825896	-20.859076
01033	15419012	-0.145843	-0.084011	9.801308				-0.002370	-0.002487	0.000775				-0.427244	0.825185	-20.858845
01034	15419062	-0.160460	-0.098407	9.799951				-0.005200	-0.001315	-0.002006				-0.426563	0.824487	-20.858798
01035	15419112	-0.156230	-0.105266	9.800651				-0.002159	0.003143	0.000963				-0.427177	0.825389	-20.858528
01036	15419162	-0.164053	-0.089283	9.789900				-0.004098	-0.001911	-0.003002				-0.426184	0.824519	-20.858766
01037	15419212	-0.165764	-0.122589	9.809333				-0.006269	0.002362	0.000136				-0.427980	0.825196	-20.858732
01038	15419262	-0.139664	-0.103090	9.785708				-0.002199	0.000198	-0.000082				-0.426432	0.824936	-20.858159
01039	15419312	-0.164026	-0.101622	9.791342				-0.004637	0.002320	-0.000571				-0.427763	0.825599	-20.858322
01040	15419362	-0.149177	-0.097052	9.780719				-0.003511	-0.000954	0.000492				-0.426587	0.825010	-20.857565
01041	15419412	-0.155265	-0.101945	9.802801				-0.004126	0.001231	-0.002473				-0.427780	0.825358	-20.858274
01042	15419462	-0.150781	-0.111179	9.789359				-0.003826	-0.001094	-0.000019				-0.426697	0.824727	-20.857689
01043	15419512	-0.152955	-0.110234	9.800628				-0.008272	-0.000688	-0.002953				-0.429079	0.824524	-20.858537
01044	15419562	-0.145569	-0.111219	9.797244				-0.003814	0.001022	0.004904				-0.427972	0.824511	-20.856516
01045	15419612	-0.165274	-0.100210	9.791586				-0.001996	0.003891	-0.001115				-0.428548	0.825623	-20.856839
01046	15419662	-0.163183	-0.105525	9.812906				-0.003399	0.003764	-0.001372				-0.427349	0.826382	-20.856625
01047	15419712	-0.148873	-0.097133	9.805166				-0.002787	0.000381	-0.002161				-0.428156	0.826487	-20.857247
01048	15419762	-0.150299	-0.106062	9.808290				-0.005779	0.001815	-0.001441				-0.427639	0.826687	-20.857049
01049	15419812	-0.142169	-0.110225	9.788593				-0.007889	-0.000456	-0.001963				-0.429907	0.826552	-20.857608
01050	15419862	-0.154979	-0.092565	9.805222				-0.002187	0.000655	-0.001071				-0.428359	0.826421	-20.857285
01051	15419912	-0.153908	-0.108992	9.805036				-0.006048	0.001138	-0.002350				-0.430101	0.826742	-20.857957
01052	15419962	-0.155760	-0.108677	9.805283				-0.002488	-0.001002	-0.002497				-0.428645	0.826133	-20.858064
01053	15420012	-0.143558	-0.102665	9.810970				-0.002127	0.001786	-0.003541				-0.429269	0.826637	-20.859085
01054	15420062	-0.169638	-0.089566	9.796726				-0.004179	0.004019	-0.000733				-0.428290	0.827471	-20.858678
01055	15420112	-0.143737	-0.106658	9.819839				-0.004442	-0.000294	-0.004606				-0.429582	0.827377	-20.859996
01056	15420162	-0.164641	-0.110404	9.799339				-0.003649	0.004446	-0.000828				-0.428451	0.828332	-20.859636
01057	15420212	-0.149266	-0.114172	9.812209				-0.001732	-0.002696	-0.000905				-0.428951	0.827558	-20.859891
01058	15420262	-0.141933	-0.108999	9.799701				-0.004390	0.000722	0.002102				-0.428021	0.827453	-20.858664
01059	15420312	-0.170493	-0.087879	9.794085				-0.005974	-0.001121	0.000722				-0.429729	0.827134	-20.858453
01060	15420362	-0.160100	-0.102873	9.802185				-0.004748	-0.001358	-0.000539				-0.428913	0.826427	-20.858007
01061	15420412	-0.163749	-0.088952	9.810593				-0.004820	0.001869	-0.001706				-0.430301	0.826959	-20.858493
01062	15420462	-0.153136	-0.111161	9.795917				-0.001439	0.002151	-0.004604				-0.428554	0.827249	-20.859198
01063	15420512	-0.149888	-0.073693	9.790859				0.000035	-0.002464	0.001790				-0.428536	0.826547	-20.858680
01064	15420562	-0.175595	-0.099092	9.793882				-0.003999	0.001238	-0.002190				-0.427512	0.826580	-20.858698
01065	15420612	-0.157119	-0.096187	9.798822				-0.007752	0.000265	-0.003470				-0.429747	0.826649	-20.859688
01066	15420662	-0.127938	-0.106194	9.789086				-0.001746	0.004127	-0.000389				-0.428071	0.827514	-20.859190
01067	15420712	-0.140423	-0.091073	9.780286				-0.003854	0.001860	0.000986				-0.429171	0.828049	-20.858911
01068	15420762	-0.160085	-0.094996	9.810570				-0.000096	0.000502	-0.000763				-0.427023	0.827875	-20.858541
01069	15420812	-0.141878	-0.106578	9.814080				-0.003760	0.001857	-0.001166				-0.428105	0.828404	-20.858875
01070	15420862	-0.151394	-0.112959	9.796157				-0.002351	0.000884	-0.000758				-0.426604	0.828339	-20.858478
01071	15420912	-0.168913	-0.066951	9.807497				-0.003566	-0.001374	-0.002175				-0.427634	0.827941	-20.859101
01072	15420962	-0.157063	-0.094117	9.793542				-0.005765	-0.000538	0.000014				-0.427107	0.827470	-20.858514
01073	15421012	-0.171213	-0.103708	9.817815				-0.003747	0.000569	0.000051				-0.428180	0.827634	-20.858503
01074	15421062	-0.163541	-0.090025	9.785433				-0.004746	-0.000322	-0.000272				-0.427362	0.827224	-20.857952
01075	15421112	-0.167571	-0.083606	9.811093				-0.003748	0.000371	-0.002585				-0.428447	0.827325	-20.858695
01076	15421162	-0.160564	-0.082788	9.778701				-0.005159	-0.004187	-0.005294				-0.427768	0.825798	-20.859577
01077	15421212	-0.155445	-0.099661	9.816068				-0.003498	-0.002600	-0.001732				-0.428777	0.825050	-20.860070
01078	15421262	-0.165951	-0.102787	9.778972				-0.005596	0.000308	0.000534				-0.428199	0.824823	-20.859292
01079	15421312	-0.158007	-0.099473	9.802895				-0.003711	-0.000920	-0.001467				-0.429268	0.824556	-20.859709
01080	15421362	-0.157169	-0.098948	9.800732				-0.004596	0.002909	-0.002216				-0.428415	0.825069	-20.859731
01081	15421412	-0.152916	-0.100334	9.791121				-0.001291	-0.000459	-0.001828				-0.428793	0.824933	-20.860250
01082	15421462	-0.168934	-0.095514	9.795281				-0.004978	-0.002974	0.002217				-0.428031	0.823769	-20.859011
01083	15421512	-0.157744	-0.073816	9.782030				-0.004160	0.000467	0.001302				-0.429217	0.823906	-20.858637
01084	15421562	-0.156432	-0.090924	9.793059				-0.001757	0.000479	0.002164				-0.427533	0.823732	-20.857392
01085	15421612	-0.161087	-0.101919	9.806511				-0.003563	0.000272	-0.004894				-0.428574	0.823799	-20.858793
01086	15421662	-0.146048	-0.082437	9.805224				-0.001679	-0.000779	0.002766				-0.426864	0.823266	-20.857362
01087	15421712	-0.151581	-0.090635	9.801902				-0.005773	0.002092	0.003528				-0.428504	0.823873	-20.856352
01088	15421762	-0.141770	-0.102260	9.795384				-0.004241	0.000617	-0.003190				-0.427553	0.823727	-20.856630
01089	15421812	-0.149235	-0.100414	9.796624				-0.004017	0.000721	-0.003351				-0.428717	0.823926	-20.857590
01090	15421862	-0.171508	-0.092998	9.813507				-0.007481	-0.000215	-0.003345				-0.428696	0.823541	-20.857941
01091	15421912	-0.148910	-0.118466	9.780085				-0.005601	0.001115	-0.002895				-0.430312	0.823854	-20.858773
01092	15421962	-0.143228	-0.106059	9.796107				-0.002465	0.001296	-0.001847				-0.428848	0.823906	-20.858694
01093	15422012	-0.142683	-0.100716	9.804017				-0.001539	-0.004727	-0.000504				-0.429291	0.822550	-20.858830
01094	15422062	-0.158571	-0.104996	9.790201				-0.005144	-0.002305	-0.002915				-0.428598	0.821567	-20.859033
