// General information: 
//  MT Manager version: 2022.0.0 
//  XDA version: 2022.0.0 build 7085 rev 119802 built on 2022-11-08
// Device information: 
//  DeviceId: 037004D1
//  ProductCode: MTi-300-2A5G4
//  Firmware Version: 1.4.1
//  Hardware Version: 2.1.0
// Device settings: 
//  Filter Profile: general(39.16)
//  Option Flags: Orientation Smoother Disabled, Position/Velocity Smoother Disabled, Continuous Zero Rotation Update Disabled, AHS Disabled, ICC Disabled
// Coordinate system: ENU
PacketCounter	SampleTimeFine	Acc_X	Acc_Y	Acc_Z	AccHR_X	AccHR_Y	AccHR_Z	Gyr_X	Gyr_Y	Gyr_Z	GyrHR_X	GyrHR_Y	GyrHR_Z	Roll	Pitch	Yaw
00001	938274	9.820864	0.158403	0.215056				-0.004929	-0.000504	0.000338				36.034705	-88.231069	-167.862026
00002	938324	9.829285	0.145899	0.189243				-0.006358	0.005027	-0.002641				36.025068	-88.229597	-167.854263
00003	938374	9.809843	0.159896	0.222638				-0.003142	0.002627	-0.003205				36.019433	-88.228730	-167.847190
00004	938424	9.815054	0.145968	0.217487				-0.004485	-0.000592	-0.000265				36.023409	-88.228654	-167.852390
00005	938474	9.820736	0.172894	0.206410				-0.004614	-0.001899	-0.005953				36.062119	-88.228888	-167.890287
00006	938524	9.814724	0.172179	0.218211				-0.003713	0.000057	-0.005175				36.099400	-88.228290	-167.928765
00007	938574	9.812477	0.203956	0.209574				-0.002773	-0.001017	-0.002101				36.105036	-88.229026	-167.933056
00008	938624	9.806327	0.185861	0.200273				-0.004861	0.000941	-0.006225				36.145259	-88.227502	-167.974593
00009	938674	9.802072	0.186316	0.194431				-0.003743	-0.003985	-0.005003				36.188169	-88.228498	-168.016529
00010	938724	9.799891	0.197648	0.177261				-0.002522	-0.000983	-0.003801				36.221158	-88.228183	-168.050293
00011	938774	9.814855	0.201041	0.175674				-0.003029	-0.004259	-0.003720				36.256765	-88.229095	-168.084534
00012	938824	9.822493	0.223585	0.166641				-0.006222	-0.000603	-0.006168				36.304300	-88.228135	-168.133859
00013	938874	9.796824	0.230490	0.183371				-0.005023	0.002497	-0.002785				36.295349	-88.227532	-168.124039
00014	938924	9.797349	0.219266	0.198905				-0.004897	0.001501	-0.000221				36.287249	-88.227451	-168.117456
00015	938974	9.820552	0.198901	0.182206				-0.004878	-0.000850	0.004254				36.243812	-88.229175	-168.073260
00016	939024	9.825323	0.198310	0.183464				-0.005413	0.001782	-0.000221				36.234065	-88.228810	-168.065095
00017	939074	9.815825	0.180760	0.175986				-0.003052	-0.001248	-0.000566				36.229571	-88.229755	-168.059312
00018	939124	9.810884	0.170481	0.186642				-0.003792	0.001205	0.003297				36.197034	-88.230139	-168.027886
00019	939174	9.801789	0.169040	0.197732				-0.000025	0.002757	0.003106				36.144292	-88.230329	-167.972799
00020	939224	9.824049	0.151357	0.215830				-0.002737	0.003960	-0.002942				36.144014	-88.228762	-167.973241
00021	939274	9.845745	0.171638	0.206970				-0.005487	-0.000092	0.000569				36.123575	-88.230034	-167.952352
00022	939324	9.817300	0.140159	0.212500				-0.003431	0.002689	-0.000513				36.111844	-88.229296	-167.941582
00023	939374	9.816788	0.145700	0.207907				-0.002109	0.001158	-0.002830				36.111108	-88.229306	-167.939267
00024	939424	9.831901	0.149657	0.220260				-0.003473	-0.000057	0.000209				36.108809	-88.229357	-167.937960
00025	939474	9.818389	0.163732	0.219824				-0.003835	-0.001711	-0.000118				36.103360	-88.230296	-167.931339
00026	939524	9.837770	0.158912	0.214714				-0.003418	-0.001030	-0.002103				36.123895	-88.230010	-167.952796
00027	939574	9.800289	0.169948	0.207957				-0.004826	0.000173	-0.002860				36.127857	-88.230627	-167.956133
00028	939624	9.830967	0.170474	0.214044				-0.005195	-0.000581	-0.005048				36.167393	-88.229723	-167.997101
00029	939674	9.811131	0.199136	0.204767				-0.003979	-0.002501	-0.004518				36.199216	-88.230321	-168.027904
00030	939724	9.830280	0.193950	0.199676				-0.005090	0.001231	-0.004715				36.226341	-88.229187	-168.056481
00031	939774	9.845985	0.194832	0.199879				-0.001338	0.001267	-0.002900				36.225997	-88.228995	-168.054300
00032	939824	9.791924	0.206351	0.175602				-0.005471	-0.002649	-0.000758				36.244495	-88.229526	-168.074392
00033	939874	9.803639	0.209638	0.185901				0.000829	-0.001252	-0.001340				36.246995	-88.230280	-168.074462
00034	939924	9.802025	0.209279	0.167723				-0.005054	-0.001254	0.001375				36.241958	-88.230881	-168.070903
00035	939974	9.829559	0.204016	0.193024				-0.002136	-0.001559	0.001036				36.227530	-88.231997	-168.054828
00036	940024	9.823094	0.194231	0.180155				-0.004366	0.000047	-0.001004				36.233565	-88.231737	-168.062089
00037	940074	9.802676	0.185722	0.186544				-0.001763	0.001070	0.002692				36.192339	-88.233038	-168.019301
00038	940124	9.785507	0.211634	0.177745				-0.006758	0.002749	-0.002511				36.194237	-88.231721	-168.023037
00039	940174	9.821858	0.189145	0.198613				-0.003743	-0.000423	-0.000681				36.185497	-88.232457	-168.013225
00040	940224	9.820898	0.184233	0.208984				-0.004402	0.003542	0.002195				36.148316	-88.232113	-167.977322
00041	940274	9.831936	0.180189	0.204129				-0.005939	0.002284	-0.000341				36.122043	-88.231993	-167.950444
00042	940324	9.800751	0.167395	0.188719				-0.007544	0.001579	0.001232				36.102012	-88.231700	-167.932509
00043	940374	9.811975	0.134937	0.211210				-0.005651	0.003421	0.000885				36.060036	-88.231968	-167.890000
00044	940424	9.832338	0.165229	0.206539				-0.003453	0.000612	-0.001063				36.063646	-88.231692	-167.894617
00045	940474	9.816032	0.149794	0.219017				-0.002238	0.001799	-0.000030				36.038584	-88.231972	-167.867983
00046	940524	9.814932	0.160488	0.220508				-0.003497	0.002232	0.001737				36.012354	-88.231663	-167.842706
00047	940574	9.797509	0.169240	0.209048				-0.006624	0.000721	-0.000409				35.994776	-88.232137	-167.824832
00048	940624	9.822135	0.179465	0.211354				-0.004901	0.002718	-0.002170				35.994919	-88.231022	-167.826331
00049	940674	9.820810	0.184808	0.223067				-0.004128	0.001465	-0.003204				35.994904	-88.231019	-167.825347
00050	940724	9.814362	0.186611	0.221177				-0.004287	-0.000437	-0.001420				36.006728	-88.230724	-167.838345
00051	940774	9.825395	0.169554	0.204527				-0.004447	-0.001708	-0.003348				36.024616	-88.231681	-167.855475
00052	940824	9.833273	0.195460	0.187566				-0.003790	0.000958	-0.002729				36.038602	-88.231090	-167.870591
00053	940874	9.802886	0.208130	0.185499				-0.004377	0.000273	-0.001477				36.032677	-88.231029	-167.863522
00054	940924	9.824842	0.208535	0.176006				-0.004431	-0.001318	-0.003123				36.062089	-88.230687	-167.894171
00055	940974	9.819135	0.207019	0.178236				-0.003132	-0.001486	-0.001267				36.063873	-88.231485	-167.894678
00056	941024	9.813226	0.205388	0.173413				-0.004004	-0.003441	-0.001499				36.092623	-88.232169	-167.924649
00057	941074	9.791392	0.193269	0.186313				-0.002885	0.000847	-0.001250				36.082193	-88.232150	-167.912675
00058	941124	9.804862	0.184398	0.182935				-0.005629	0.001773	0.001778				36.057638	-88.231953	-167.889683
00059	941174	9.798271	0.193658	0.190289				-0.001737	0.000263	0.002623				36.020940	-88.233451	-167.851389
00060	941224	9.825923	0.205748	0.199860				-0.005548	0.002325	0.001038				35.998858	-88.233064	-167.830874
00061	941274	9.810828	0.175391	0.199464				-0.002699	0.003380	0.002543				35.945283	-88.233704	-167.775945
00062	941324	9.797851	0.167087	0.197120				-0.004895	0.001985	0.002383				35.914931	-88.233975	-167.747105
00063	941374	9.821595	0.166877	0.207622				-0.007132	0.004951	0.003013				35.848632	-88.233334	-167.680365
00064	941424	9.827135	0.169944	0.193082				-0.002173	0.000405	-0.003345				35.871000	-88.232566	-167.703324
00065	941474	9.825737	0.167468	0.191957				-0.000847	0.003438	-0.000572				35.841948	-88.232309	-167.672301
00066	941524	9.800145	0.169824	0.204980				-0.007666	0.000188	0.001387				35.828406	-88.232366	-167.660900
00067	941574	9.813826	0.176096	0.213786				-0.003741	-0.000755	-0.003571				35.843608	-88.232703	-167.675048
00068	941624	9.826139	0.161454	0.215335				-0.005461	-0.001880	-0.000206				35.853685	-88.233147	-167.686710
00069	941674	9.831719	0.174664	0.211070				-0.003965	0.001408	-0.002854				35.851531	-88.233378	-167.683605
00070	941724	9.812016	0.170413	0.209691				-0.004116	0.000275	-0.001062				35.856765	-88.233130	-167.690017
00071	941774	9.815827	0.186736	0.215363				-0.004823	-0.000772	-0.001996				35.859652	-88.233849	-167.692217
00072	941824	9.808258	0.190173	0.201053				0.001994	0.001513	-0.002418				35.870234	-88.233128	-167.702244
00073	941874	9.821972	0.198959	0.197685				-0.002512	0.001014	-0.002540				35.868387	-88.232991	-167.698832
00074	941924	9.830671	0.188655	0.198216				-0.008218	-0.003066	-0.002963				35.905166	-88.233141	-167.737963
00075	941974	9.807297	0.210859	0.197578				-0.003111	0.004276	0.001141				35.857223	-88.233182	-167.688740
00076	942024	9.791021	0.199301	0.196346				-0.003657	0.000929	-0.002403				35.869215	-88.232643	-167.701819
00077	942074	9.807796	0.197593	0.182422				-0.003298	0.001781	-0.001118				35.852307	-88.232426	-167.683490
00078	942124	9.820237	0.191272	0.185618				-0.004715	-0.002096	-0.001106				35.870470	-88.232915	-167.703082
00079	942174	9.818439	0.199864	0.189775				-0.002339	0.001022	0.002077				35.833773	-88.233656	-167.664861
00080	942224	9.814570	0.183237	0.194616				-0.003199	0.003622	-0.000755				35.818734	-88.232731	-167.650742
00081	942274	9.821555	0.196566	0.193063				-0.005781	-0.000748	0.000444				35.802949	-88.233453	-167.634320
00082	942324	9.819627	0.158085	0.196953				-0.003311	0.000068	0.000153				35.800427	-88.233631	-167.632808
00083	942374	9.811597	0.165347	0.211409				-0.005448	0.001969	0.000332				35.771201	-88.233674	-167.602849
00084	942424	9.818532	0.166863	0.202687				-0.004880	-0.001263	-0.004179				35.808144	-88.233327	-167.641232
00085	942474	9.816815	0.157197	0.192182				-0.002581	0.001337	0.000128				35.784052	-88.233867	-167.615712
00086	942524	9.811079	0.182051	0.222953				-0.004625	0.003276	-0.000948				35.772057	-88.232838	-167.604995
00087	942574	9.831749	0.154685	0.207982				-0.004476	0.003767	0.001296				35.725695	-88.232967	-167.557749
00088	942624	9.807435	0.189393	0.218800				-0.003137	-0.000223	0.000087				35.725393	-88.233030	-167.558346
00089	942674	9.821463	0.183055	0.196478				-0.004712	0.000913	-0.000962				35.711424	-88.233460	-167.543578
00090	942724	9.816730	0.175431	0.207687				-0.000959	-0.002345	0.000554				35.719432	-88.234169	-167.551896
00091	942774	9.798204	0.167469	0.216244				-0.002804	0.001434	-0.000320				35.698814	-88.234350	-167.529814
00092	942824	9.825664	0.163932	0.210745				-0.005933	-0.003444	-0.003134				35.739310	-88.234767	-167.572083
00093	942874	9.841709	0.178707	0.204671				-0.006049	-0.002803	-0.004286				35.770393	-88.235127	-167.602626
00094	942924	9.821607	0.193890	0.189969				-0.002554	0.000430	-0.002767				35.788284	-88.234415	-167.621201
00095	942974	9.790961	0.191297	0.184122				-0.004302	-0.001548	-0.007517				35.837101	-88.234438	-167.669216
00096	943024	9.822471	0.177078	0.200250				-0.007088	-0.001168	-0.001834				35.854883	-88.234545	-167.689095
00097	943074	9.820156	0.211650	0.197012				-0.003912	0.003129	0.001389				35.811591	-88.234645	-167.644662
00098	943124	9.801308	0.199954	0.187023				-0.002857	0.002307	0.001224				35.789043	-88.234396	-167.622953
00099	943174	9.783304	0.200822	0.209102				-0.002886	0.000983	0.001092				35.759792	-88.234688	-167.592176
00100	943224	9.808356	0.203717	0.194865				-0.004189	0.001768	0.001415				35.738550	-88.234374	-167.572071
00101	943274	9.816102	0.194438	0.193238				-0.006059	0.004960	-0.002603				35.714309	-88.233630	-167.547394
00102	943324	9.806870	0.207974	0.195590				-0.004855	0.000398	0.000929				35.703802	-88.233794	-167.538310
00103	943374	9.813804	0.186244	0.197131				-0.002421	-0.001825	-0.001265				35.707906	-88.234626	-167.540831
00104	943424	9.802773	0.190641	0.200544				-0.005271	0.005425	-0.002025				35.692177	-88.232991	-167.526591
00105	943474	9.815222	0.164035	0.204603				-0.002556	-0.000405	0.000373				35.675783	-88.234103	-167.508861
00106	943524	9.816625	0.185384	0.204456				-0.007745	0.003904	0.001212				35.643222	-88.233268	-167.478451
00107	943574	9.828984	0.152217	0.198848				-0.002234	0.001507	-0.000837				35.625786	-88.233649	-167.459512
00108	943624	9.808322	0.163010	0.205937				-0.005531	0.000286	-0.000259				35.624681	-88.233551	-167.459999
00109	943674	9.815905	0.165527	0.206985				-0.003904	-0.000729	-0.003765				35.640877	-88.233818	-167.475144
00110	943724	9.821008	0.169195	0.222089				-0.006252	-0.000349	-0.003947				35.670682	-88.233293	-167.506774
00111	943774	9.829092	0.192378	0.215840				-0.001081	0.001458	-0.002833				35.669166	-88.233083	-167.503336
00112	943824	9.797943	0.172081	0.209738				-0.002766	0.000204	0.000060				35.667050	-88.232770	-167.501910
00113	943874	9.817576	0.172302	0.192423				-0.002180	0.001462	-0.006322				35.691255	-88.232320	-167.524662
00114	943924	9.806659	0.183279	0.203905				-0.003006	-0.001645	-0.002903				35.721005	-88.232354	-167.555342
00115	943974	9.825381	0.184895	0.174601				-0.003354	-0.000779	-0.002740				35.730211	-88.232613	-167.563235
00116	944024	9.826845	0.193157	0.191347				-0.003406	-0.002138	-0.001975				35.755738	-88.232752	-167.589745
00117	944074	9.827932	0.201238	0.193243				-0.003687	-0.001335	-0.002708				35.767443	-88.233368	-167.600355
00118	944124	9.815201	0.191801	0.190972				-0.008149	-0.000022	-0.001952				35.780132	-88.232955	-167.615345
00119	944174	9.812514	0.203414	0.177546				-0.003631	-0.000077	-0.003278				35.789208	-88.233291	-167.623274
00120	944224	9.819063	0.209913	0.183984				-0.005189	-0.001129	0.001596				35.781881	-88.233817	-167.617434
00121	944274	9.841945	0.189394	0.183649				-0.001541	0.002103	0.000735				35.749506	-88.234126	-167.583273
00122	944324	9.802686	0.170452	0.177550				-0.006144	-0.002371	0.001658				35.748203	-88.234881	-167.583707
00123	944374	9.805622	0.186830	0.209517				-0.004942	0.001203	0.000740				35.719851	-88.235249	-167.554494
00124	944424	9.801472	0.186494	0.188357				-0.004193	-0.001537	-0.001647				35.739468	-88.235384	-167.575343
00125	944474	9.827285	0.173146	0.200327				-0.001363	0.003166	-0.002661				35.727037	-88.234804	-167.561065
00126	944524	9.801363	0.205158	0.206861				-0.002415	0.000144	-0.001702				35.738614	-88.234473	-167.573333
00127	944574	9.828811	0.180376	0.207272				-0.001436	0.001555	-0.001255				35.724479	-88.234421	-167.557351
00128	944624	9.808895	0.163317	0.190146				-0.004243	0.003313	-0.000852				35.711621	-88.233561	-167.545727
00129	944674	9.802666	0.170109	0.221523				-0.006989	0.002038	-0.001206				35.693044	-88.233456	-167.526922
00130	944724	9.820560	0.173050	0.209059				-0.008016	-0.003152	0.000211				35.706320	-88.234237	-167.542510
00131	944774	9.832599	0.154415	0.187851				-0.004520	0.002787	-0.001980				35.689590	-88.234143	-167.524933
00132	944824	9.829365	0.159090	0.198818				-0.003455	-0.000194	0.001498				35.678329	-88.234269	-167.514596
00133	944874	9.810992	0.162242	0.199399				-0.004390	0.000529	-0.001799				35.672881	-88.234888	-167.508338
00134	944924	9.804504	0.165926	0.201929				-0.005527	0.003354	-0.002676				35.673305	-88.233769	-167.510388
00135	944974	9.808574	0.207862	0.189050				-0.005107	-0.001905	0.000404				35.664295	-88.234822	-167.500568
00136	945024	9.821179	0.180749	0.208720				-0.002778	0.000297	-0.002798				35.682985	-88.234532	-167.520154
00137	945074	9.794696	0.217107	0.182886				-0.004026	-0.000564	-0.001801				35.683740	-88.234533	-167.519657
00138	945124	9.794396	0.194876	0.198298				-0.002606	0.000812	-0.005525				35.720260	-88.233367	-167.556922
00139	945174	9.812429	0.200511	0.197114				-0.001092	-0.003459	-0.002240				35.740523	-88.235266	-167.575602
00140	945224	9.817749	0.204549	0.214413				-0.001650	-0.001844	-0.001819				35.763609	-88.235628	-167.599265
00141	945274	9.813600	0.191903	0.180450				-0.003062	0.000689	0.003076				35.721000	-88.236359	-167.555162
00142	945324	9.800920	0.186549	0.200640				-0.003852	0.001895	-0.002622				35.729253	-88.235618	-167.564578
00143	945374	9.807288	0.178721	0.187662				-0.005333	0.000061	-0.001539				35.724939	-88.235210	-167.559265
00144	945424	9.828234	0.182642	0.180590				-0.004386	-0.000478	-0.002190				35.742820	-88.234819	-167.578358
00145	945474	9.826079	0.175408	0.197169				-0.004100	0.001031	0.003878				35.691402	-88.236285	-167.526029
00146	945524	9.810517	0.195026	0.209798				-0.000800	0.003989	-0.001148				35.678275	-88.235123	-167.513105
00147	945574	9.794778	0.199671	0.204875				-0.005810	0.005323	-0.001892				35.646896	-88.234606	-167.481288
00148	945624	9.814023	0.161779	0.210213				-0.006028	0.002323	0.004245				35.600525	-88.234842	-167.436649
00149	945674	9.814391	0.191321	0.207003				-0.004411	-0.001670	-0.002033				35.608727	-88.235531	-167.443887
00150	945724	9.818711	0.170562	0.204451				-0.003423	0.001452	-0.001606				35.611977	-88.234889	-167.448108
00151	945774	9.808979	0.166547	0.208354				-0.002417	0.003512	0.000331				35.575185	-88.234772	-167.409762
00152	945824	9.814435	0.171006	0.202686				-0.002021	-0.000336	-0.002323				35.594018	-88.234210	-167.429088
00153	945874	9.803693	0.173084	0.203047				-0.001318	0.001708	-0.004334				35.602154	-88.234027	-167.435509
00154	945924	9.826091	0.170949	0.204286				-0.002276	-0.002608	-0.003456				35.641779	-88.233758	-167.475695
00155	945974	9.808407	0.198013	0.198257				-0.004770	0.001819	0.000171				35.614495	-88.234076	-167.447567
00156	946024	9.822131	0.184521	0.201171				-0.003707	-0.002894	-0.004257				35.661058	-88.234318	-167.495315
00157	946074	9.811115	0.202968	0.213523				-0.002740	0.000533	0.000542				35.638465	-88.235023	-167.471322
00158	946124	9.820956	0.205622	0.194466				-0.003091	-0.001873	-0.000919				35.654515	-88.235325	-167.488269
00159	946174	9.805013	0.199879	0.204713				-0.006101	0.001109	-0.003747				35.660294	-88.235068	-167.493585
00160	946224	9.801950	0.191203	0.179474				-0.005055	-0.000878	-0.004978				35.701143	-88.234689	-167.535996
00161	946274	9.798652	0.181377	0.191609				-0.000025	0.002812	0.000482				35.667408	-88.234564	-167.499970
00162	946324	9.800786	0.182152	0.192794				-0.004837	0.003819	-0.001456				35.656326	-88.233411	-167.490258
00163	946374	9.819198	0.199383	0.183019				-0.002924	-0.001031	-0.002035				35.661577	-88.234327	-167.494271
00164	946424	9.820580	0.190130	0.209982				-0.004359	0.004221	0.001331				35.627389	-88.233610	-167.461326
00165	946474	9.807034	0.191513	0.202585				-0.006418	0.001210	-0.000504				35.608028	-88.233415	-167.441399
00166	946524	9.806465	0.181929	0.197914				-0.002494	-0.002706	-0.002555				35.641335	-88.233562	-167.475417
00167	946574	9.806703	0.193745	0.213069				-0.003652	0.001902	0.000709				35.609735	-88.233856	-167.442601
00168	946624	9.831073	0.173801	0.201149				-0.003573	-0.001621	0.001073				35.609222	-88.234557	-167.443165
00169	946674	9.824365	0.173656	0.208411				0.000141	-0.001749	-0.001055				35.611868	-88.235485	-167.443560
00170	946724	9.806182	0.185684	0.199041				-0.004479	0.003630	-0.002517				35.609970	-88.234173	-167.442936
00171	946774	9.805764	0.169551	0.181765				-0.005106	0.004167	-0.001517				35.582702	-88.233597	-167.414901
00172	946824	9.798127	0.159594	0.205875				-0.001980	-0.000493	-0.001486				35.596168	-88.233173	-167.428830
00173	946874	9.840796	0.164906	0.188019				-0.002621	0.002667	0.000518				35.561960	-88.233943	-167.393388
00174	946924	9.818905	0.175385	0.202413				-0.005626	-0.003051	-0.003675				35.604379	-88.234291	-167.437536
00175	946974	9.804180	0.190320	0.204630				0.001124	-0.001413	-0.001919				35.612180	-88.234557	-167.442699
00176	947024	9.815175	0.184515	0.208763				-0.003333	0.001739	-0.002500				35.620716	-88.233777	-167.452211
00177	947074	9.806325	0.179736	0.187397				-0.006112	-0.001701	-0.002701				35.633724	-88.234469	-167.464793
00178	947124	9.800247	0.200642	0.204527				-0.003730	0.001350	-0.001215				35.634558	-88.233962	-167.466701
00179	947174	9.796768	0.193811	0.202145				-0.007805	0.001505	-0.001107				35.617254	-88.234392	-167.449541
00180	947224	9.807357	0.194370	0.183867				-0.003555	0.002103	0.002028				35.589538	-88.234183	-167.422807
00181	947274	9.823818	0.193292	0.180180				-0.002411	0.002019	-0.001247				35.572600	-88.234052	-167.404301
00182	947324	9.819474	0.196816	0.181270				-0.000985	-0.003912	-0.002473				35.612071	-88.234614	-167.444094
00183	947374	9.811691	0.210200	0.182031				-0.002423	-0.001797	-0.002520				35.625273	-88.235093	-167.455742
00184	947424	9.825922	0.178107	0.179447				-0.005232	0.001098	-0.001729				35.631007	-88.234476	-167.462954
00185	947474	9.808065	0.206097	0.199675				-0.004918	0.002363	-0.002681				35.621995	-88.234368	-167.453237
00186	947524	9.823511	0.189651	0.198448				-0.004609	0.001791	0.000646				35.606161	-88.234091	-167.438726
00187	947574	9.823804	0.193024	0.183518				-0.004452	0.000689	-0.002248				35.603183	-88.234321	-167.434847
00188	947624	9.826274	0.176633	0.201764				-0.008453	0.001720	-0.000340				35.594009	-88.234024	-167.428149
00189	947674	9.803443	0.178351	0.193726				-0.006490	0.001461	-0.000279				35.571671	-88.233977	-167.405319
00190	947724	9.797166	0.171616	0.221401				-0.002506	0.005354	0.000726				35.536350	-88.232962	-167.370749
00191	947774	9.796161	0.168483	0.196562				-0.006029	-0.000983	0.000416				35.522014	-88.233672	-167.355830
00192	947824	9.825855	0.168239	0.209867				-0.003117	0.000808	-0.002443				35.535468	-88.233029	-167.370164
00193	947874	9.831039	0.170313	0.215611				-0.006699	0.001845	-0.001657				35.520883	-88.233101	-167.355369
00194	947924	9.816600	0.183206	0.212786				-0.005622	0.001089	-0.002781				35.534209	-88.232454	-167.370341
00195	947974	9.809556	0.178253	0.206903				-0.002915	0.003887	-0.000788				35.503775	-88.232049	-167.338488
00196	948024	9.825276	0.164197	0.195672				-0.002132	-0.000925	-0.003416				35.533852	-88.231700	-167.369196
00197	948074	9.824081	0.162376	0.199335				-0.003546	-0.000614	0.000022				35.521120	-88.232552	-167.355277
00198	948124	9.832051	0.173127	0.200091				-0.004253	0.003636	-0.001079				35.508456	-88.231529	-167.343821
00199	948174	9.810278	0.185075	0.192079				-0.002640	-0.004123	-0.001086				35.523249	-88.233006	-167.357186
00200	948224	9.820792	0.179037	0.197137				-0.003817	-0.003273	-0.001694				35.552542	-88.233472	-167.387583
00201	948274	9.818940	0.191934	0.202195				-0.007201	0.001512	-0.001849				35.541561	-88.233564	-167.376498
00202	948324	9.830783	0.189084	0.179597				-0.005102	-0.000969	-0.000874				35.551955	-88.233486	-167.388300
00203	948374	9.828400	0.203603	0.188265				-0.003616	-0.001299	0.000756				35.537300	-88.234647	-167.372496
00204	948424	9.797525	0.185025	0.174568				-0.003275	-0.000198	-0.003634				35.564983	-88.233921	-167.401073
00205	948474	9.805028	0.188880	0.185238				-0.006703	-0.000995	0.000706				35.548033	-88.235321	-167.383956
00206	948524	9.805184	0.191156	0.193954				-0.003460	0.002006	0.001156				35.527336	-88.235198	-167.364294
00207	948574	9.809340	0.200470	0.197338				-0.005109	0.003359	-0.001490				35.504132	-88.234728	-167.340329
00208	948624	9.802367	0.192436	0.185274				-0.002148	0.001737	-0.001279				35.503649	-88.234230	-167.340508
00209	948674	9.805940	0.172040	0.187088				-0.004910	0.005374	0.001276				35.448768	-88.233877	-167.284795
00210	948724	9.816899	0.184557	0.200353				-0.001090	0.001884	-0.000514				35.442196	-88.233413	-167.278558
00211	948774	9.818550	0.179100	0.213347				-0.004317	0.001996	0.003441				35.389046	-88.234552	-167.224575
00212	948824	9.819809	0.179607	0.201754				-0.005235	0.001293	0.000198				35.379162	-88.234144	-167.216138
00213	948874	9.806664	0.175380	0.216656				-0.001810	-0.000583	0.001590				35.354907	-88.234949	-167.190092
00214	948924	9.782676	0.178493	0.201461				-0.002665	0.001852	-0.002211				35.360949	-88.234225	-167.196930
00215	948974	9.824173	0.163050	0.223282				-0.006532	0.000291	-0.004203				35.374531	-88.233898	-167.210083
00216	949024	9.824183	0.188492	0.207432				-0.007512	-0.002120	-0.004821				35.420176	-88.233471	-167.257858
00217	949074	9.810565	0.175686	0.202211				-0.002549	-0.001769	-0.000501				35.417949	-88.234433	-167.254110
00218	949124	9.812251	0.173631	0.203771				-0.006197	0.000175	-0.001571				35.427028	-88.234083	-167.264949
00219	949174	9.807482	0.178874	0.194850				-0.004709	0.000716	-0.001731				35.420046	-88.234404	-167.257187
00220	949224	9.814387	0.188923	0.213759				-0.003580	0.001346	-0.003269				35.436480	-88.233539	-167.274655
00221	949274	9.805257	0.179390	0.206627				-0.005250	0.000481	-0.003205				35.441565	-88.233546	-167.279040
00222	949324	9.813318	0.185424	0.199085				-0.003155	-0.001508	0.002712				35.428151	-88.234521	-167.266596
00223	949374	9.821137	0.177059	0.184687				-0.002022	-0.001238	-0.001205				35.428449	-88.235524	-167.265305
00224	949424	9.816730	0.185311	0.187867				-0.004675	-0.000546	-0.003408				35.455945	-88.234927	-167.294096
00225	949474	9.822689	0.175276	0.207269				-0.002987	0.002176	-0.000768				35.434239	-88.234903	-167.271004
00226	949524	9.817559	0.212280	0.190290				-0.005295	0.001228	-0.000029				35.426277	-88.234788	-167.264615
00227	949574	9.828464	0.200426	0.186140				-0.006925	0.001774	-0.002779				35.420951	-88.234420	-167.259076
00228	949624	9.809461	0.185067	0.208977				-0.002198	0.000308	-0.002064				35.434158	-88.234204	-167.272993
00229	949674	9.822337	0.191367	0.194579				-0.008226	0.001629	-0.000370				35.411089	-88.234325	-167.250016
00230	949724	9.823456	0.185395	0.216907				-0.002155	0.001987	-0.001571				35.411889	-88.233398	-167.251361
00231	949774	9.815578	0.191075	0.208903				-0.001589	-0.000584	-0.000141				35.400480	-88.234441	-167.238279
00232	949824	9.799093	0.178149	0.204323				-0.003457	0.002906	-0.000117				35.384921	-88.233437	-167.223591
00233	949874	9.812452	0.175872	0.205570				-0.001866	-0.001111	-0.000342				35.377598	-88.234744	-167.214780
00234	949924	9.825343	0.178095	0.195206				-0.001142	-0.000622	-0.000185				35.382033	-88.234954	-167.219582
00235	949974	9.815951	0.181634	0.206138				-0.006513	0.002130	-0.000636				35.358323	-88.235225	-167.195604
00236	950024	9.806028	0.183829	0.227474				-0.004876	0.000893	-0.002345				35.370001	-88.234654	-167.208697
00237	950074	9.821440	0.165992	0.197222				-0.004411	0.001391	-0.002505				35.365425	-88.234403	-167.203097
00238	950124	9.822206	0.160135	0.200851				-0.004684	0.003200	0.000107				35.346221	-88.233630	-167.185209
00239	950174	9.827230	0.181536	0.191124				-0.004540	-0.000555	-0.000880				35.339575	-88.234253	-167.177601
00240	950224	9.812245	0.184267	0.182599				-0.006994	0.000251	0.001475				35.325029	-88.234388	-167.165035
00241	950274	9.825085	0.161005	0.194059				-0.003690	-0.000983	0.000431				35.311133	-88.235236	-167.149913
00242	950324	9.801392	0.192148	0.190254				-0.004414	-0.002620	-0.000983				35.331384	-88.235678	-167.171436
00243	950374	9.809432	0.194466	0.193648				-0.000946	-0.000516	0.001426				35.307872	-88.237114	-167.146117
00244	950424	9.830872	0.180425	0.222001				-0.002339	-0.002488	-0.002820				35.341987	-88.237366	-167.180965
00245	950474	9.815639	0.192477	0.195598				-0.002205	0.002658	-0.001670				35.324461	-88.237259	-167.161921
00246	950524	9.803610	0.188683	0.184725				-0.003818	-0.003227	-0.001949				35.355612	-88.237385	-167.194070
00247	950574	9.811046	0.201579	0.187640				-0.001787	-0.001735	-0.003327				35.374889	-88.238092	-167.211694
00248	950624	9.813404	0.186734	0.183480				-0.002439	-0.001359	-0.001785				35.395124	-88.238005	-167.232597
00249	950674	9.823399	0.184167	0.190270				-0.004472	0.001124	-0.004977				35.410478	-88.237626	-167.247060
00250	950724	9.815773	0.193250	0.211663				-0.002024	0.003851	-0.004388				35.422270	-88.236088	-167.259466
00251	950774	9.824664	0.177907	0.190032				-0.003090	0.003286	-0.000926				35.395875	-88.235743	-167.231676
00252	950824	9.812696	0.175666	0.205339				-0.002873	-0.000747	-0.000339				35.401637	-88.235988	-167.238308
00253	950874	9.815576	0.188426	0.214048				-0.003949	0.004178	-0.001108				35.371688	-88.235099	-167.207116
00254	950924	9.835495	0.177827	0.211033				-0.007313	0.003918	-0.003766				35.377109	-88.233539	-167.214629
00255	950974	9.828099	0.173940	0.220695				-0.001146	0.004810	-0.000219				35.337587	-88.232969	-167.173166
00256	951024	9.806015	0.183232	0.191222				-0.001052	-0.000587	-0.002422				35.358856	-88.232609	-167.194714
00257	951074	9.801165	0.153296	0.189406				-0.005782	0.001975	-0.004646				35.366958	-88.232146	-167.202272
00258	951124	9.829717	0.183710	0.209124				-0.006165	0.000229	-0.001771				35.377522	-88.231802	-167.214613
00259	951174	9.830603	0.161500	0.187350				-0.005563	0.001106	-0.004556				35.389161	-88.231906	-167.225817
00260	951224	9.826311	0.170610	0.208134				-0.004244	-0.000773	-0.001299				35.401713	-88.232138	-167.239691
00261	951274	9.816696	0.187840	0.188513				-0.006101	-0.001968	-0.000787				35.401785	-88.232655	-167.239127
00262	951324	9.810630	0.172949	0.197465				-0.004023	-0.000738	-0.001137				35.413113	-88.232806	-167.251677
00263	951374	9.817831	0.190269	0.191382				-0.005645	-0.001515	-0.003765				35.433109	-88.233536	-167.271201
00264	951424	9.824254	0.190956	0.190186				-0.004241	-0.001030	-0.000656				35.442302	-88.233740	-167.281644
00265	951474	9.796945	0.190139	0.182023				-0.004028	0.003462	-0.002523				35.426762	-88.232949	-167.264907
00266	951524	9.801701	0.195503	0.210464				-0.004715	0.002540	-0.006375				35.460171	-88.231003	-167.299575
00267	951574	9.815539	0.186977	0.185245				-0.003113	0.000695	-0.003793				35.469273	-88.231057	-167.307434
00268	951624	9.803826	0.183836	0.198227				-0.002260	0.000029	-0.003701				35.496227	-88.230624	-167.335115
00269	951674	9.812579	0.201455	0.209615				-0.001473	-0.002045	0.000617				35.487397	-88.231871	-167.324471
00270	951724	9.820873	0.210760	0.197705				-0.002005	0.003531	-0.000989				35.475293	-88.230739	-167.312877
00271	951774	9.821035	0.197414	0.198293				-0.003748	-0.002184	0.000427				35.467897	-88.232100	-167.304456
00272	951824	9.820572	0.177045	0.198528				-0.001700	-0.003213	-0.000388				35.487588	-88.232871	-167.324680
00273	951874	9.805202	0.185773	0.202291				-0.008190	0.001521	0.000781				35.456354	-88.233239	-167.293532
00274	951924	9.822321	0.174207	0.191216				-0.007177	-0.000278	-0.001638				35.467991	-88.233119	-167.307264
00275	951974	9.807145	0.183553	0.201529				-0.002777	-0.000816	-0.002967				35.479228	-88.233470	-167.317104
00276	952024	9.784560	0.175606	0.210256				-0.002560	-0.001159	0.002546				35.465580	-88.234100	-167.304161
00277	952074	9.810969	0.182125	0.201966				-0.003471	-0.000984	-0.001169				35.463726	-88.234859	-167.301089
00278	952124	9.811111	0.193337	0.194111				-0.000738	-0.001157	0.000777				35.463632	-88.235392	-167.301258
00279	952174	9.802402	0.178369	0.208553				-0.006719	0.000408	-0.001410				35.455426	-88.235657	-167.292750
00280	952224	9.802718	0.177647	0.197011				-0.007039	0.000340	-0.002854				35.473245	-88.235182	-167.312622
00281	952274	9.794277	0.197923	0.212181				-0.005352	0.000624	-0.003818				35.482296	-88.235100	-167.320984
00282	952324	9.819145	0.200215	0.190046				-0.005385	0.001697	-0.001602				35.483625	-88.234810	-167.323994
00283	952374	9.818463	0.182486	0.182049				-0.004433	-0.000803	0.000370				35.469082	-88.235185	-167.308306
00284	952424	9.807065	0.188854	0.203631				-0.003848	-0.004255	-0.000802				35.496941	-88.235922	-167.337236
00285	952474	9.807463	0.176785	0.202049				-0.002360	0.000494	0.000052				35.478289	-88.236770	-167.317167
00286	952524	9.805932	0.201182	0.207110				-0.002991	0.001222	-0.000196				35.472155	-88.236590	-167.311934
00287	952574	9.820431	0.199889	0.214209				-0.000921	0.001348	-0.004277				35.482047	-88.236375	-167.319944
00288	952624	9.815628	0.193199	0.196752				-0.005963	0.001911	-0.001214				35.479236	-88.235650	-167.318813
00289	952674	9.826430	0.175741	0.178504				-0.003474	0.002348	0.000001				35.450841	-88.235620	-167.289149
00290	952724	9.812207	0.186274	0.185754				-0.004287	0.000287	-0.004017				35.478382	-88.234900	-167.317938
00291	952774	9.801820	0.192452	0.195271				-0.001832	-0.001953	0.001006				35.466291	-88.235929	-167.304058
00292	952824	9.829664	0.158915	0.189940				-0.003520	-0.000799	-0.005308				35.509803	-88.235243	-167.348603
00293	952874	9.813677	0.194993	0.199333				-0.001238	-0.000686	-0.001302				35.507996	-88.236321	-167.345127
00294	952924	9.807518	0.192041	0.199644				-0.003695	0.000107	-0.001644				35.519061	-88.236023	-167.357254
00295	952974	9.826812	0.177052	0.191816				-0.003600	-0.001287	-0.004186				35.541784	-88.236050	-167.378711
00296	953024	9.816672	0.198216	0.209626				-0.003535	-0.000148	-0.002802				35.562907	-88.235588	-167.400848
00297	953074	9.814219	0.189997	0.199636				-0.005656	0.001369	-0.000480				35.542206	-88.235971	-167.379614
00298	953124	9.820282	0.175661	0.209916				-0.002590	-0.000352	0.000210				35.541997	-88.235889	-167.380073
00299	953174	9.795670	0.165013	0.206844				-0.003198	-0.001560	-0.001461				35.545628	-88.237117	-167.382565
00300	953224	9.802191	0.161186	0.201092				-0.005001	0.000697	-0.003085				35.563611	-88.236749	-167.402104
00301	953274	9.819093	0.180346	0.200999				-0.003482	-0.000663	-0.002038				35.567092	-88.236541	-167.404126
00302	953324	9.816374	0.181246	0.215425				-0.005780	0.001206	-0.001953				35.573614	-88.236012	-167.412339
00303	953374	9.799552	0.185234	0.193716				-0.001687	0.001401	-0.003026				35.573749	-88.235980	-167.410771
00304	953424	9.823345	0.186138	0.194693				-0.005253	-0.003344	-0.000539				35.594378	-88.236703	-167.432924
00305	953474	9.810316	0.197765	0.198545				-0.004723	0.003420	0.000299				35.557937	-88.236223	-167.395483
00306	953524	9.820098	0.194378	0.202511				-0.004526	0.001804	-0.003718				35.575024	-88.235298	-167.413917
00307	953574	9.826468	0.186584	0.189169				-0.006504	-0.002467	-0.002135				35.587735	-88.236325	-167.426342
00308	953624	9.805820	0.186879	0.216007				-0.006087	0.002652	-0.002492				35.590417	-88.235325	-167.430785
00309	953674	9.814360	0.171434	0.213947				-0.002696	0.000066	0.000758				35.568653	-88.236402	-167.407652
00310	953724	9.824329	0.182471	0.196481				-0.003395	0.002372	-0.004907				35.592084	-88.234859	-167.431999
00311	953774	9.823133	0.184969	0.193852				-0.002693	0.002009	0.000413				35.562152	-88.235721	-167.400864
00312	953824	9.811815	0.194324	0.194086				-0.003582	-0.000436	-0.001165				35.572529	-88.235449	-167.412207
00313	953874	9.812210	0.199597	0.197029				-0.005893	0.002489	-0.005057				35.581116	-88.234324	-167.420179
00314	953924	9.803640	0.199206	0.197467				-0.008433	-0.001173	-0.002860				35.606664	-88.234000	-167.448111
00315	953974	9.805950	0.184678	0.198707				-0.004305	0.000262	0.000315				35.586631	-88.235117	-167.427275
00316	954024	9.825333	0.188136	0.176601				-0.004148	0.001394	-0.000226				35.579572	-88.234856	-167.421442
00317	954074	9.810450	0.186155	0.201319				-0.001519	-0.000078	-0.003003				35.587830	-88.234726	-167.427796
00318	954124	9.800570	0.189194	0.212980				-0.003631	0.004446	0.000048				35.562725	-88.233380	-167.403604
00319	954174	9.857009	0.156305	0.202144				-0.005619	0.003244	-0.000151				35.529521	-88.233624	-167.369892
00320	954224	9.838800	0.168327	0.196435				-0.005127	0.003863	-0.001562				35.518990	-88.232551	-167.360858
00321	954274	9.808599	0.161868	0.202315				-0.005426	0.003413	0.000785				35.478469	-88.232552	-167.319638
00322	954324	9.793861	0.193430	0.211468				-0.003166	0.000504	-0.001837				35.488867	-88.232008	-167.330905
00323	954374	9.809231	0.166643	0.205924				-0.005374	0.001468	-0.002791				35.485325	-88.232374	-167.326825
00324	954424	9.818318	0.181739	0.207001				-0.001711	0.000079	-0.002520				35.503461	-88.231949	-167.345464
00325	954474	9.819074	0.165173	0.195555				-0.002217	0.001076	-0.000972				35.489949	-88.232080	-167.330371
00326	954524	9.817629	0.184625	0.196968				-0.000315	-0.000316	-0.000148				35.492709	-88.232158	-167.333235
00327	954574	9.804216	0.194601	0.190301				-0.002495	-0.001521	-0.002366				35.503622	-88.232520	-167.342527
00328	954624	9.791756	0.204499	0.182973				-0.003646	0.001728	-0.000767				35.498981	-88.232110	-167.338967
00329	954674	9.806876	0.190042	0.192669				-0.005328	-0.000016	-0.001962				35.497766	-88.232452	-167.337057
00330	954724	9.812304	0.193037	0.195298				-0.003282	-0.000183	-0.005244				35.537161	-88.231813	-167.377483
00331	954774	9.816855	0.199489	0.177043				-0.005527	-0.001094	-0.004119				35.558053	-88.231955	-167.397714
00332	954824	9.803185	0.184754	0.183222				-0.001458	0.001580	0.003332				35.524119	-88.232051	-167.364151
00333	954874	9.809097	0.180007	0.200317				-0.000970	-0.001170	-0.002720				35.535663	-88.232924	-167.373882
00334	954924	9.810945	0.181092	0.207967				-0.000735	-0.001328	-0.001276				35.552265	-88.232929	-167.390665
00335	954974	9.810125	0.186161	0.213256				-0.001641	-0.001111	-0.000308				35.545603	-88.233805	-167.382290
00336	955024	9.815310	0.197885	0.200295				-0.005127	-0.001373	-0.002903				35.573470	-88.233526	-167.411598
00337	955074	9.807850	0.165762	0.199503				-0.003250	0.004350	-0.001557				35.546368	-88.232707	-167.383128
00338	955124	9.810143	0.190653	0.202989				-0.005195	0.000793	-0.002535				35.559784	-88.232015	-167.398009
00339	955174	9.812835	0.177675	0.216612				-0.003359	0.000598	-0.002094				35.556289	-88.232876	-167.393511
00340	955224	9.814348	0.182519	0.191721				-0.002105	-0.000308	0.002038				35.542052	-88.233101	-167.379800
00341	955274	9.814482	0.166759	0.203737				-0.002607	0.002970	-0.003846				35.539242	-88.232519	-167.375523
00342	955324	9.818391	0.154839	0.212806				-0.006127	0.001840	-0.002402				35.545628	-88.231602	-167.383641
00343	955374	9.817067	0.176452	0.190241				-0.003418	0.000405	-0.000840				35.534413	-88.232189	-167.371272
00344	955424	9.807122	0.184152	0.203210				-0.002791	0.000000	-0.000459				35.537103	-88.232223	-167.374803
00345	955474	9.820861	0.174971	0.195141				-0.001174	0.004649	-0.000510				35.500793	-88.231343	-167.336432
00346	955524	9.817716	0.169011	0.215669				-0.004554	0.000737	-0.002893				35.517333	-88.230684	-167.354287
00347	955574	9.822735	0.160382	0.192128				-0.008067	0.000386	-0.002693				35.518718	-88.231077	-167.355874
00348	955624	9.817473	0.175783	0.202048				-0.005005	0.002191	0.000708				35.500153	-88.230577	-167.338702
00349	955674	9.811087	0.175670	0.195868				-0.005767	0.003557	-0.005246				35.504131	-88.229698	-167.342160
00350	955724	9.797576	0.206127	0.201097				-0.005453	0.000112	-0.000096				35.502589	-88.229635	-167.342178
00351	955774	9.795856	0.175448	0.193615				-0.007010	-0.002768	-0.004344				35.533908	-88.230031	-167.373235
00352	955824	9.819947	0.183096	0.210401				-0.001319	0.000730	-0.002739				35.550243	-88.229361	-167.389945
00353	955874	9.797441	0.199154	0.197931				-0.001875	-0.001766	-0.002075				35.559849	-88.230410	-167.398009
00354	955924	9.807026	0.186865	0.214109				-0.006872	0.002512	-0.000276				35.546535	-88.229659	-167.386613
00355	955974	9.814696	0.205163	0.207530				-0.004359	0.000708	-0.003664				35.554356	-88.229707	-167.393533
00356	956024	9.815480	0.185565	0.196770				-0.003935	0.000720	-0.000873				35.555996	-88.229431	-167.396317
00357	956074	9.809373	0.175422	0.203022				-0.003576	0.001571	0.000384				35.529292	-88.229281	-167.368196
00358	956124	9.800106	0.177361	0.195555				-0.002769	-0.002106	-0.002462				35.558679	-88.229159	-167.398312
00359	956174	9.830617	0.171245	0.204599				0.000586	0.001250	-0.003003				35.559588	-88.229572	-167.397041
00360	956224	9.817327	0.194321	0.188807				-0.004669	0.000247	-0.002956				35.579333	-88.228875	-167.418074
00361	956274	9.802584	0.193702	0.187915				-0.004086	0.000034	-0.003697				35.590960	-88.229126	-167.428766
00362	956324	9.826243	0.184835	0.191370				-0.007515	-0.000896	-0.001931				35.608175	-88.229069	-167.448167
00363	956374	9.835273	0.172856	0.178945				-0.002671	0.000998	-0.002450				35.605707	-88.229210	-167.444266
00364	956424	9.803722	0.187354	0.208434				-0.002792	-0.002133	-0.000410				35.619442	-88.229721	-167.458838
00365	956474	9.810823	0.182184	0.186221				-0.005726	0.000165	-0.004463				35.635859	-88.229952	-167.474820
00366	956524	9.819644	0.188710	0.209253				-0.007592	0.004117	0.000729				35.605892	-88.229214	-167.447055
00367	956574	9.790981	0.183006	0.197032				-0.004012	-0.000388	-0.005463				35.633659	-88.228688	-167.473638
00368	956624	9.819201	0.172808	0.198378				-0.004315	0.000227	-0.003314				35.656262	-88.228001	-167.497457
00369	956674	9.804090	0.192432	0.176950				-0.004125	0.001490	-0.002535				35.651590	-88.227751	-167.491690
00370	956724	9.810988	0.185594	0.190882				-0.003716	0.006060	-0.000107				35.618588	-88.226355	-167.459750
00371	956774	9.815712	0.183379	0.202024				-0.002380	0.001039	-0.000264				35.599356	-88.227075	-167.439080
00372	956824	9.803490	0.209419	0.199836				-0.004774	-0.002531	-0.003649				35.639118	-88.226874	-167.480164
00373	956874	9.816833	0.199601	0.179592				-0.004801	-0.002200	0.001267				35.625730	-88.228168	-167.465916
00374	956924	9.820212	0.173392	0.187588				-0.004551	0.000712	-0.000743				35.626118	-88.227967	-167.467643
00375	956974	9.810606	0.171632	0.203711				-0.004024	0.001626	0.001217				35.592526	-88.228618	-167.433051
00376	957024	9.801340	0.196922	0.188689				-0.003422	0.001568	-0.001732				35.596034	-88.228034	-167.437574
00377	957074	9.799884	0.186518	0.214104				-0.008254	0.002553	-0.000046				35.565624	-88.227836	-167.407203
00378	957124	9.804646	0.192947	0.201421				-0.003911	0.001983	-0.000095				35.554639	-88.227379	-167.397343
00379	957174	9.810833	0.187566	0.173413				-0.001644	0.003926	-0.003045				35.541131	-88.226898	-167.382189
00380	957224	9.813083	0.191317	0.187948				0.000027	0.003053	-0.000290				35.526913	-88.226072	-167.367932
00381	957274	9.816051	0.192545	0.206357				-0.004514	0.003911	-0.000597				35.494421	-88.225603	-167.334476
00382	957324	9.815568	0.197026	0.198612				-0.002816	-0.000692	-0.005213				35.536482	-88.225053	-167.377424
00383	957374	9.805420	0.187743	0.201999				0.001208	-0.001261	-0.002885				35.550639	-88.225896	-167.389193
00384	957424	9.819839	0.180200	0.196430				-0.007240	-0.000376	-0.002505				35.569293	-88.225718	-167.409987
00385	957474	9.809970	0.191568	0.188811				-0.004372	-0.001845	-0.001331				35.573462	-88.226316	-167.413074
00386	957524	9.824840	0.167494	0.183341				-0.002175	0.002588	-0.002758				35.579803	-88.225018	-167.419949
00387	957574	9.818212	0.176610	0.195951				-0.002354	-0.002098	-0.002140				35.591785	-88.226343	-167.430569
00388	957624	9.845770	0.156673	0.207896				-0.007547	0.003237	-0.002234				35.588930	-88.225290	-167.429904
00389	957674	9.814533	0.176079	0.215379				-0.002767	-0.002303	-0.004485				35.619988	-88.225467	-167.459480
00390	957724	9.817459	0.155580	0.207756				-0.001299	0.001182	-0.002803				35.634373	-88.224753	-167.474254
00391	957774	9.822413	0.179828	0.204309				-0.006003	-0.002035	-0.001621				35.641057	-88.225528	-167.480415
00392	957824	9.826906	0.183058	0.202487				0.000072	0.002406	-0.002895				35.649963	-88.224312	-167.489234
00393	957874	9.820866	0.190563	0.201019				-0.005127	-0.000208	-0.001583				35.646988	-88.224664	-167.485517
00394	957924	9.802422	0.183759	0.194150				-0.001093	-0.000165	-0.002071				35.663040	-88.224474	-167.501932
00395	957974	9.805856	0.187942	0.207609				-0.002104	0.000232	-0.003638				35.673582	-88.224831	-167.510976
00396	958024	9.821332	0.187078	0.209825				-0.005286	-0.001404	-0.001425				35.690277	-88.224998	-167.529228
00397	958074	9.817477	0.187576	0.177758				-0.004081	-0.000735	-0.000143				35.679940	-88.225313	-167.517630
00398	958124	9.811887	0.183289	0.204147				-0.001947	-0.001638	-0.001340				35.698227	-88.225525	-167.536509
00399	958174	9.802888	0.182855	0.196530				-0.002817	-0.000293	-0.000978				35.691829	-88.225861	-167.528588
00400	958224	9.817772	0.172280	0.200293				-0.002030	0.000012	-0.001522				35.702400	-88.225757	-167.539805
00401	958274	9.823777	0.184979	0.204124				-0.004326	-0.000560	-0.005917				35.734069	-88.226015	-167.570689
00402	958324	9.818335	0.201371	0.203910				-0.003354	0.001537	-0.001001				35.732277	-88.225386	-167.569820
00403	958374	9.819896	0.169742	0.207585				-0.005122	0.002871	0.000262				35.698700	-88.225749	-167.535623
00404	958424	9.811576	0.193665	0.195040				-0.004345	-0.000972	-0.004086				35.733334	-88.225338	-167.571543
00405	958474	9.809032	0.169623	0.193145				-0.005940	-0.000767	0.000148				35.720145	-88.225851	-167.557667
00406	958524	9.804111	0.181174	0.195166				-0.004411	0.002623	0.000934				35.697834	-88.225142	-167.536517
00407	958574	9.817139	0.187273	0.194767				-0.003199	-0.002728	-0.002658				35.716709	-88.226541	-167.554296
00408	958624	9.802912	0.178006	0.204446				-0.006321	-0.000136	-0.004174				35.746932	-88.225835	-167.586328
00409	958674	9.805178	0.183839	0.210938				-0.003576	0.001172	-0.004271				35.757403	-88.225756	-167.595743
00410	958724	9.817843	0.181371	0.207215				-0.004522	-0.001128	0.000851				35.755610	-88.226414	-167.595336
00411	958774	9.815855	0.179987	0.223387				-0.004505	0.001487	-0.000611				35.736218	-88.226783	-167.575077
00412	958824	9.818226	0.191258	0.204267				-0.002743	0.003319	-0.004518				35.751357	-88.225286	-167.591022
00413	958874	9.810389	0.191687	0.199443				-0.002324	0.002201	-0.002667				35.745064	-88.224073	-167.582808
00414	958924	9.815600	0.186659	0.175208				-0.005415	0.001626	-0.003655				35.761977	-88.223284	-167.601355
00415	958974	9.822757	0.178234	0.190479				-0.007261	-0.000964	-0.005171				35.789469	-88.223205	-167.628678
00416	959024	9.803575	0.187590	0.193178				-0.000765	0.000781	0.000337				35.782481	-88.223097	-167.621912
00417	959074	9.805485	0.197244	0.172365				-0.001720	0.001304	-0.002991				35.782806	-88.223276	-167.620629
00418	959124	9.810192	0.187805	0.199921				-0.003854	0.002342	0.000387				35.766295	-88.222792	-167.605209
00419	959174	9.803905	0.194765	0.201900				-0.001255	0.004394	0.000875				35.720944	-88.222739	-167.558071
00420	959224	9.834595	0.179858	0.197594				-0.005637	0.000886	0.000606				35.709939	-88.222536	-167.548636
00421	959274	9.820535	0.182581	0.194125				-0.001720	0.003373	-0.003176				35.700725	-88.222061	-167.537778
00422	959324	9.820909	0.179989	0.215903				-0.004430	0.001900	-0.003593				35.716078	-88.221140	-167.554458
00423	959374	9.803687	0.198887	0.189781				-0.007305	-0.003482	-0.002908				35.740202	-88.221985	-167.578436
00424	959424	9.810802	0.165797	0.184761				-0.002854	0.000671	-0.002547				35.754698	-88.221388	-167.593752
00425	959474	9.804550	0.188353	0.187354				-0.002369	-0.002415	0.000361				35.750112	-88.222430	-167.587526
00426	959524	9.807329	0.172211	0.195199				-0.003711	0.003830	-0.000633				35.733278	-88.221534	-167.571783
00427	959574	9.806209	0.187464	0.190805				-0.002408	0.000709	-0.002994				35.736494	-88.221705	-167.573554
00428	959624	9.795012	0.188210	0.189673				-0.001574	0.000992	0.000694				35.725344	-88.221680	-167.562886
00429	959674	9.800949	0.189594	0.189877				-0.003445	0.002113	-0.004426				35.731673	-88.221090	-167.567981
00430	959724	9.819544	0.185589	0.194339				-0.002553	0.001652	-0.000066				35.722620	-88.220716	-167.559659
00431	959774	9.808597	0.186993	0.189974				-0.002374	-0.002355	-0.001534				35.731814	-88.221437	-167.567226
00432	959824	9.801563	0.192531	0.198655				-0.003456	-0.001539	-0.001785				35.752427	-88.221685	-167.588911
00433	959874	9.815882	0.176434	0.189041				-0.003382	0.000419	0.001023				35.727158	-88.222162	-167.562290
00434	959924	9.800777	0.193810	0.209076				-0.006621	0.001296	-0.003926				35.747966	-88.221005	-167.584928
00435	959974	9.814428	0.191692	0.200622				-0.002375	0.001957	-0.002460				35.740018	-88.221296	-167.575641
00436	960024	9.808724	0.176720	0.189775				-0.003696	-0.000907	0.000738				35.738375	-88.221612	-167.575046
00437	960074	9.816089	0.189223	0.207529				-0.006759	0.001817	-0.000782				35.717792	-88.221938	-167.554243
00438	960124	9.810852	0.180182	0.185722				-0.004114	0.001219	-0.000018				35.710327	-88.221480	-167.547885
00439	960174	9.833043	0.183950	0.210515				-0.004835	0.000749	-0.000536				35.694039	-88.222373	-167.530945
00440	960224	9.826767	0.194161	0.203125				-0.005604	0.000541	-0.001691				35.702330	-88.221838	-167.540801
00441	960274	9.803958	0.194185	0.194170				-0.000688	0.000440	0.001118				35.676832	-88.222656	-167.513315
00442	960324	9.813874	0.180107	0.198168				-0.005410	0.000579	-0.000340				35.674729	-88.222282	-167.512692
00443	960374	9.806338	0.191327	0.199682				-0.000884	0.000401	-0.000069				35.658213	-88.223020	-167.494240
00444	960424	9.819713	0.172930	0.192363				-0.003535	-0.001237	-0.003533				35.690237	-88.222734	-167.527299
00445	960474	9.822724	0.177575	0.196032				-0.003501	0.002098	-0.001080				35.671689	-88.222639	-167.507484
00446	960524	9.812764	0.181037	0.182767				-0.001305	-0.001744	-0.002126				35.696620	-88.222718	-167.532812
00447	960574	9.811808	0.170774	0.204651				-0.003289	0.000092	-0.003269				35.705367	-88.223003	-167.540341
00448	960624	9.811018	0.180803	0.195797				-0.000792	-0.000663	-0.001453				35.719678	-88.222828	-167.554856
00449	960674	9.810274	0.185800	0.191760				-0.005387	0.002003	-0.000109				35.693438	-88.223164	-167.527988
00450	960724	9.815974	0.199623	0.204662				-0.007421	0.001384	-0.001068				35.691817	-88.222532	-167.528442
00451	960774	9.818491	0.175297	0.191599				-0.006770	-0.002167	-0.002117				35.703319	-88.223315	-167.539663
00452	960824	9.812109	0.189684	0.194347				-0.005315	0.000480	-0.002205				35.715625	-88.222811	-167.553495
00453	960874	9.824063	0.183235	0.200882				-0.004733	0.003632	-0.000841				35.686086	-88.223041	-167.523248
00454	960924	9.815569	0.194714	0.202650				-0.004277	-0.000729	-0.000320				35.691229	-88.223065	-167.529578
00455	960974	9.800347	0.181286	0.188398				-0.004982	-0.000936	-0.003461				35.706463	-88.223421	-167.544065
00456	961024	9.804150	0.179536	0.192811				-0.004298	0.002959	-0.001422				35.699918	-88.222626	-167.538797
00457	961074	9.821503	0.189152	0.216802				-0.007629	-0.000202	-0.001624				35.696624	-88.222865	-167.535392
00458	961124	9.828377	0.165723	0.192509				-0.001679	-0.001272	-0.004053				35.733517	-88.222216	-167.572679
00459	961174	9.823968	0.194759	0.191681				-0.004661	0.001237	-0.000308				35.713157	-88.222976	-167.551608
00460	961224	9.822054	0.186967	0.209194				-0.004397	0.000784	-0.004998				35.745111	-88.221990	-167.584849
00461	961274	9.818995	0.192614	0.192660				-0.003547	0.001384	-0.002655				35.742010	-88.221914	-167.580560
00462	961324	9.807565	0.168586	0.203286				-0.002716	0.002366	-0.003546				35.755173	-88.220596	-167.594443
00463	961374	9.823198	0.183206	0.184563				-0.001010	0.003503	0.000593				35.716994	-88.220609	-167.554342
00464	961424	9.812425	0.187691	0.184788				-0.004452	0.001529	-0.002807				35.728527	-88.219830	-167.567170
00465	961474	9.822397	0.183829	0.197392				-0.003847	-0.001406	-0.003470				35.746544	-88.220287	-167.584152
00466	961524	9.809540	0.170761	0.186461				-0.004698	0.001203	-0.002427				35.757034	-88.219630	-167.596003
00467	961574	9.795074	0.184284	0.187211				-0.004979	-0.002097	-0.003053				35.775287	-88.219982	-167.613382
00468	961624	9.832330	0.204107	0.207675				-0.005350	0.001711	-0.002258				35.781316	-88.219246	-167.620960
00469	961674	9.826735	0.157914	0.202965				-0.000959	0.001557	-0.003881				35.787611	-88.218952	-167.625340
00470	961724	9.820144	0.188019	0.207484				-0.004960	0.000753	0.000526				35.778334	-88.218803	-167.617453
00471	961774	9.803161	0.180695	0.197033				-0.004175	0.001824	-0.004344				35.785556	-88.218130	-167.623567
00472	961824	9.799920	0.187371	0.206193				-0.002070	0.001445	-0.000282				35.779306	-88.217758	-167.617914
00473	961874	9.840500	0.166429	0.193714				-0.001629	-0.000288	0.000346				35.763295	-88.218690	-167.600184
00474	961924	9.820390	0.171623	0.201827				-0.006483	0.002979	-0.004368				35.778162	-88.217242	-167.616902
00475	961974	9.799816	0.194285	0.209079				-0.009324	0.001669	-0.003593				35.778832	-88.217097	-167.618100
00476	962024	9.783825	0.197552	0.208051				-0.005683	0.003520	0.000511				35.754285	-88.216596	-167.595256
00477	962074	9.821640	0.184587	0.203461				-0.004760	0.004667	0.001055				35.705663	-88.216365	-167.545755
00478	962124	9.820419	0.193717	0.190726				-0.004978	0.001431	0.001716				35.683695	-88.216265	-167.525182
00479	962174	9.799741	0.189493	0.192568				-0.001159	0.002010	-0.001978				35.672808	-88.216323	-167.512485
00480	962224	9.812054	0.191403	0.199475				-0.003336	-0.003132	0.000019				35.688706	-88.217023	-167.529329
00481	962274	9.803608	0.204911	0.190565				-0.001271	-0.000475	0.000219				35.674860	-88.217846	-167.513628
00482	962324	9.817046	0.192937	0.197869				-0.001417	-0.000031	-0.000097				35.675276	-88.217893	-167.514475
00483	962374	9.831385	0.171394	0.194699				-0.004929	-0.000713	-0.003627				35.690318	-88.218488	-167.528894
00484	962424	9.839617	0.163777	0.188888				-0.004849	-0.002327	-0.004277				35.733442	-88.218353	-167.573446
00485	962474	9.799596	0.198940	0.196595				-0.006194	0.000916	-0.003445				35.737978	-88.218211	-167.577611
00486	962524	9.825190	0.191237	0.194812				-0.004540	0.002466	-0.001781				35.736785	-88.217360	-167.577720
00487	962574	9.800999	0.200125	0.198308				-0.003163	0.004458	-0.003628				35.724691	-88.216308	-167.564281
00488	962624	9.821579	0.174140	0.195069				-0.000622	0.001116	-0.001830				35.731984	-88.215934	-167.571829
00489	962674	9.809289	0.184228	0.198716				-0.002483	0.002477	0.000463				35.700518	-88.215541	-167.538613
00490	962724	9.816714	0.185946	0.188331				-0.001975	0.000252	-0.001731				35.711524	-88.215159	-167.550175
00491	962774	9.810945	0.191622	0.185850				-0.003343	-0.004041	-0.000983				35.725215	-88.216507	-167.562620
00492	962824	9.848373	0.160243	0.203530				-0.004071	0.000799	0.000068				35.719458	-88.216235	-167.557987
00493	962874	9.818953	0.168266	0.209245				-0.003073	0.003018	0.002137				35.671552	-88.217182	-167.508976
00494	962924	9.829090	0.161273	0.201670				-0.002411	-0.000147	-0.002056				35.686983	-88.216963	-167.525144
00495	962974	9.808353	0.182614	0.199540				-0.003277	-0.003233	-0.001551				35.700538	-88.218222	-167.537485
00496	963024	9.822126	0.183125	0.204223				-0.002012	0.002643	-0.001208				35.694797	-88.217425	-167.532325
00497	963074	9.833502	0.164649	0.212258				-0.001106	0.001529	0.001349				35.661920	-88.217836	-167.497466
00498	963124	9.819828	0.175701	0.206561				-0.001023	0.000952	0.000769				35.650762	-88.217709	-167.486583
00499	963174	9.805408	0.186989	0.204718				-0.005164	0.001042	0.000782				35.623372	-88.218206	-167.458438
00500	963224	9.815255	0.188262	0.189051				-0.004067	0.000738	-0.000410				35.621317	-88.217973	-167.457556
00501	963274	9.807530	0.189014	0.204007				-0.002624	0.002564	-0.003196				35.616317	-88.217787	-167.451225
00502	963324	9.803229	0.191678	0.200996				-0.003604	-0.003683	0.002006				35.620037	-88.218739	-167.455887
00503	963374	9.806856	0.169828	0.198976				-0.003460	0.002612	-0.004090				35.621427	-88.217982	-167.456023
00504	963424	9.826069	0.176374	0.197563				-0.004606	-0.002633	0.000087				35.633666	-88.218648	-167.469600
00505	963474	9.817862	0.188803	0.189728				-0.001909	0.000446	-0.000865				35.622537	-88.219592	-167.457009
00506	963524	9.820708	0.194326	0.219003				-0.001782	0.002486	-0.001113				35.616977	-88.218841	-167.451967
00507	963574	9.808129	0.183341	0.197338				-0.002431	0.003732	-0.002290				35.598914	-88.218312	-167.432398
00508	963624	9.818767	0.192612	0.190284				-0.003236	0.000876	0.000102				35.592367	-88.218357	-167.426863
00509	963674	9.802579	0.170190	0.195692				-0.001674	0.002106	-0.000570				35.571045	-88.217921	-167.403587
00510	963724	9.821182	0.181249	0.206807				-0.004314	0.001210	-0.001399				35.573892	-88.217440	-167.407679
00511	963774	9.826719	0.189416	0.181074				-0.003521	-0.001290	0.001631				35.552847	-88.218491	-167.385351
00512	963824	9.842812	0.170803	0.197555				-0.006375	0.000653	-0.002556				35.566604	-88.217979	-167.400974
00513	963874	9.804836	0.197541	0.198752				-0.002737	0.001171	-0.001694				35.557928	-88.218357	-167.390882
00514	963924	9.797747	0.197327	0.191028				-0.003813	-0.001170	-0.000606				35.567467	-88.218653	-167.401565
00515	963974	9.819336	0.195064	0.170081				-0.003986	-0.001243	-0.004013				35.588721	-88.218798	-167.421730
00516	964024	9.816227	0.178063	0.206029				-0.002979	-0.002159	0.000437				35.596272	-88.219234	-167.430084
00517	964074	9.803505	0.188106	0.202818				-0.003658	0.002097	0.001363				35.559138	-88.220017	-167.391848
00518	964124	9.794429	0.175902	0.192750				-0.003791	-0.001337	-0.004204				35.596782	-88.219526	-167.430565
00519	964174	9.818985	0.183287	0.212301				-0.000951	0.000394	-0.002283				35.596956	-88.219669	-167.428794
00520	964224	9.809073	0.197873	0.207336				-0.003291	0.001621	-0.000083				35.588076	-88.219252	-167.420843
00521	964274	9.806173	0.187845	0.195766				-0.005878	-0.002015	-0.001314				35.592644	-88.220400	-167.425004
00522	964324	9.808136	0.203075	0.193334				0.000866	-0.002478	-0.001433				35.617103	-88.220649	-167.449188
00523	964374	9.803875	0.196433	0.202210				-0.004394	-0.003988	0.001302				35.613471	-88.222284	-167.444542
00524	964424	9.812177	0.189392	0.183783				-0.003913	-0.001438	-0.005008				35.657428	-88.222127	-167.489768
00525	964474	9.805568	0.180556	0.192468				-0.000557	0.000245	-0.001193				35.650687	-88.222423	-167.480911
00526	964524	9.805517	0.190440	0.219932				-0.001648	0.004659	0.002879				35.603550	-88.221808	-167.434217
00527	964574	9.801115	0.203721	0.210884				-0.004365	-0.000180	-0.002880				35.610218	-88.222118	-167.439975
00528	964624	9.799580	0.184345	0.190421				-0.007638	0.003023	-0.003336				35.616728	-88.220782	-167.448651
00529	964674	9.795491	0.184815	0.195678				-0.005073	0.001303	0.000400				35.590995	-88.221555	-167.422295
00530	964724	9.791408	0.194998	0.180879				-0.005013	0.002363	-0.000782				35.582890	-88.220705	-167.415561
00531	964774	9.822486	0.171456	0.209919				-0.005473	0.001644	-0.001748				35.571317	-88.220737	-167.403322
00532	964824	9.808270	0.187999	0.202576				-0.002059	0.003230	-0.000207				35.554896	-88.219970	-167.387493
00533	964874	9.830813	0.175118	0.202939				-0.000910	0.001813	-0.005261				35.569761	-88.219627	-167.400503
00534	964924	9.824434	0.192424	0.197616				-0.004406	0.000835	0.005428				35.523387	-88.220354	-167.355377
00535	964974	9.829073	0.162441	0.202189				-0.006752	0.001296	-0.002675				35.520560	-88.219972	-167.352123
00536	965024	9.810211	0.168134	0.197696				-0.001109	-0.000671	0.000092				35.523141	-88.220193	-167.355045
00537	965074	9.804969	0.172027	0.191608				-0.003047	0.003882	-0.001454				35.497748	-88.219767	-167.328331
00538	965124	9.814400	0.178734	0.193222				-0.002980	0.002851	-0.001202				35.490656	-88.218880	-167.322081
00539	965174	9.832158	0.176504	0.215375				-0.002930	0.002302	-0.001723				35.475697	-88.219130	-167.305888
00540	965224	9.820284	0.170800	0.219667				-0.004100	-0.001238	-0.000066				35.481752	-88.219344	-167.313100
00541	965274	9.831067	0.172084	0.206548				-0.004713	0.005183	-0.000288				35.440492	-88.218496	-167.270852
00542	965324	9.819404	0.192924	0.201517				-0.002380	-0.000047	-0.001381				35.450447	-88.218375	-167.281527
00543	965374	9.801846	0.204182	0.208123				-0.002400	0.001668	-0.000694				35.431385	-88.218751	-167.261007
00544	965424	9.804795	0.186508	0.189316				-0.006108	-0.000662	-0.001499				35.444578	-88.218506	-167.275898
00545	965474	9.801540	0.198511	0.190320				-0.003777	-0.001363	0.000221				35.434627	-88.219587	-167.264828
00546	965524	9.828930	0.174219	0.201230				-0.004344	0.001603	0.000689				35.419590	-88.219370	-167.251045
00547	965574	9.801979	0.189957	0.175715				-0.003731	0.001287	-0.001109				35.405638	-88.219485	-167.235927
00548	965624	9.806894	0.186414	0.197788				-0.000352	0.002670	-0.002973				35.413518	-88.218416	-167.243930
00549	965674	9.809424	0.186671	0.210456				-0.000281	0.000738	0.000928				35.388140	-88.218900	-167.216389
00550	965724	9.803260	0.188310	0.203749				-0.005715	0.001452	0.001142				35.369978	-88.218871	-167.199901
00551	965774	9.808501	0.193891	0.191978				-0.003184	0.000067	-0.002211				35.371224	-88.218940	-167.199778
00552	965824	9.822371	0.160279	0.212282				-0.005799	0.001799	-0.000078				35.360546	-88.218497	-167.190759
00553	965874	9.811283	0.178682	0.195030				-0.004739	-0.000478	-0.003010				35.370082	-88.218855	-167.199457
00554	965924	9.828485	0.188196	0.205453				-0.002196	-0.001656	0.000179				35.376834	-88.219318	-167.206859
00555	965974	9.825344	0.184511	0.183259				-0.006731	-0.001419	-0.002628				35.387409	-88.220134	-167.217245
00556	966024	9.803017	0.187722	0.206385				-0.005779	-0.001144	-0.003748				35.420049	-88.219774	-167.251556
00557	966074	9.823045	0.166925	0.204216				-0.005651	-0.003616	0.004159				35.391862	-88.222128	-167.222832
00558	966124	9.807350	0.184452	0.204223				-0.004129	0.001603	-0.002618				35.401811	-88.221296	-167.233961
00559	966174	9.817701	0.175111	0.204724				-0.000101	0.002737	-0.003232				35.397096	-88.220936	-167.227133
00560	966224	9.821879	0.173818	0.186669				-0.003483	0.000218	-0.003495				35.421223	-88.220390	-167.252302
00561	966274	9.805079	0.188893	0.176937				-0.004227	0.001568	-0.002585				35.416782	-88.220092	-167.246905
00562	966324	9.824100	0.165860	0.190193				-0.004814	-0.001288	-0.003688				35.449926	-88.219904	-167.281491
00563	966374	9.792961	0.203808	0.181526				-0.006293	0.001109	-0.001490				35.439101	-88.219645	-167.270083
00564	966424	9.820401	0.190620	0.199520				-0.005984	-0.000792	-0.003170				35.465566	-88.219137	-167.298215
00565	966474	9.801778	0.180840	0.188362				-0.002658	-0.002478	-0.002676				35.483252	-88.220497	-167.314658
00566	966524	9.795599	0.195077	0.196380				-0.001264	-0.000060	-0.002245				35.499748	-88.220417	-167.331627
00567	966574	9.826085	0.195977	0.193021				-0.006302	-0.000699	-0.001504				35.498737	-88.220858	-167.330157
00568	966624	9.811545	0.195423	0.197033				-0.003944	0.002129	0.000814				35.479972	-88.220507	-167.312519
00569	966674	9.819074	0.179813	0.204833				-0.006729	0.000875	-0.001716				35.472121	-88.220563	-167.304337
00570	966724	9.817077	0.191736	0.194725				-0.004665	-0.001639	-0.001223				35.488645	-88.220718	-167.322197
00571	966774	9.817507	0.174197	0.199260				-0.004160	-0.002600	-0.001618				35.499239	-88.221650	-167.331756
00572	966824	9.816458	0.172762	0.180766				-0.003447	0.003430	-0.000816				35.486092	-88.220880	-167.319647
00573	966874	9.809878	0.175191	0.199131				-0.002106	-0.000455	0.000767				35.467478	-88.221989	-167.299540
00574	966924	9.822541	0.177953	0.186898				-0.002445	0.002216	0.001041				35.446991	-88.221880	-167.279831
00575	966974	9.801420	0.201623	0.204216				-0.008261	-0.000407	0.000236				35.430417	-88.222644	-167.263367
00576	967024	9.803260	0.185753	0.209510				-0.004460	0.001948	-0.001939				35.433260	-88.221919	-167.267505
00577	967074	9.814421	0.190615	0.203184				-0.005290	-0.001000	0.001124				35.414369	-88.222937	-167.247861
00578	967124	9.827587	0.189281	0.194730				-0.001609	0.000066	0.000130				35.412428	-88.223132	-167.246447
00579	967174	9.813603	0.160223	0.204135				-0.007696	-0.001076	-0.000861				35.407866	-88.223892	-167.241884
00580	967224	9.823758	0.171062	0.196771				-0.004009	0.002830	-0.002773				35.412042	-88.223382	-167.247434
00581	967274	9.800697	0.192877	0.224339				-0.005623	-0.001048	-0.004874				35.438884	-88.222546	-167.273393
00582	967324	9.820933	0.162916	0.206743				-0.004415	-0.000469	-0.000671				35.445115	-88.222712	-167.280951
00583	967374	9.821226	0.154250	0.215907				-0.003603	0.003260	-0.002639				35.432153	-88.222331	-167.266850
00584	967424	9.833285	0.172541	0.192805				-0.003343	0.000196	0.000162				35.428736	-88.222476	-167.264453
00585	967474	9.821171	0.192208	0.187603				-0.004204	0.000859	-0.001244				35.417855	-88.222544	-167.252494
00586	967524	9.813271	0.181163	0.216387				-0.005273	0.000519	0.000812				35.407434	-88.222637	-167.243612
00587	967574	9.839865	0.185907	0.180364				-0.005761	0.003643	-0.001512				35.383231	-88.222222	-167.218851
00588	967624	9.820167	0.179741	0.182397				-0.006154	0.003861	-0.002438				35.379245	-88.220754	-167.216570
00589	967674	9.828090	0.169534	0.191843				-0.003784	-0.000630	-0.004845				35.403519	-88.220936	-167.239822
00590	967724	9.804072	0.192769	0.178118				-0.004210	0.001382	0.001971				35.380229	-88.220908	-167.217716
00591	967774	9.803819	0.163592	0.201874				-0.003687	0.002511	-0.004503				35.385140	-88.220421	-167.221551
00592	967824	9.829158	0.172507	0.205761				-0.004356	-0.000306	0.000004				35.385757	-88.220247	-167.223326
00593	967874	9.800241	0.167504	0.232934				-0.005021	-0.002644	-0.000940				35.390902	-88.221644	-167.227828
00594	967924	9.826607	0.170226	0.199976				-0.003385	-0.001682	-0.001515				35.410203	-88.221758	-167.248101
00595	967974	9.807102	0.162953	0.211191				-0.002853	0.001854	-0.000083				35.385530	-88.222326	-167.222160
00596	968024	9.805420	0.194193	0.189159				-0.002346	0.002824	-0.004668				35.404846	-88.220819	-167.242133
00597	968074	9.833098	0.167343	0.195701				-0.003468	0.000739	-0.003491				35.412311	-88.220653	-167.248360
00598	968124	9.800895	0.185300	0.207189				-0.002759	0.002724	-0.003611				35.424348	-88.219164	-167.261099
00599	968174	9.814124	0.159018	0.200563				-0.004195	0.000662	-0.002368				35.422554	-88.219721	-167.258467
00600	968224	9.796129	0.208141	0.199159				-0.001480	-0.002331	-0.003957				35.464378	-88.219557	-167.300717
00601	968274	9.820454	0.184380	0.203505				-0.005123	0.002617	-0.002001				35.449701	-88.219007	-167.285160
00602	968324	9.809655	0.172108	0.203232				-0.002458	0.000468	-0.000478				35.450179	-88.218850	-167.286352
00603	968374	9.818624	0.178632	0.202692				-0.004049	0.002315	0.000114				35.421274	-88.219397	-167.256570
00604	968424	9.804735	0.183940	0.204349				-0.005320	0.004877	-0.002082				35.409229	-88.218033	-167.246090
00605	968474	9.809792	0.186851	0.189375				-0.002097	0.002092	-0.002685				35.403328	-88.217593	-167.238497
00606	968524	9.821155	0.173211	0.190472				-0.003765	0.001121	-0.002529				35.415172	-88.216960	-167.251444
00607	968574	9.816624	0.168970	0.199309				-0.002791	-0.002319	-0.001679				35.425000	-88.217978	-167.259903
00608	968624	9.807970	0.177115	0.196988				-0.005080	0.000265	-0.000408				35.425161	-88.217819	-167.261502
00609	968674	9.807494	0.186732	0.175816				-0.006447	0.004249	0.001442				35.375295	-88.217958	-167.211329
00610	968724	9.832218	0.180768	0.196267				-0.005810	0.003288	-0.000972				35.363302	-88.217239	-167.201074
00611	968774	9.838683	0.171729	0.209188				-0.006204	0.004309	-0.004043				35.354794	-88.216368	-167.192183
00612	968824	9.826825	0.170275	0.202118				-0.002721	-0.001575	-0.002734				35.382880	-88.216289	-167.221067
00613	968874	9.808416	0.170966	0.213556				-0.003095	0.000463	-0.000543				35.369522	-88.216529	-167.206293
00614	968924	9.800338	0.198910	0.191306				-0.003596	0.000292	0.002766				35.346188	-88.216782	-167.183925
00615	968974	9.807697	0.179848	0.195892				0.000027	0.001933	-0.001986				35.336469	-88.216836	-167.172040
00616	969024	9.811934	0.184074	0.195327				-0.004771	0.000784	-0.001207				35.340026	-88.216423	-167.176953
00617	969074	9.822519	0.184053	0.176481				-0.001107	-0.002673	0.000751				35.333953	-88.218050	-167.169068
00618	969124	9.819239	0.169668	0.197873				-0.002114	0.000765	-0.001186				35.338194	-88.217553	-167.173867
00619	969174	9.814888	0.187186	0.211819				-0.006236	-0.002439	0.002436				35.316852	-88.219189	-167.152069
00620	969224	9.798942	0.193192	0.199286				-0.007199	0.002420	-0.003088				35.325069	-88.218225	-167.162395
00621	969274	9.831216	0.166798	0.193273				-0.002880	0.000720	-0.000796				35.312210	-88.218453	-167.148056
00622	969324	9.813692	0.183144	0.182553				-0.002438	-0.002212	-0.001007				35.330862	-88.218822	-167.167419
00623	969374	9.822142	0.185634	0.198698				-0.004645	0.002658	-0.002129				35.316823	-88.218568	-167.152510
00624	969424	9.815218	0.172656	0.186902				-0.003825	-0.000041	-0.002887				35.337520	-88.218355	-167.174409
00625	969474	9.795501	0.201203	0.200703				-0.003701	0.004388	-0.002471				35.317516	-88.217396	-167.153188
00626	969524	9.804897	0.200914	0.221726				-0.002345	0.001056	-0.000056				35.311611	-88.217162	-167.147960
00627	969574	9.811035	0.198129	0.196793				-0.005717	0.001316	-0.000881				35.295493	-88.217221	-167.131218
00628	969624	9.818722	0.193989	0.194859				-0.002592	0.002531	-0.003160				35.305058	-88.215970	-167.141479
00629	969674	9.809541	0.183078	0.199141				-0.005688	-0.000847	-0.001343				35.303724	-88.217024	-167.139698
00630	969724	9.832094	0.187567	0.201241				-0.004371	0.001408	0.000333				35.292483	-88.216782	-167.129722
00631	969774	9.817531	0.190454	0.202255				-0.004255	0.001667	-0.000787				35.274254	-88.216528	-167.110347
00632	969824	9.806638	0.176208	0.182619				-0.001348	-0.000357	-0.003278				35.300485	-88.215876	-167.136907
00633	969874	9.815535	0.204920	0.187400				-0.002688	0.000718	-0.001700				35.294088	-88.216316	-167.129115
00634	969924	9.819196	0.177478	0.189590				-0.006982	0.002707	-0.003479				35.303684	-88.215249	-167.140769
00635	969974	9.802279	0.187989	0.169315				-0.001649	0.002254	-0.001919				35.291223	-88.215292	-167.126595
00636	970024	9.816448	0.172132	0.183139				-0.005008	0.002867	-0.004060				35.304991	-88.213922	-167.141802
00637	970074	9.794733	0.188172	0.196187				0.002987	0.002660	-0.000772				35.283278	-88.214238	-167.117136
00638	970124	9.810803	0.177916	0.197640				0.001872	-0.002823	-0.001254				35.308295	-88.214628	-167.141598
00639	970174	9.804799	0.183529	0.195179				-0.003969	0.002927	-0.000723				35.282523	-88.214487	-167.114756
00640	970224	9.805878	0.179130	0.222638				-0.001854	-0.000404	-0.000937				35.291189	-88.214436	-167.123960
00641	970274	9.811673	0.188182	0.190232				-0.003584	-0.001299	0.000151				35.281945	-88.215237	-167.113467
00642	970324	9.818387	0.179693	0.201512				-0.003870	0.001337	-0.003970				35.303641	-88.214057	-167.136217
00643	970374	9.838183	0.161255	0.193946				-0.002902	-0.001806	-0.000980				35.305092	-88.215305	-167.136405
00644	970424	9.834086	0.162982	0.199232				-0.002657	-0.000253	0.000022				35.305529	-88.215397	-167.137616
00645	970474	9.827839	0.168909	0.196892				-0.008296	0.001614	-0.003672				35.308042	-88.215079	-167.140278
00646	970524	9.818788	0.171221	0.191170				-0.003701	-0.002918	-0.000758				35.328129	-88.215773	-167.161485
00647	970574	9.821603	0.170687	0.199856				-0.004262	0.000882	-0.002147				35.323757	-88.215990	-167.156103
00648	970624	9.826559	0.183119	0.180807				-0.002488	0.000269	-0.001897				35.335924	-88.215484	-167.168945
00649	970674	9.816805	0.190021	0.203916				-0.002147	-0.000245	-0.001615				35.334061	-88.216065	-167.165546
00650	970724	9.820877	0.179832	0.221320				-0.003023	-0.002036	-0.001909				35.358186	-88.216433	-167.190624
00651	970774	9.812741	0.180503	0.187172				0.000352	0.000671	-0.001586				35.352528	-88.216641	-167.182638
00652	970824	9.819881	0.161576	0.188063				-0.004646	-0.000255	-0.000934				35.359619	-88.216537	-167.191052
00653	970874	9.823246	0.192286	0.198121				-0.003444	0.001284	-0.002208				35.353836	-88.216606	-167.184049
00654	970924	9.812782	0.190895	0.198460				-0.001685	0.000642	0.000956				35.342777	-88.216470	-167.173409
00655	970974	9.813270	0.181405	0.176660				0.000060	0.000391	0.004897				35.289785	-88.218004	-167.118217
00656	971024	9.815129	0.176606	0.195049				-0.002095	0.000273	-0.000454				35.291024	-88.217799	-167.120033
00657	971074	9.812970	0.182939	0.185251				-0.003649	0.000633	-0.003014				35.294731	-88.217981	-167.122630
00658	971124	9.823018	0.174021	0.194072				-0.004234	0.002212	-0.000374				35.284631	-88.217292	-167.113703
00659	971174	9.835349	0.164140	0.185058				-0.007030	-0.000878	-0.000707				35.278483	-88.217957	-167.107302
00660	971224	9.825490	0.172434	0.182822				-0.002386	0.000298	-0.001484				35.287450	-88.217609	-167.116946
00661	971274	9.803856	0.188439	0.181591				-0.003991	-0.002466	0.002038				35.269620	-88.219175	-167.098013
00662	971324	9.806134	0.189281	0.198893				-0.004659	-0.000969	-0.003791				35.301710	-88.218945	-167.131514
00663	971374	9.810853	0.189954	0.203882				-0.002841	-0.001743	-0.002036				35.311463	-88.219504	-167.139798
00664	971424	9.835184	0.193269	0.190529				-0.004587	-0.003263	-0.002620				35.347229	-88.219923	-167.176927
00665	971474	9.829722	0.181981	0.211581				-0.002097	0.002311	-0.001889				35.334294	-88.219518	-167.162292
00666	971524	9.807438	0.202995	0.191965				-0.003596	0.001664	-0.006857				35.376032	-88.218102	-167.205118
00667	971574	9.822800	0.185494	0.207357				-0.003847	0.003055	-0.001914				35.357942	-88.218370	-167.186140
00668	971624	9.812922	0.199319	0.197935				-0.002111	0.001595	-0.002755				35.369484	-88.217408	-167.198241
00669	971674	9.810514	0.184147	0.193600				-0.001825	-0.002238	-0.000792				35.372794	-88.218429	-167.199851
00670	971724	9.801684	0.172382	0.181623				-0.003200	-0.002561	-0.002359				35.403170	-88.218754	-167.231199
00671	971774	9.820678	0.191338	0.191671				-0.003368	-0.000970	0.001372				35.382572	-88.219812	-167.209316
00672	971824	9.818767	0.187154	0.201103				-0.000672	0.002988	-0.000028				35.366648	-88.218877	-167.193493
00673	971874	9.815458	0.179902	0.211392				-0.001356	0.001227	0.000282				35.342889	-88.219846	-167.168104
00674	971924	9.810541	0.179825	0.198740				-0.004731	0.002295	-0.003230				35.353492	-88.218915	-167.180122
00675	971974	9.797017	0.192850	0.201372				-0.004599	-0.000706	-0.001769				35.354803	-88.219471	-167.180566
00676	972024	9.808783	0.180019	0.212808				-0.002819	-0.000386	-0.004209				35.387677	-88.218892	-167.214273
00677	972074	9.809854	0.193415	0.204210				-0.002868	0.001429	0.000232				35.363247	-88.219156	-167.188395
00678	972124	9.797929	0.189277	0.216512				-0.006127	0.001339	0.000752				35.348719	-88.218993	-167.175617
00679	972174	9.815741	0.178003	0.208974				0.000214	0.002255	-0.000869				35.329011	-88.218840	-167.153614
00680	972224	9.816406	0.183336	0.205332				-0.007026	-0.000877	-0.000736				35.337360	-88.218883	-167.163972
00681	972274	9.817953	0.171389	0.210323				-0.002192	-0.002055	-0.002327				35.350682	-88.219909	-167.175831
00682	972324	9.834644	0.179424	0.190087				-0.003108	-0.002227	0.000846				35.355428	-88.220397	-167.181404
00683	972374	9.826441	0.164371	0.200360				-0.007319	0.001117	-0.003615				35.360213	-88.220419	-167.186176
00684	972424	9.803110	0.182637	0.200192				-0.007058	0.002685	0.003198				35.319797	-88.220449	-167.147814
00685	972474	9.821990	0.178789	0.197661				-0.004689	0.000229	-0.000739				35.308344	-88.220712	-167.135435
00686	972524	9.805937	0.180450	0.209161				-0.003660	-0.001983	0.000823				35.311483	-88.221569	-167.139717
00687	972574	9.817785	0.172165	0.197642				-0.002825	-0.002398	-0.003774				35.337567	-88.222150	-167.164386
00688	972624	9.825466	0.200303	0.207900				-0.002915	-0.001460	-0.004761				35.380242	-88.221832	-167.207968
00689	972674	9.823819	0.193324	0.179696				-0.005171	0.002026	-0.004093				35.384885	-88.220982	-167.211741
00690	972724	9.799906	0.191036	0.201884				-0.005394	0.003121	-0.003318				35.391552	-88.219712	-167.219959
00691	972774	9.803734	0.185961	0.209553				-0.000089	0.001604	-0.002248				35.385673	-88.219759	-167.211945
00692	972824	9.812592	0.198571	0.213777				-0.001648	0.002547	-0.000125				35.372397	-88.219197	-167.199156
00693	972874	9.810121	0.200779	0.184671				-0.003736	0.004907	0.002076				35.315154	-88.219389	-167.140840
00694	972924	9.819633	0.190387	0.208034				-0.002928	0.001302	0.000260				35.305455	-88.218994	-167.131929
00695	972974	9.816942	0.180034	0.201970				-0.002677	-0.001673	-0.000688				35.304427	-88.220030	-167.129486
00696	973024	9.818500	0.190293	0.200320				-0.005742	0.000084	-0.000639				35.307117	-88.219968	-167.133839
00697	973074	9.817670	0.181779	0.196429				-0.005196	-0.001138	-0.001737				35.310284	-88.220887	-167.136371
00698	973124	9.817084	0.170507	0.198118				-0.002753	-0.000115	0.001372				35.299794	-88.221308	-167.126724
00699	973174	9.802933	0.179206	0.198266				-0.001495	0.003683	-0.000022				35.265439	-88.220575	-167.090380
00700	973224	9.798429	0.203635	0.182905				-0.008673	0.000645	0.000788				35.253398	-88.220612	-167.080843
00701	973274	9.824944	0.187515	0.201982				-0.003110	0.001033	-0.001249				35.242232	-88.221270	-167.068507
00702	973324	9.812372	0.188415	0.192109				-0.004571	-0.001511	0.001180				35.240088	-88.221829	-167.067675
00703	973374	9.824078	0.187927	0.188038				-0.004049	-0.001926	-0.000624				35.239287	-88.222970	-167.065866
00704	973424	9.798676	0.188977	0.211799				-0.003049	-0.003298	-0.003070				35.279051	-88.223375	-167.106571
00705	973474	9.823327	0.188255	0.192624				-0.005395	0.000480	0.002216				35.244050	-88.224146	-167.070872
00706	973524	9.809064	0.183720	0.199116				-0.002303	-0.001244	-0.000428				35.253112	-88.224448	-167.080625
00707	973574	9.803733	0.199704	0.220328				-0.005601	0.002868	-0.000270				35.224029	-88.224263	-167.050855
00708	973624	9.814989	0.187524	0.194514				-0.003123	-0.000908	-0.000942				35.235030	-88.224437	-167.062797
00709	973674	9.817238	0.181187	0.190711				-0.002471	-0.001222	-0.002516				35.245589	-88.224793	-167.071765
00710	973724	9.810495	0.185502	0.193874				-0.001182	0.001005	0.002050				35.224563	-88.224742	-167.051011
00711	973774	9.833179	0.181837	0.191387				-0.003355	0.001515	0.000004				35.200947	-88.225111	-167.026150
00712	973824	9.821982	0.184019	0.187944				-0.002678	-0.005339	-0.006866				35.280535	-88.225143	-167.106515
00713	973874	9.811455	0.180939	0.201286				-0.000096	-0.000209	-0.000370				35.270376	-88.225547	-167.094074
00714	973924	9.801604	0.193141	0.191565				-0.005162	-0.000270	-0.003560				35.297193	-88.225130	-167.122420
00715	973974	9.812091	0.168380	0.202781				-0.002348	0.001946	-0.002372				35.289514	-88.225346	-167.113343
00716	974024	9.810005	0.181767	0.203708				-0.001682	0.000418	0.001311				35.276961	-88.225471	-167.101259
00717	974074	9.801744	0.194255	0.204972				-0.003911	0.001115	-0.000057				35.255703	-88.225990	-167.078920
00718	974124	9.810700	0.188650	0.194169				-0.003978	0.003120	-0.000950				35.245061	-88.225038	-167.069391
00719	974174	9.816685	0.181050	0.203625				-0.007466	-0.001408	-0.003336				35.261316	-88.225540	-167.085609
00720	974224	9.806860	0.188782	0.197264				-0.003336	0.000999	-0.001056				35.263075	-88.224890	-167.088236
00721	974274	9.795449	0.189413	0.193265				-0.001141	0.000454	-0.001127				35.254412	-88.225474	-167.077745
00722	974324	9.817419	0.180456	0.200747				-0.004176	-0.001694	0.002714				35.241702	-88.226236	-167.066203
00723	974374	9.809025	0.182046	0.206508				0.001815	-0.002852	-0.001635				35.255267	-88.227817	-167.077252
00724	974424	9.828300	0.157758	0.181566				-0.004845	-0.000263	-0.003754				35.283721	-88.227232	-167.107103
00725	974474	9.827935	0.176412	0.203800				-0.000948	-0.002910	-0.003622				35.311552	-88.228551	-167.133216
00726	974524	9.814090	0.187655	0.186939				-0.004492	0.001909	-0.002812				35.321211	-88.227731	-167.144201
00727	974574	9.806235	0.183616	0.194297				-0.005867	-0.001279	-0.001865				35.326543	-88.227700	-167.148782
00728	974624	9.818830	0.197496	0.207691				-0.002083	-0.000013	0.001048				35.318271	-88.227810	-167.141076
00729	974674	9.828598	0.184129	0.197357				-0.002279	-0.000381	-0.003703				35.333210	-88.228273	-167.154571
00730	974724	9.816163	0.197959	0.215202				-0.005888	0.000433	-0.002849				35.350852	-88.227452	-167.173819
00731	974774	9.812990	0.193329	0.198881				-0.001355	-0.000908	-0.001393				35.351148	-88.228205	-167.172385
00732	974824	9.827703	0.205069	0.182938				-0.003953	-0.002919	0.000496				35.361818	-88.229033	-167.184215
00733	974874	9.802992	0.211021	0.201891				-0.004449	0.002719	-0.002422				35.350230	-88.228979	-167.171809
00734	974924	9.809488	0.179616	0.215437				-0.001265	0.001028	-0.004047				35.374880	-88.228242	-167.196896
00735	974974	9.825745	0.174346	0.214551				-0.003853	-0.003248	-0.002652				35.396940	-88.228876	-167.217734
00736	975024	9.801991	0.193833	0.205128				-0.007851	-0.001090	-0.000510				35.404426	-88.229106	-167.227490
00737	975074	9.815468	0.183086	0.203900				-0.002810	-0.000517	-0.002483				35.410561	-88.229532	-167.232247
00738	975124	9.809868	0.177191	0.197727				-0.002375	-0.000188	-0.003119				35.434493	-88.229122	-167.256898
00739	975174	9.814363	0.201692	0.190560				-0.001567	0.002067	0.001641				35.396369	-88.229697	-167.217044
00740	975224	9.814808	0.198424	0.202708				-0.002280	0.000345	0.002980				35.371442	-88.230000	-167.192722
00741	975274	9.813400	0.175477	0.205574				-0.001670	-0.002104	0.000272				35.365691	-88.231416	-167.185319
00742	975324	9.798442	0.189127	0.211498				-0.001767	0.002260	0.001416				35.342449	-88.230900	-167.162486
00743	975374	9.822847	0.185817	0.198878				-0.003173	0.003006	-0.000409				35.314330	-88.230754	-167.133056
00744	975424	9.802135	0.192331	0.185318				-0.003427	0.000436	-0.005486				35.352311	-88.229793	-167.172058
00745	975474	9.809321	0.180704	0.202058				-0.003821	0.000988	-0.001922				35.346334	-88.230182	-167.165027
00746	975524	9.807836	0.187582	0.196056				-0.005507	0.000734	-0.000254				35.342805	-88.229900	-167.163046
00747	975574	9.808627	0.184855	0.189996				-0.003945	-0.001214	-0.001899				35.348066	-88.230450	-167.167246
00748	975624	9.810575	0.184818	0.182265				-0.003518	-0.003731	-0.002652				35.387289	-88.230879	-167.207494
00749	975674	9.836165	0.148562	0.199468				-0.002392	-0.000671	-0.001167				35.384412	-88.231911	-167.203221
00750	975724	9.811542	0.175601	0.199722				-0.000306	0.003213	-0.003716				35.395154	-88.230521	-167.214051
00751	975774	9.811033	0.172504	0.211280				-0.002386	-0.003093	-0.002300				35.414403	-88.231550	-167.231781
00752	975824	9.808368	0.182122	0.198963				-0.003061	0.001358	-0.001089				35.414348	-88.231125	-167.232628
00753	975874	9.825538	0.179516	0.200237				-0.006308	-0.000515	-0.002084				35.416754	-88.231565	-167.234642
00754	975924	9.817496	0.186621	0.177010				-0.003388	-0.001561	-0.001197				35.432995	-88.231798	-167.251892
00755	975974	9.809494	0.189332	0.194333				-0.002057	-0.000949	-0.000912				35.430318	-88.232233	-167.247486
00756	976024	9.810382	0.192564	0.197713				-0.002863	0.001431	0.001349				35.411560	-88.232059	-167.229516
00757	976074	9.819672	0.193829	0.194536				-0.010069	-0.000128	-0.003421				35.420743	-88.232742	-167.239567
00758	976124	9.808780	0.178453	0.177876				-0.005248	0.000636	-0.001278				35.425743	-88.232326	-167.246054
00759	976174	9.811793	0.170705	0.207039				-0.002936	0.000258	-0.002697				35.429847	-88.232192	-167.248670
00760	976224	9.823454	0.188196	0.211738				-0.003055	0.000423	0.000862				35.420069	-88.232243	-167.239770
00761	976274	9.812998	0.186946	0.210135				-0.001073	-0.001545	0.001104				35.405144	-88.233807	-167.223044
00762	976324	9.807734	0.200260	0.187208				-0.004974	0.000259	0.000419				35.399202	-88.233769	-167.218510
00763	976374	9.810194	0.175787	0.185491				-0.002335	0.000460	-0.003082				35.405437	-88.233306	-167.223009
00764	976424	9.818884	0.183857	0.190010				-0.002293	-0.000796	-0.002352				35.426919	-88.233156	-167.245176
00765	976474	9.815757	0.180625	0.201108				-0.005157	0.002638	-0.004127				35.427928	-88.232653	-167.245478
00766	976524	9.798031	0.192336	0.193636				-0.001725	-0.001565	-0.003251				35.460254	-88.232802	-167.278435
00767	976574	9.823828	0.177458	0.211193				-0.004045	0.003821	-0.005949				35.469165	-88.231623	-167.286297
00768	976624	9.841229	0.182046	0.198186				-0.003424	-0.002263	0.000753				35.474661	-88.232450	-167.292840
00769	976674	9.801849	0.185853	0.204619				-0.001497	-0.002225	0.003795				35.443350	-88.234289	-167.259743
00770	976724	9.807191	0.199345	0.200191				-0.004183	0.002633	-0.000019				35.428082	-88.233829	-167.245726
00771	976774	9.816332	0.189476	0.205316				-0.003672	-0.001666	-0.002132				35.437938	-88.234491	-167.254432
00772	976824	9.823761	0.188518	0.199780				-0.002047	0.001567	-0.002562				35.448435	-88.233446	-167.265428
00773	976874	9.798485	0.185844	0.211196				-0.003714	0.001866	-0.000443				35.426333	-88.234092	-167.242348
00774	976924	9.808705	0.187169	0.210498				-0.004176	0.003308	-0.000531				35.411528	-88.233076	-167.228679
00775	976974	9.793677	0.192617	0.204201				-0.002611	-0.000902	-0.003186				35.425105	-88.233447	-167.240814
00776	977024	9.809996	0.186929	0.195263				-0.004784	-0.001033	-0.001736				35.442411	-88.233502	-167.259532
00777	977074	9.790424	0.186807	0.202637				-0.002321	0.002442	0.000199				35.412906	-88.233792	-167.228499
00778	977124	9.808620	0.191196	0.176850				-0.004660	-0.000803	0.000475				35.412271	-88.234081	-167.229210
00779	977174	9.808974	0.193409	0.193225				-0.001750	0.004482	-0.002133				35.389414	-88.233318	-167.204653
00780	977224	9.786731	0.180439	0.196660				-0.002987	0.000136	-0.000451				35.391111	-88.233236	-167.207211
00781	977274	9.800432	0.193649	0.188212				-0.003937	0.001498	-0.004036				35.398235	-88.233206	-167.213375
00782	977324	9.809710	0.191921	0.193827				-0.004601	-0.000546	-0.000419				35.402952	-88.233473	-167.219487
00783	977374	9.816881	0.208861	0.191379				-0.008260	-0.002220	0.000992				35.391142	-88.234206	-167.207639
00784	977424	9.796049	0.213026	0.201599				-0.003403	-0.000975	-0.000910				35.402087	-88.234250	-167.219555
00785	977474	9.821453	0.187781	0.189228				-0.001025	-0.000651	-0.004891				35.427854	-88.234697	-167.243569
00786	977524	9.818586	0.178555	0.209074				-0.002594	0.005019	-0.000432				35.403282	-88.233483	-167.219732
00787	977574	9.827086	0.190709	0.195200				-0.005204	-0.000623	0.000187				35.389705	-88.234161	-167.205363
00788	977624	9.818176	0.178389	0.198897				-0.000354	0.000723	-0.001933				35.400484	-88.233495	-167.216179
00789	977674	9.819483	0.153465	0.191666				-0.005737	-0.001276	-0.001771				35.404768	-88.234122	-167.219910
00790	977724	9.805248	0.163835	0.201099				-0.004416	0.000524	-0.001183				35.409808	-88.233779	-167.226205
00791	977774	9.803895	0.185859	0.182683				-0.006219	0.000817	-0.000986				35.396747	-88.234302	-167.212781
00792	977824	9.810023	0.184089	0.196540				-0.002486	0.000331	-0.001768				35.407504	-88.233999	-167.224282
00793	977874	9.827158	0.174664	0.178500				-0.007546	0.002275	-0.003224				35.403407	-88.233668	-167.220155
00794	977924	9.793908	0.202224	0.186504				-0.002537	0.000010	0.000191				35.401262	-88.233612	-167.218708
00795	977974	9.805948	0.203221	0.201441				-0.005057	0.003643	-0.003959				35.395628	-88.233157	-167.212455
00796	978024	9.827964	0.193001	0.204393				-0.004280	0.001433	-0.002656				35.406869	-88.232540	-167.224985
00797	978074	9.816434	0.179273	0.210673				-0.003942	0.001625	-0.004581				35.417521	-88.231719	-167.234439
00798	978124	9.808093	0.193693	0.219555				-0.002380	0.001083	-0.001187				35.419992	-88.231335	-167.237618
00799	978174	9.821574	0.175965	0.192438				-0.004407	0.001530	-0.000671				35.401092	-88.231713	-167.217828
00800	978224	9.812465	0.178045	0.198312				-0.003914	-0.004017	0.002062				35.406008	-88.232847	-167.223815
00801	978274	9.806903	0.170236	0.190335				-0.003833	0.001276	-0.003365				35.409165	-88.233122	-167.226025
00802	978324	9.808583	0.185525	0.196058				-0.000606	0.000621	-0.002671				35.425907	-88.232339	-167.242872
00803	978374	9.818020	0.190591	0.199602				-0.006132	0.002204	-0.002007				35.413089	-88.232290	-167.229645
00804	978424	9.818538	0.175326	0.183971				-0.006372	-0.001154	0.000253				35.415593	-88.232695	-167.234011
00805	978474	9.807014	0.195158	0.197228				-0.002240	-0.001114	0.000821				35.400633	-88.233566	-167.217398
00806	978524	9.825139	0.167897	0.210912				-0.002742	0.003599	-0.000309				35.382749	-88.232838	-167.200351
00807	978574	9.822330	0.162415	0.214221				-0.004279	0.001238	-0.001793				35.374042	-88.233060	-167.190681
00808	978624	9.828283	0.182785	0.211388				-0.002199	0.002734	0.001357				35.348469	-88.232743	-167.165766
00809	978674	9.806417	0.199783	0.208204				-0.002010	-0.001732	-0.002841				35.364341	-88.232959	-167.179863
00810	978724	9.816288	0.189869	0.212044				-0.007195	-0.000557	-0.000354				35.367811	-88.232966	-167.185374
00811	978774	9.823127	0.188187	0.186834				-0.008832	-0.002684	-0.000968				35.373055	-88.234188	-167.190932
00812	978824	9.832438	0.164756	0.190866				-0.002870	-0.000514	0.000057				35.374476	-88.234427	-167.193224
00813	978874	9.827322	0.195379	0.187270				-0.004721	-0.002036	-0.001936				35.384390	-88.235418	-167.202348
00814	978924	9.812003	0.175566	0.201083				-0.005734	-0.000473	-0.003305				35.410367	-88.235032	-167.230000
00815	978974	9.813560	0.189424	0.191498				-0.005768	0.000825	-0.001053				35.398168	-88.235492	-167.217307
00816	979024	9.808495	0.191417	0.197778				-0.006861	0.001837	-0.003479				35.412771	-88.234358	-167.233833
00817	979074	9.829703	0.174961	0.189542				-0.001709	0.002158	-0.001381				35.396884	-88.234836	-167.216424
00818	979124	9.799268	0.186071	0.199231				-0.002813	0.001620	-0.001919				35.402019	-88.234049	-167.222337
00819	979174	9.814062	0.185143	0.195349				-0.005701	0.000697	-0.002435				35.400648	-88.234108	-167.220384
00820	979224	9.810586	0.192555	0.203684				-0.003234	-0.000361	-0.000940				35.408760	-88.234005	-167.229413
00821	979274	9.797628	0.184405	0.197260				-0.004119	-0.001797	-0.002705				35.423423	-88.234810	-167.243111
00822	979324	9.790792	0.201082	0.191053				-0.000649	-0.002157	-0.002046				35.450583	-88.234530	-167.270302
00823	979374	9.817452	0.197662	0.199556				-0.001805	-0.000045	-0.002284				35.453351	-88.235081	-167.271483
00824	979424	9.823396	0.175631	0.207036				-0.004173	0.000948	-0.002114				35.462962	-88.234547	-167.282309
00825	979474	9.810335	0.190194	0.210439				-0.004112	0.000437	0.001348				35.434950	-88.235561	-167.253364
00826	979524	9.823459	0.174484	0.199086				-0.004017	0.000013	-0.001992				35.448807	-88.235372	-167.268435
00827	979574	9.810279	0.167793	0.186956				-0.008467	-0.001705	0.002438				35.422874	-88.236766	-167.242687
00828	979624	9.822030	0.175104	0.198639				-0.002201	0.000697	0.001632				35.406043	-88.236886	-167.226483
00829	979674	9.817750	0.173242	0.201405				-0.002777	-0.002878	-0.002682				35.426818	-88.237798	-167.245876
00830	979724	9.816130	0.172145	0.196075				-0.004012	0.002987	-0.003387				35.435016	-88.236571	-167.255242
00831	979774	9.804403	0.183239	0.182432				-0.006045	0.000662	0.000648				35.411227	-88.236991	-167.230895
00832	979824	9.804655	0.178153	0.190827				-0.004500	0.002364	-0.000402				35.400200	-88.236413	-167.221167
00833	979874	9.809192	0.179485	0.185929				-0.005458	-0.000817	-0.000582				35.393228	-88.237503	-167.213657
00834	979924	9.822584	0.185766	0.202882				-0.008624	0.000031	-0.000757				35.396369	-88.237263	-167.219231
00835	979974	9.824243	0.165171	0.206738				-0.002503	-0.001254	-0.002260				35.405425	-88.238061	-167.226874
00836	980024	9.800557	0.191737	0.210322				-0.005288	0.002166	0.001778				35.378818	-88.238009	-167.201833
00837	980074	9.805314	0.192638	0.209142				-0.003918	-0.003089	-0.001881				35.394288	-88.238696	-167.216085
00838	980124	9.813210	0.189431	0.208682				-0.004002	-0.002445	-0.001746				35.419725	-88.238705	-167.242582
00839	980174	9.809027	0.192060	0.188054				-0.003402	-0.001106	-0.001871				35.424803	-88.239795	-167.246579
00840	980224	9.828193	0.186110	0.180891				-0.004037	0.001021	0.000899				35.411141	-88.239860	-167.234124
00841	980274	9.800744	0.185761	0.192143				-0.007250	-0.003179	-0.003121				35.435755	-88.240927	-167.258685
00842	980324	9.817250	0.182348	0.187443				-0.008707	0.002878	0.000057				35.417321	-88.240372	-167.242777
00843	980374	9.808646	0.182127	0.190767				-0.003234	-0.000425	-0.002506				35.423239	-88.240748	-167.247450
00844	980424	9.804282	0.188387	0.192700				-0.001954	0.000563	-0.004076				35.450776	-88.239918	-167.275554
00845	980474	9.817505	0.196007	0.194120				-0.003476	0.000419	0.000605				35.428783	-88.240434	-167.252267
00846	980524	9.801644	0.183941	0.203458				-0.001405	-0.001430	-0.002263				35.453219	-88.240288	-167.277077
00847	980574	9.811021	0.183465	0.189545				-0.001977	-0.001435	0.000050				35.445769	-88.241424	-167.268043
00848	980624	9.804420	0.193491	0.198725				-0.003486	0.001606	-0.001020				35.443682	-88.240903	-167.266964
00849	980674	9.811060	0.183128	0.184823				-0.003770	0.004543	-0.001777				35.417455	-88.240266	-167.239612
00850	980724	9.806628	0.183339	0.208952				-0.000957	-0.001381	-0.000434				35.428152	-88.240325	-167.250516
00851	980774	9.795668	0.190831	0.194444				0.002059	0.000542	-0.001872				35.425747	-88.240679	-167.245367
00852	980824	9.815092	0.167561	0.180487				-0.002654	0.001492	-0.000831				35.423183	-88.240379	-167.243632
00853	980874	9.813658	0.182527	0.189561				-0.004537	0.000495	-0.000480				35.408652	-88.240758	-167.228152
00854	980924	9.822299	0.173781	0.196465				-0.005502	0.001537	-0.001786				35.412248	-88.240219	-167.233368
00855	980974	9.813063	0.183203	0.206622				-0.004307	0.000335	-0.000995				35.402616	-88.240830	-167.222846
00856	981024	9.807891	0.200231	0.200887				-0.004415	0.002556	-0.004383				35.420643	-88.239819	-167.242265
00857	981074	9.829160	0.195893	0.196928				-0.001401	-0.000323	0.000176				35.406385	-88.240488	-167.226160
00858	981124	9.819350	0.180366	0.196762				-0.003382	0.002582	0.000104				35.390733	-88.239787	-167.211432
00859	981174	9.790931	0.193071	0.184495				-0.004689	0.004268	-0.001835				35.366061	-88.239528	-167.186043
00860	981224	9.818648	0.198893	0.197896				-0.004277	0.000201	-0.001991				35.378770	-88.239491	-167.200104
00861	981274	9.829935	0.171955	0.198108				-0.001511	-0.000037	-0.000747				35.370502	-88.239328	-167.189787
00862	981324	9.812137	0.187199	0.194290				-0.000131	-0.001112	-0.000757				35.381937	-88.239743	-167.201370
00863	981374	9.796554	0.184017	0.179153				-0.002960	0.002134	-0.002397				35.374052	-88.239328	-167.192035
00864	981424	9.830467	0.183809	0.203580				-0.000029	0.000538	-0.002610				35.390979	-88.238647	-167.208935
00865	981474	9.810498	0.181860	0.200713				-0.002995	-0.003846	-0.001115				35.404817	-88.240565	-167.221620
00866	981524	9.800948	0.193132	0.182666				-0.008211	-0.001770	0.001157				35.403251	-88.240965	-167.222330
00867	981574	9.817221	0.171883	0.213113				-0.004844	0.003004	-0.002583				35.391167	-88.240450	-167.209414
00868	981624	9.816067	0.176549	0.198061				-0.003774	0.004770	-0.002162				35.380712	-88.239224	-167.200121
00869	981674	9.811020	0.179485	0.197198				-0.006495	-0.001282	0.002241				35.354571	-88.240362	-167.173528
00870	981724	9.815047	0.182512	0.195768				-0.002805	0.001260	-0.001346				35.357283	-88.239825	-167.177031
00871	981774	9.808239	0.191416	0.199349				-0.001363	-0.001813	-0.002235				35.369156	-88.241092	-167.187304
00872	981824	9.817798	0.181736	0.214488				-0.004177	0.002179	-0.001660				35.368832	-88.240308	-167.188179
00873	981874	9.819138	0.179930	0.194092				-0.002451	-0.000568	0.000405				35.354132	-88.241213	-167.171966
00874	981924	9.800601	0.186948	0.212185				-0.006802	0.001458	0.002004				35.329046	-88.241372	-167.148879
00875	981974	9.795440	0.187642	0.199020				-0.002394	0.001596	-0.000958				35.313001	-88.241003	-167.131129
00876	982024	9.827092	0.149115	0.202159				-0.004549	-0.000155	-0.000291				35.314763	-88.241143	-167.134248
00877	982074	9.815711	0.167538	0.196497				-0.005656	0.000277	-0.000767				35.303066	-88.241852	-167.122005
00878	982124	9.835449	0.169930	0.194979				-0.005842	0.000276	0.000385				35.296940	-88.241837	-167.117547
00879	982174	9.808708	0.184628	0.177341				-0.004586	-0.000389	-0.003689				35.311635	-88.242042	-167.131356
00880	982224	9.816219	0.181503	0.202012				-0.004958	0.000479	-0.001890				35.322025	-88.241696	-167.143202
00881	982274	9.820443	0.191506	0.190487				-0.002649	0.000162	-0.004368				35.339148	-88.242016	-167.159025
00882	982324	9.813493	0.190763	0.200133				0.000889	0.000972	-0.002734				35.354948	-88.241261	-167.174555
00883	982374	9.803777	0.205238	0.201283				-0.004255	-0.000049	0.000995				35.332432	-88.242232	-167.151059
00884	982424	9.807623	0.209092	0.187392				-0.005108	0.000191	-0.000604				35.334608	-88.242007	-167.154671
00885	982474	9.816468	0.184424	0.193905				-0.001319	0.002129	-0.001024				35.316260	-88.241782	-167.134397
00886	982524	9.806089	0.195298	0.194229				-0.002579	0.003268	-0.003421				35.323778	-88.240675	-167.142738
00887	982574	9.811084	0.191559	0.201837				-0.007239	0.000964	-0.000023				35.302732	-88.241126	-167.121566
00888	982624	9.806199	0.189386	0.187696				-0.004726	0.000130	-0.001924				35.315314	-88.240753	-167.135505
00889	982674	9.804298	0.206326	0.192055				0.000518	0.002974	-0.000289				35.287547	-88.240711	-167.105353
00890	982724	9.807536	0.175888	0.191677				-0.005413	-0.002503	-0.003318				35.324772	-88.240505	-167.144056
00891	982774	9.811254	0.185092	0.187478				-0.004052	0.002476	0.000718				35.290759	-88.240684	-167.108967
00892	982824	9.824434	0.174345	0.195686				-0.003532	-0.002340	-0.003160				35.326349	-88.241024	-167.145698
00893	982874	9.820282	0.176195	0.208861				-0.003822	-0.003085	-0.000917				35.334626	-88.242363	-167.152944
00894	982924	9.808787	0.186691	0.198510				-0.002603	0.002204	-0.001117				35.330577	-88.241686	-167.149648
00895	982974	9.810981	0.184800	0.193846				-0.001830	-0.002173	0.000042				35.327131	-88.242860	-167.144519
00896	983024	9.806102	0.173363	0.197286				-0.004485	0.002082	0.001775				35.300984	-88.242941	-167.119748
00897	983074	9.816406	0.199089	0.212211				-0.003569	-0.001949	-0.001330				35.306221	-88.243860	-167.123827
00898	983124	9.809730	0.179253	0.214258				-0.004653	0.000267	0.000740				35.297968	-88.243969	-167.116922
00899	983174	9.816356	0.186078	0.207561				-0.005673	0.000995	0.000551				35.272454	-88.244576	-167.090839
00900	983224	9.813450	0.174864	0.199600				-0.003660	-0.000176	-0.002604				35.292345	-88.243857	-167.111667
00901	983274	9.814962	0.169903	0.196790				-0.002515	0.002503	-0.000313				35.266237	-88.244368	-167.084161
00902	983324	9.808638	0.195649	0.204930				-0.001631	-0.000500	-0.004533				35.303025	-88.243744	-167.121436
00903	983374	9.806772	0.196843	0.195527				-0.000788	-0.000706	-0.001427				35.303426	-88.244298	-167.119832
00904	983424	9.808885	0.180024	0.196312				-0.004466	0.001367	-0.000089				35.295391	-88.243990	-167.113082
00905	983474	9.813834	0.179807	0.205107				-0.003351	0.000184	-0.003499				35.306148	-88.243795	-167.122509
00906	983524	9.813946	0.178631	0.189088				-0.000095	0.002602	-0.003593				35.319621	-88.242455	-167.135961
00907	983574	9.832760	0.174142	0.198311				-0.002806	-0.001645	-0.001272				35.322816	-88.243983	-167.138015
00908	983624	9.818080	0.151545	0.190739				-0.002618	0.002498	-0.001243				35.318084	-88.242939	-167.133937
00909	983674	9.819539	0.191337	0.183263				-0.002230	-0.000668	-0.002033				35.322549	-88.243386	-167.136842
00910	983724	9.826273	0.179549	0.196522				-0.004137	0.002854	-0.003804				35.335059	-88.242045	-167.150519
00911	983774	9.837790	0.191055	0.197832				-0.002240	0.000625	-0.001642				35.329075	-88.242621	-167.143118
00912	983824	9.812387	0.198899	0.208044				-0.004262	0.001882	-0.001433				35.328712	-88.241857	-167.143948
00913	983874	9.812130	0.205948	0.196787				-0.005665	0.002636	-0.002516				35.317433	-88.241907	-167.132214
00914	983924	9.807619	0.188390	0.190993				0.000976	-0.000638	-0.000629				35.325806	-88.242138	-167.140381
00915	983974	9.815879	0.191736	0.196388				-0.000753	0.004402	-0.001205				35.297083	-88.241348	-167.109570
00916	984024	9.825933	0.171577	0.190978				-0.007388	0.003511	-0.002158				35.292404	-88.240395	-167.107089
00917	984074	9.820921	0.180787	0.172442				-0.002380	-0.001860	0.000114				35.286726	-88.241427	-167.099854
00918	984124	9.815000	0.177978	0.213764				-0.004010	0.000887	-0.002502				35.300048	-88.240631	-167.114271
00919	984174	9.821685	0.167313	0.192847				-0.003684	-0.000698	-0.004657				35.323851	-88.241236	-167.137134
00920	984224	9.800931	0.182921	0.206423				-0.000563	0.002302	-0.003593				35.338834	-88.239812	-167.152178
00921	984274	9.819366	0.195494	0.203167				-0.005075	0.000156	-0.002634				35.342531	-88.240008	-167.155130
00922	984324	9.817307	0.189123	0.201762				-0.004719	0.000064	-0.001673				35.353543	-88.239699	-167.167494
00923	984374	9.810575	0.172756	0.206157				-0.003669	0.001608	0.000456				35.326132	-88.240421	-167.139058
00924	984424	9.813842	0.181905	0.199304				-0.002241	-0.002278	0.000430				35.334510	-88.241141	-167.148122
00925	984474	9.826665	0.188801	0.191213				0.000183	0.003357	-0.000061				35.302815	-88.241206	-167.114245
00926	984524	9.804963	0.207266	0.197999				-0.002909	0.000712	-0.001477				35.309299	-88.240839	-167.121586
00927	984574	9.808096	0.188441	0.191258				-0.006137	0.001302	-0.002907				35.308672	-88.240603	-167.120473
00928	984624	9.827614	0.173554	0.183239				-0.001361	-0.000744	-0.000592				35.316927	-88.240566	-167.129082
00929	984674	9.814394	0.184854	0.180931				0.000675	0.002813	-0.001377				35.298595	-88.240152	-167.108272
00930	984724	9.808073	0.180081	0.212589				-0.002925	-0.000032	-0.003181				35.322022	-88.239573	-167.132527
00931	984774	9.809197	0.174292	0.195525				-0.004034	-0.000238	0.000895				35.301286	-88.240938	-167.110875
00932	984824	9.795712	0.189069	0.190082				-0.004344	-0.000867	-0.003339				35.330097	-88.240702	-167.140985
00933	984874	9.825072	0.202722	0.189937				-0.004879	-0.001137	-0.003310				35.346000	-88.240980	-167.156047
00934	984924	9.821554	0.169593	0.209379				-0.005820	-0.000632	-0.000868				35.354446	-88.240970	-167.166156
00935	984974	9.804544	0.181977	0.201834				-0.001269	0.001752	0.001251				35.321488	-88.241181	-167.131222
00936	985024	9.817224	0.180186	0.195477				-0.005786	-0.000993	-0.004234				35.357398	-88.240692	-167.168798
00937	985074	9.822493	0.173720	0.205628				-0.005335	0.003351	-0.003511				35.350005	-88.240483	-167.160915
00938	985124	9.828199	0.179072	0.194488				-0.005969	0.000405	0.002315				35.328745	-88.240661	-167.141315
00939	985174	9.807677	0.183716	0.191230				-0.004288	-0.001580	-0.003347				35.347458	-88.241249	-167.159086
00940	985224	9.806143	0.189325	0.196829				-0.004353	0.002525	-0.003547				35.359489	-88.240099	-167.172387
00941	985274	9.817457	0.180623	0.195133				-0.006963	0.004459	0.000158				35.318187	-88.240160	-167.130963
00942	985324	9.821280	0.171054	0.213202				-0.002134	0.000075	-0.004308				35.350020	-88.239303	-167.163376
00943	985374	9.814459	0.173091	0.194837				0.001031	0.000386	-0.004476				35.368346	-88.238831	-167.179091
00944	985424	9.824331	0.181906	0.197732				-0.005652	0.004347	-0.002253				35.360296	-88.237634	-167.172729
00945	985474	9.801702	0.201529	0.196503				-0.005315	-0.001074	0.000191				35.349137	-88.238389	-167.160750
00946	985524	9.815818	0.180278	0.191008				-0.004495	0.001972	-0.003777				35.366003	-88.237273	-167.178897
00947	985574	9.828444	0.184926	0.220133				-0.000660	0.000164	-0.003155				35.374885	-88.237857	-167.185930
00948	985624	9.817991	0.208761	0.204405				-0.002939	0.000612	-0.002184				35.387243	-88.237497	-167.199186
00949	985674	9.823756	0.182145	0.212865				-0.000852	0.004528	-0.002395				35.367234	-88.236386	-167.177104
00950	985724	9.808270	0.179285	0.180465				-0.002270	0.000695	-0.000902				35.369567	-88.236199	-167.180133
00951	985774	9.816260	0.183296	0.190213				-0.001246	-0.001288	0.000011				35.362289	-88.237186	-167.171021
00952	985824	9.823369	0.157753	0.209874				-0.000815	0.000430	-0.000303				35.361889	-88.237154	-167.170898
00953	985874	9.810538	0.199963	0.196988				-0.003021	0.000066	-0.001129				35.355375	-88.237639	-167.163013
00954	985924	9.799885	0.189811	0.169007				-0.001993	-0.000013	-0.001324				35.365038	-88.237423	-167.173253
00955	985974	9.812720	0.182687	0.187211				-0.001200	0.002094	-0.004362				35.372267	-88.237402	-167.178820
00956	986024	9.811989	0.170299	0.215249				-0.004544	0.000489	-0.002982				35.390950	-88.236873	-167.198846
00957	986074	9.807421	0.192891	0.174220				-0.002334	-0.000367	0.000985				35.370984	-88.237531	-167.177205
00958	986124	9.796359	0.194955	0.188531				-0.003525	0.003997	-0.000364				35.351255	-88.236434	-167.158438
00959	986174	9.801004	0.190059	0.179111				-0.006816	0.000847	0.002673				35.310620	-88.237276	-167.117483
00960	986224	9.805530	0.193537	0.210391				-0.003015	-0.000060	-0.000809				35.316189	-88.237198	-167.123932
00961	986274	9.819792	0.167396	0.191445				-0.001552	0.001420	0.001149				35.285114	-88.237955	-167.091153
00962	986324	9.826256	0.178745	0.201225				-0.003508	-0.000747	-0.000331				35.290509	-88.238276	-167.097628
00963	986374	9.816202	0.188029	0.191063				-0.003701	-0.002859	-0.001750				35.304333	-88.239316	-167.110273
00964	986424	9.813430	0.177945	0.196504				-0.001688	-0.000421	0.000630				35.301464	-88.239464	-167.107864
00965	986474	9.805969	0.182457	0.200857				-0.003738	0.001740	0.001001				35.269714	-88.239903	-167.074940
00966	986524	9.821301	0.176388	0.197434				-0.002308	-0.000080	-0.000134				35.270453	-88.239913	-167.076347
00967	986574	9.839432	0.161194	0.184247				-0.004372	0.003172	-0.003902				35.267857	-88.239194	-167.072798
00968	986624	9.808807	0.187408	0.193654				-0.000497	0.001501	-0.000712				35.265193	-88.238777	-167.070292
00969	986674	9.818658	0.175063	0.203843				-0.001830	-0.002082	-0.000949				35.268904	-88.239861	-167.072358
00970	986724	9.798208	0.210228	0.206098				-0.002731	-0.001130	-0.003761				35.302910	-88.239366	-167.107117
00971	986774	9.824682	0.191105	0.199528				-0.001995	-0.000925	-0.002068				35.308585	-88.240562	-167.111378
00972	986824	9.805428	0.191404	0.193162				-0.003628	-0.000943	-0.000392				35.315554	-88.240734	-167.119399
00973	986874	9.807395	0.194075	0.177565				-0.003199	-0.000618	-0.001895				35.318575	-88.240965	-167.121044
00974	986924	9.805368	0.177430	0.192137				-0.003570	0.004451	-0.000335				35.296012	-88.240114	-167.099582
00975	986974	9.797832	0.185098	0.202367				-0.001770	0.002020	-0.002145				35.287408	-88.239315	-167.089002
00976	987024	9.825172	0.170929	0.199311				-0.001492	-0.000614	-0.000402				35.293367	-88.239322	-167.095363
00977	987074	9.816014	0.187188	0.183789				-0.005791	0.001669	-0.000309				35.270577	-88.240164	-167.072236
00978	987124	9.808379	0.171429	0.218512				-0.002472	-0.001286	-0.002128				35.293037	-88.240019	-167.095380
00979	987174	9.822401	0.181802	0.203212				-0.002225	0.002145	-0.003269				35.291510	-88.239764	-167.092339
00980	987224	9.810732	0.173866	0.178760				-0.003719	0.000058	0.000961				35.282898	-88.240061	-167.084840
00981	987274	9.826274	0.184742	0.186231				-0.000990	0.003752	-0.002655				35.268250	-88.239516	-167.068298
00982	987324	9.817777	0.174470	0.194391				-0.002730	0.003174	-0.000665				35.255333	-88.238916	-167.056252
00983	987374	9.819679	0.169806	0.204884				-0.002526	0.001787	-0.000188				35.232626	-88.238899	-167.031951
00984	987424	9.806611	0.204047	0.206651				-0.006720	0.000777	0.000845				35.219904	-88.239113	-167.021241
00985	987474	9.809879	0.180667	0.188622				-0.002512	0.001070	-0.003304				35.224905	-88.238775	-167.024638
00986	987524	9.823726	0.174862	0.194730				-0.004576	-0.000551	-0.002123				35.242669	-88.238544	-167.043720
00987	987574	9.817113	0.188043	0.197549				-0.005340	0.002378	-0.003994				35.244693	-88.238116	-167.045125
00988	987624	9.813395	0.176412	0.206333				-0.004848	0.002132	-0.002265				35.248962	-88.237318	-167.050816
00989	987674	9.807800	0.189982	0.197126				-0.006326	-0.003937	-0.001141				35.263168	-88.238641	-167.064632
00990	987724	9.802239	0.165673	0.183446				-0.005053	0.000487	-0.000832				35.265367	-88.238401	-167.068287
00991	987774	9.813335	0.183901	0.201072				-0.004339	0.002104	-0.003395				35.264583	-88.238274	-167.066629
00992	987824	9.830805	0.177428	0.199546				-0.004686	0.000004	-0.001995				35.278479	-88.238071	-167.081920
00993	987874	9.819233	0.189070	0.198574				-0.005289	-0.000875	0.001665				35.255048	-88.239162	-167.057762
00994	987924	9.815252	0.195939	0.213202				0.001891	-0.001208	0.000200				35.260695	-88.239378	-167.062838
00995	987974	9.829529	0.179457	0.209463				-0.002375	0.001816	-0.003847				35.265460	-88.239107	-167.066118
00996	988024	9.809169	0.180898	0.187159				-0.000827	0.000390	-0.001901				35.277537	-88.238819	-167.078480
00997	988074	9.821829	0.188614	0.204289				-0.003427	-0.002366	-0.001590				35.287121	-88.239999	-167.086960
00998	988124	9.809850	0.186822	0.179699				-0.003052	-0.000266	-0.003730				35.316228	-88.239270	-167.116888
00999	988174	9.807654	0.189246	0.183810				0.000080	-0.000755	-0.001971				35.321131	-88.240093	-167.119659
01000	988224	9.796042	0.202585	0.186700				0.001271	-0.002994	-0.001956				35.352563	-88.240388	-167.150712
01001	988274	9.820999	0.180580	0.199884				-0.004876	0.003270	0.001204				35.310229	-88.240926	-167.107695
01002	988324	9.817945	0.179493	0.195316				-0.003878	0.001825	-0.002753				35.320039	-88.240219	-167.118686
01003	988374	9.820863	0.180873	0.182372				-0.004287	0.002595	-0.001397				35.301597	-88.239928	-167.099244
01004	988424	9.819633	0.178296	0.193592				-0.006565	-0.001292	-0.000328				35.309097	-88.240194	-167.108632
01005	988474	9.807603	0.187140	0.196366				-0.005478	0.003967	-0.000907				35.279026	-88.239878	-167.077943
01006	988524	9.810373	0.167227	0.211613				-0.002671	0.000363	-0.000005				35.276444	-88.239744	-167.076107
01007	988574	9.821318	0.191364	0.204133				-0.003999	-0.000705	-0.004884				35.302108	-88.239649	-167.100674
01008	988624	9.812654	0.189334	0.184740				-0.000077	0.000047	-0.003602				35.329220	-88.239036	-167.127819
01009	988674	9.813609	0.185354	0.191179				-0.002393	-0.001636	-0.000271				35.324951	-88.240527	-167.122187
01010	988724	9.829412	0.183058	0.183332				-0.003859	0.003479	0.000110				35.304163	-88.239770	-167.102515
01011	988774	9.819202	0.175268	0.192851				-0.004318	-0.000736	-0.003280				35.318456	-88.239924	-167.115794
01012	988824	9.828498	0.186336	0.206953				-0.004118	0.000203	-0.003307				35.341452	-88.239067	-167.139886
01013	988874	9.801789	0.197810	0.191527				-0.005246	0.000577	-0.001115				35.331258	-88.239876	-167.129171
01014	988924	9.801696	0.182754	0.198263				-0.000584	0.001046	-0.001388				35.335911	-88.239243	-167.133937
01015	988974	9.799662	0.193900	0.197271				-0.001553	0.000318	-0.001261				35.329472	-88.239859	-167.125829
01016	989024	9.810519	0.192332	0.215507				-0.005340	0.002643	-0.001652				35.326098	-88.239020	-167.124003
01017	989074	9.815386	0.176775	0.191393				-0.007354	-0.001428	0.001859				35.303756	-88.240248	-167.101487
01018	989124	9.835276	0.179010	0.204516				-0.004862	0.000744	0.000513				35.294344	-88.240287	-167.093510
01019	989174	9.802343	0.187521	0.199922				-0.005468	0.000375	-0.002307				35.294715	-88.240454	-167.093195
01020	989224	9.825085	0.174873	0.205358				-0.002984	0.001039	-0.000163				35.289311	-88.240363	-167.088715
01021	989274	9.801975	0.185269	0.186277				-0.004690	0.002529	0.000690				35.255605	-88.240222	-167.054002
01022	989324	9.811913	0.184635	0.197965				-0.003478	0.002120	-0.003105				35.266858	-88.239111	-167.066220
01023	989374	9.812519	0.209729	0.203999				-0.002268	0.003223	0.003317				35.209412	-88.240217	-167.007441
01024	989424	9.820004	0.185128	0.198572				-0.005761	-0.001439	-0.001676				35.228295	-88.240034	-167.027899
01025	989474	9.819963	0.192157	0.190693				-0.002246	0.000756	-0.002923				35.232183	-88.240120	-167.030212
01026	989524	9.822414	0.188907	0.185183				-0.004007	-0.001150	-0.000491				35.240910	-88.240343	-167.040105
01027	989574	9.818806	0.168450	0.193164				-0.005072	0.000992	-0.003109				35.243579	-88.240513	-167.042101
01028	989624	9.805716	0.183188	0.201388				-0.003704	0.003809	0.000659				35.216981	-88.239654	-167.016527
01029	989674	9.808772	0.186818	0.200333				-0.002579	-0.000735	-0.000814				35.212624	-88.240270	-167.010688
01030	989724	9.825687	0.175184	0.183234				-0.001923	-0.001075	0.000916				35.210970	-88.240688	-167.009590
01031	989774	9.813501	0.172925	0.196092				-0.005544	0.001996	-0.000052				35.184708	-88.241210	-166.982831
01032	989824	9.825980	0.182366	0.199736				-0.001841	-0.002088	-0.003321				35.220753	-88.241141	-167.019417
01033	989874	9.818785	0.179614	0.213197				0.000173	0.000545	0.000658				35.199102	-88.241974	-166.995567
01034	989924	9.806409	0.196116	0.217652				-0.001995	0.000856	-0.003164				35.218183	-88.241155	-167.015189
01035	989974	9.815937	0.175273	0.221593				-0.005296	-0.002243	-0.003778				35.243371	-88.242325	-167.039892
01036	990024	9.797893	0.193736	0.174105				-0.003932	0.002702	-0.000354				35.230370	-88.241652	-167.028019
01037	990074	9.799492	0.187501	0.198265				-0.003847	-0.000406	-0.002556				35.236882	-88.242085	-167.033494
01038	990124	9.832373	0.189653	0.190892				-0.001893	-0.000338	-0.002338				35.255941	-88.241857	-167.053131
01039	990174	9.809343	0.205606	0.186225				-0.003025	0.000257	-0.000949				35.247233	-88.241848	-167.042923
01040	990224	9.811091	0.181287	0.183341				-0.001219	0.001676	-0.002807				35.259447	-88.240755	-167.055405
01041	990274	9.819355	0.181256	0.194572				-0.004412	0.000624	0.000948				35.233370	-88.241963	-167.028541
01042	990324	9.804860	0.198467	0.193717				-0.003050	0.002199	0.000054				35.220351	-88.241158	-167.016285
01043	990374	9.805982	0.184129	0.196094				-0.006760	0.002677	-0.004004				35.220843	-88.240670	-167.016538
01044	990424	9.810310	0.197256	0.199162				0.000109	-0.000589	0.000386				35.221062	-88.241049	-167.016786
01045	990474	9.833009	0.198082	0.186837				-0.000229	-0.000051	-0.001156				35.216080	-88.241586	-167.009702
01046	990524	9.823819	0.182792	0.201643				-0.005694	0.004507	-0.002843				35.211809	-88.240119	-167.007084
01047	990574	9.808072	0.174977	0.183856				-0.001798	0.001995	0.000211				35.185338	-88.240299	-166.978897
01048	990624	9.813601	0.187786	0.188673				-0.003558	0.004064	-0.000410				35.165634	-88.239264	-166.960193
01049	990674	9.792293	0.175843	0.192839				-0.001200	0.001232	-0.001592				35.156813	-88.239420	-166.949549
01050	990724	9.800834	0.194131	0.199428				-0.007344	0.000082	-0.000360				35.157070	-88.239227	-166.951871
01051	990774	9.821162	0.191663	0.189308				-0.002916	0.000878	0.000624				35.132931	-88.239893	-166.926383
01052	990824	9.821601	0.187649	0.202962				-0.001888	0.000922	0.000362				35.124603	-88.239612	-166.918547
01053	990874	9.821589	0.173474	0.195391				-0.002544	-0.003706	0.002427				35.111158	-88.242145	-166.903828
01054	990924	9.834588	0.175491	0.208168				-0.001953	0.001563	-0.004125				35.133801	-88.241112	-166.927044
01055	990974	9.821750	0.175102	0.205162				-0.006805	0.002094	-0.001830				35.121051	-88.240696	-166.913930
01056	991024	9.809618	0.172558	0.207909				-0.003430	-0.003371	-0.001451				35.149050	-88.241419	-166.942987
01057	991074	9.805034	0.189342	0.184449				-0.003573	0.004649	0.001290				35.099507	-88.241151	-166.892213
01058	991124	9.812245	0.200844	0.188778				-0.003378	-0.001916	-0.001892				35.123304	-88.241252	-166.916977
01059	991174	9.824109	0.176315	0.206027				-0.000902	0.000810	-0.002689				35.124768	-88.242423	-166.916866
01060	991224	9.828506	0.176867	0.186110				-0.002665	-0.001092	-0.000416				35.133104	-88.242504	-166.925935
01061	991274	9.795768	0.197384	0.201878				0.001191	0.000591	-0.000925				35.123208	-88.242935	-166.913487
01062	991324	9.811737	0.179542	0.198713				-0.002963	0.003494	-0.000514				35.107398	-88.242073	-166.898540
01063	991374	9.810882	0.189307	0.201853				-0.004791	0.002358	-0.002154				35.096203	-88.241599	-166.886421
01064	991424	9.806749	0.182498	0.190525				-0.005571	0.000597	-0.002449				35.110137	-88.240976	-166.901935
01065	991474	9.830384	0.183550	0.216576				-0.002678	0.001562	0.000850				35.080677	-88.241383	-166.870985
01066	991524	9.805256	0.190143	0.184273				-0.003758	-0.001212	-0.002939				35.108465	-88.241368	-166.899933
01067	991574	9.800664	0.172626	0.192785				-0.002053	0.003992	-0.000419				35.075674	-88.241015	-166.865518
01068	991624	9.804363	0.200730	0.192074				-0.001632	0.002700	-0.003409				35.086754	-88.239706	-166.877034
01069	991674	9.818299	0.169458	0.196285				0.000437	0.001290	-0.000124				35.067280	-88.239807	-166.855148
01070	991724	9.811962	0.199763	0.198908				-0.003583	0.001536	-0.002838				35.079648	-88.238941	-166.868539
01071	991774	9.809499	0.201707	0.208212				-0.003140	0.000641	-0.002226				35.078437	-88.239646	-166.866219
01072	991824	9.825686	0.174963	0.185210				-0.004610	0.001486	-0.001936				35.084036	-88.238986	-166.873140
01073	991874	9.830132	0.167720	0.212175				-0.004576	-0.001388	-0.000603				35.080668	-88.239819	-166.868857
01074	991924	9.810345	0.176032	0.198927				-0.005870	-0.000220	-0.004123				35.111647	-88.239242	-166.901550
01075	991974	9.803131	0.179898	0.202481				-0.004851	-0.002004	-0.001534				35.118607	-88.240335	-166.907777
01076	992024	9.804260	0.189312	0.193640				-0.004151	-0.001771	-0.001247				35.136266	-88.240646	-166.926675
01077	992074	9.814803	0.182521	0.197529				-0.003092	0.002123	-0.005241				35.150289	-88.240198	-166.939459
01078	992124	9.810524	0.178203	0.166066				-0.003267	0.000671	-0.002294				35.163231	-88.239696	-166.953350
01079	992174	9.804749	0.187662	0.195582				-0.003862	0.000040	-0.004571				35.182771	-88.239844	-166.971870
01080	992224	9.822092	0.176831	0.185278				-0.001050	0.002422	-0.002775				35.190413	-88.238811	-166.979818
01081	992274	9.823189	0.183156	0.186944				-0.002772	0.004662	0.001220				35.141526	-88.238696	-166.929502
01082	992324	9.802260	0.192168	0.203274				-0.006077	0.002625	-0.000736				35.131225	-88.238044	-166.920965
01083	992374	9.810869	0.180700	0.181115				-0.005511	-0.002273	-0.000089				35.128841	-88.239015	-166.917863
01084	992424	9.798685	0.193844	0.200451				-0.002456	0.000464	-0.000567				35.129924	-88.238841	-166.919658
01085	992474	9.822865	0.161828	0.206008				-0.004963	0.000676	-0.000272				35.112682	-88.239797	-166.901793
01086	992524	9.802735	0.190473	0.206880				-0.001867	0.002252	-0.000012				35.100288	-88.239135	-166.889880
01087	992574	9.812325	0.173292	0.193437				-0.006196	0.000908	-0.003598				35.107262	-88.238764	-166.896294
01088	992624	9.814183	0.192839	0.199844				-0.003645	0.001767	0.000407				35.093645	-88.238398	-166.883709
01089	992674	9.811124	0.166579	0.208995				-0.004869	0.001842	-0.000810				35.074834	-88.238391	-166.864039
01090	992724	9.799644	0.187309	0.212534				-0.004997	-0.001497	-0.003583				35.108766	-88.238187	-166.899431
01091	992774	9.833137	0.180778	0.200957				-0.005133	0.001966	-0.001805				35.096387	-88.238202	-166.886355
01092	992824	9.824805	0.182365	0.196949				-0.002921	-0.000165	-0.001789				35.110054	-88.237844	-166.900831
01093	992874	9.792648	0.191733	0.180279				-0.002622	-0.000647	-0.003742				35.127554	-88.238373	-166.917006
01094	992924	9.805110	0.174977	0.200550				-0.004472	0.000297	-0.000749				35.130522	-88.238174	-166.921255
01095	992974	9.824432	0.182065	0.181076				-0.001860	-0.001739	-0.006866				35.177210	-88.238354	-166.966353
01096	993024	9.803426	0.201331	0.189110				-0.005121	-0.000261	0.001235				35.167642	-88.238698	-166.958279
01097	993074	9.820371	0.169128	0.210113				-0.005896	0.000589	-0.003542				35.176104	-88.238916	-166.966319
01098	993124	9.809221	0.194890	0.189554				-0.000470	-0.000869	-0.004043				35.211542	-88.238265	-167.001833
01099	993174	9.815450	0.195562	0.180935				-0.006255	0.002011	-0.000706				35.190347	-88.238430	-166.980264
01100	993224	9.815690	0.179291	0.175683				-0.004563	0.000969	-0.003764				35.212609	-88.237530	-167.003831
01101	993274	9.811329	0.187452	0.209117				-0.006744	-0.002910	-0.000505				35.216108	-88.239053	-167.007145
01102	993324	9.819741	0.168822	0.196299				-0.004142	0.001984	-0.002477				35.223218	-88.237992	-167.015380
01103	993374	9.817548	0.180343	0.180436				-0.003985	-0.000950	-0.000250				35.214979	-88.239241	-167.006231
01104	993424	9.805657	0.171854	0.195554				-0.004562	-0.000767	0.000622				35.213128	-88.239519	-167.005681
