// General information: 
//  MT Manager version: 2022.0.0 
//  XDA version: 2022.0.0 build 7085 rev 119802 built on 2022-11-08
// Device information: 
//  DeviceId: 037004D1
//  ProductCode: MTi-300-2A5G4
//  Firmware Version: 1.4.1
//  Hardware Version: 2.1.0
// Device settings: 
//  Filter Profile: general(39.16)
//  Option Flags: Orientation Smoother Disabled, Position/Velocity Smoother Disabled, Continuous Zero Rotation Update Disabled, AHS Disabled, ICC Disabled
// Coordinate system: ENU
PacketCounter	SampleTimeFine	Acc_X	Acc_Y	Acc_Z	AccHR_X	AccHR_Y	AccHR_Z	Gyr_X	Gyr_Y	Gyr_Z	GyrHR_X	GyrHR_Y	GyrHR_Z	Roll	Pitch	Yaw
00001	12785212	-0.167153	-0.109153	9.799809				-0.003745	0.004945	-0.000808				-0.697267	0.975007	-42.138220
00002	12785262	-0.169008	-0.116775	9.792394				-0.002149	-0.001301	-0.003155				-0.695638	0.974302	-42.138345
00003	12785312	-0.172723	-0.101417	9.804392				-0.003073	0.001759	-0.001983				-0.696528	0.974799	-42.138922
00004	12785362	-0.162344	-0.134492	9.790446				-0.002547	0.000053	-0.002507				-0.695011	0.974484	-42.138917
00005	12785412	-0.165396	-0.109267	9.775604				-0.006126	-0.002209	-0.004116				-0.696786	0.973837	-42.140085
00006	12785462	-0.175432	-0.107342	9.784037				-0.004624	0.005351	-0.000708				-0.695855	0.975046	-42.139591
00007	12785512	-0.191454	-0.104507	9.806887				-0.002669	0.003349	-0.001654				-0.696627	0.976000	-42.140075
00008	12785562	-0.181692	-0.114091	9.802771				-0.002207	-0.001265	-0.001135				-0.695005	0.975313	-42.139634
00009	12785612	-0.174049	-0.102199	9.792176				-0.001667	0.004010	-0.002839				-0.695497	0.976452	-42.140462
00010	12785662	-0.155064	-0.125542	9.797599				-0.002795	-0.004316	-0.003589				-0.694056	0.974882	-42.140748
00011	12785712	-0.173936	-0.102831	9.780194				-0.005251	0.003689	-0.003058				-0.695576	0.975928	-42.141629
00012	12785762	-0.165354	-0.113554	9.797647				-0.004072	0.002135	-0.000376				-0.694484	0.976217	-42.140980
00013	12785812	-0.162842	-0.107825	9.816566				-0.007951	-0.000040	-0.001016				-0.696766	0.976202	-42.141272
00014	12785862	-0.172451	-0.115321	9.798403				-0.003418	0.001730	0.001194				-0.695480	0.976381	-42.140214
00015	12785912	-0.182936	-0.091275	9.796288				-0.003460	-0.000925	0.000441				-0.696469	0.976117	-42.140084
00016	12785962	-0.167958	-0.105640	9.788795				-0.002910	0.000763	-0.000032				-0.695043	0.976015	-42.139322
00017	12786012	-0.168488	-0.116467	9.787362				-0.001956	0.000973	-0.001059				-0.695609	0.976290	-42.139630
00018	12786062	-0.167059	-0.109326	9.783996				-0.001720	-0.003520	-0.000989				-0.693846	0.974957	-42.139149
00019	12786112	-0.183721	-0.103061	9.787198				-0.006257	0.001252	0.000622				-0.695636	0.975318	-42.138962
00020	12786162	-0.171532	-0.107369	9.784971				-0.006420	0.002643	0.001592				-0.695208	0.975759	-42.137759
00021	12786212	-0.178164	-0.099603	9.806581				-0.002955	0.002114	-0.002397				-0.696066	0.976357	-42.138449
00022	12786262	-0.164187	-0.104774	9.793330				-0.005156	0.000851	-0.001149				-0.695289	0.976275	-42.138041
00023	12786312	-0.171379	-0.102227	9.808937				-0.003359	-0.001477	-0.001838				-0.696260	0.975845	-42.138558
00024	12786362	-0.176465	-0.103995	9.812803				-0.003473	0.000232	-0.001507				-0.695004	0.975584	-42.138230
00025	12786412	-0.172913	-0.104578	9.796010				-0.001834	-0.003301	-0.004065				-0.695549	0.974625	-42.139377
00026	12786462	-0.168389	-0.080004	9.797659				-0.007101	0.003791	-0.000836				-0.695327	0.975387	-42.138884
00027	12786512	-0.188305	-0.106423	9.808545				-0.003344	0.000104	-0.003529				-0.696302	0.975404	-42.139890
00028	12786562	-0.171192	-0.099418	9.796955				-0.003140	0.002022	0.000009				-0.694942	0.975662	-42.139144
00029	12786612	-0.174360	-0.107346	9.800089				-0.003571	-0.001345	0.002398				-0.695953	0.975286	-42.138448
00030	12786662	-0.179697	-0.097425	9.782857				-0.005143	0.001201	-0.003197				-0.695182	0.975298	-42.138600
00031	12786712	-0.176909	-0.109101	9.803693				-0.004382	0.004005	0.001369				-0.696431	0.976450	-42.138218
00032	12786762	-0.166729	-0.104849	9.817068				-0.002007	0.000580	-0.001864				-0.694756	0.976288	-42.137998
00033	12786812	-0.181234	-0.090943	9.817134				-0.005790	0.002383	-0.004987				-0.696440	0.976953	-42.139436
00034	12786862	-0.181336	-0.104445	9.790061				-0.006584	0.000305	-0.002749				-0.696080	0.976710	-42.139430
00035	12786912	-0.173848	-0.109644	9.809910				-0.003842	0.003010	-0.001591				-0.697188	0.977566	-42.139892
00036	12786962	-0.170304	-0.118220	9.803430				-0.003081	0.002249	0.001165				-0.695806	0.977893	-42.138828
00037	12787012	-0.180391	-0.108484	9.803232				-0.006452	-0.000659	-0.000767				-0.697658	0.977702	-42.139038
00038	12787062	-0.173475	-0.111534	9.799363				-0.001024	0.000758	-0.003307				-0.695709	0.977586	-42.139219
00039	12787112	-0.168952	-0.094122	9.809885				-0.002558	0.002001	0.000522				-0.696439	0.978161	-42.139074
00040	12787162	-0.190465	-0.091588	9.802323				-0.002074	0.003482	-0.004988				-0.694798	0.978820	-42.139770
00041	12787212	-0.168602	-0.114269	9.786400				0.001780	0.001459	0.000539				-0.694286	0.979240	-42.139626
00042	12787262	-0.166363	-0.099677	9.790462				-0.001492	-0.000311	0.001337				-0.692447	0.978834	-42.138477
00043	12787312	-0.162926	-0.109615	9.785892				-0.005054	0.000658	-0.002497				-0.693908	0.979014	-42.139187
00044	12787362	-0.181885	-0.095973	9.807307				-0.005767	0.004236	-0.000004				-0.693301	0.979907	-42.138454
00045	12787412	-0.151947	-0.111757	9.796621				-0.004125	0.000804	0.000612				-0.694479	0.980139	-42.138278
00046	12787462	-0.172463	-0.090752	9.791924				-0.001720	0.000819	0.001214				-0.692706	0.980056	-42.137196
00047	12787512	-0.165557	-0.127842	9.796215				-0.004762	-0.000400	-0.000453				-0.694073	0.979940	-42.137325
00048	12787562	-0.174755	-0.101661	9.800811				-0.003922	-0.000141	-0.006383				-0.692968	0.979556	-42.138408
00049	12787612	-0.154642	-0.103199	9.795671				-0.002452	-0.000855	-0.002770				-0.693684	0.979302	-42.139202
00050	12787662	-0.167078	-0.090298	9.801478				0.000495	0.001734	0.001984				-0.691273	0.979484	-42.137906
00051	12787712	-0.167431	-0.090697	9.792619				-0.002154	0.000426	0.002309				-0.691879	0.979614	-42.137241
00052	12787762	-0.179701	-0.100396	9.796762				-0.007682	0.000843	0.001653				-0.691812	0.979540	-42.136011
00053	12787812	-0.177262	-0.098211	9.805139				-0.005318	0.003244	0.000536				-0.693333	0.980471	-42.135867
00054	12787862	-0.169178	-0.124163	9.793596				-0.006549	0.000209	-0.002462				-0.692962	0.980201	-42.135856
00055	12787912	-0.161461	-0.125529	9.808181				-0.002953	0.001851	-0.005095				-0.693833	0.980714	-42.137324
00056	12787962	-0.167452	-0.112686	9.786633				-0.001574	0.002945	-0.003648				-0.692042	0.981223	-42.137626
00057	12788012	-0.184646	-0.102468	9.795593				-0.005863	-0.001331	-0.002822				-0.693735	0.980832	-42.138420
00058	12788062	-0.178097	-0.114212	9.796518				-0.003668	-0.001583	-0.000525				-0.692529	0.980055	-42.137816
00059	12788112	-0.168815	-0.117130	9.807734				-0.005285	-0.000254	-0.001697				-0.694051	0.979977	-42.138296
00060	12788162	-0.167561	-0.107745	9.810840				-0.006900	-0.001767	-0.001125				-0.693773	0.979145	-42.137864
00061	12788212	-0.164545	-0.118354	9.801959				-0.003558	-0.000257	-0.003053				-0.694808	0.979061	-42.138736
00062	12788262	-0.189862	-0.091651	9.791057				-0.001513	0.002173	-0.002240				-0.692993	0.979354	-42.138663
00063	12788312	-0.162376	-0.102146	9.797390				-0.003029	0.001471	-0.001314				-0.693867	0.979771	-42.139040
00064	12788362	-0.159777	-0.105121	9.804332				-0.004935	0.001850	-0.002360				-0.693033	0.979971	-42.138965
00065	12788412	-0.169280	-0.102698	9.798857				-0.000943	0.000215	-0.001135				-0.693309	0.980029	-42.139291
00066	12788462	-0.172355	-0.098815	9.787380				-0.005115	0.001459	-0.003102				-0.692530	0.980114	-42.139415
00067	12788512	-0.165663	-0.099716	9.803154				-0.005302	-0.001772	-0.001738				-0.694057	0.979601	-42.139907
00068	12788562	-0.167615	-0.109343	9.795503				-0.002687	-0.003606	-0.003426				-0.692584	0.978234	-42.140127
00069	12788612	-0.178882	-0.105936	9.780933				-0.005518	0.001000	-0.002716				-0.694179	0.978511	-42.140911
00070	12788662	-0.185733	-0.105448	9.803504				-0.003768	0.001553	-0.000730				-0.693002	0.978632	-42.140363
00071	12788712	-0.168479	-0.101492	9.794785				-0.004804	-0.001311	-0.001865				-0.694388	0.978249	-42.140893
00072	12788762	-0.198977	-0.090885	9.808116				-0.002445	0.000483	0.001059				-0.692823	0.978070	-42.139803
00073	12788812	-0.185123	-0.106293	9.799662				-0.005157	-0.002287	-0.002414				-0.694312	0.977407	-42.140487
00074	12788862	-0.191103	-0.092635	9.807357				-0.009333	0.000392	-0.000336				-0.694728	0.977197	-42.139821
00075	12788912	-0.165103	-0.108366	9.800043				-0.002818	-0.000012	-0.000199				-0.695536	0.977193	-42.139875
00076	12788962	-0.183011	-0.090734	9.803720				-0.004897	-0.000343	-0.002567				-0.694693	0.976764	-42.139856
00077	12789012	-0.180344	-0.104435	9.802992				-0.005558	-0.004685	-0.000117				-0.696285	0.975422	-42.139870
00078	12789062	-0.196801	-0.099932	9.812182				-0.002292	0.002516	-0.001948				-0.694692	0.975814	-42.139693
00079	12789112	-0.160853	-0.111662	9.816316				-0.002438	-0.001144	-0.002289				-0.695402	0.975478	-42.140343
00080	12789162	-0.179381	-0.112161	9.800838				-0.002933	-0.000525	0.001211				-0.693976	0.975010	-42.139247
00081	12789212	-0.175111	-0.113576	9.805367				-0.003639	-0.000417	0.000283				-0.695017	0.974892	-42.139159
00082	12789262	-0.162914	-0.098859	9.797152				-0.005743	0.003362	-0.000397				-0.694406	0.975532	-42.138525
00083	12789312	-0.171557	-0.116114	9.807506				-0.001253	0.001115	-0.000130				-0.694765	0.975851	-42.138570
00084	12789362	-0.166503	-0.110134	9.807475				-0.000878	-0.001858	-0.002297				-0.692769	0.974990	-42.138463
00085	12789412	-0.159018	-0.119250	9.793067				-0.008145	0.000285	0.000940				-0.695098	0.975075	-42.138183
00086	12789462	-0.161387	-0.105988	9.804098				-0.003113	0.001044	-0.002339				-0.693742	0.975044	-42.138107
00087	12789512	-0.184781	-0.100114	9.798225				-0.004826	0.002670	-0.000496				-0.695127	0.975807	-42.138252
00088	12789562	-0.176576	-0.108194	9.802012				-0.006364	0.002741	0.000728				-0.694688	0.976273	-42.137327
00089	12789612	-0.187781	-0.105675	9.806627				-0.003842	-0.001294	-0.002189				-0.695799	0.975894	-42.137951
00090	12789662	-0.158054	-0.106761	9.810078				-0.002249	-0.000878	-0.001005				-0.694188	0.975318	-42.137467
00091	12789712	-0.188351	-0.107330	9.786018				-0.003965	-0.002230	0.001080				-0.695319	0.974683	-42.137149
00092	12789762	-0.186531	-0.110410	9.792963				-0.004343	0.002411	-0.003384				-0.694320	0.975041	-42.137346
00093	12789812	-0.169993	-0.115356	9.785688				-0.002732	0.002125	-0.001563				-0.695110	0.975644	-42.137795
00094	12789862	-0.184865	-0.097153	9.786517				-0.000896	0.003124	-0.000376				-0.693110	0.976216	-42.137149
00095	12789912	-0.169793	-0.105175	9.797036				-0.002070	0.000319	-0.003286				-0.693719	0.976296	-42.138091
00096	12789962	-0.184172	-0.103408	9.793985				-0.000267	0.002398	0.000124				-0.691535	0.976663	-42.137286
00097	12790012	-0.186782	-0.114909	9.795444				-0.004584	-0.001850	0.002261				-0.692838	0.976141	-42.136637
00098	12790062	-0.167340	-0.108985	9.795820				-0.005323	-0.001027	-0.001038				-0.692108	0.975522	-42.136186
00099	12790112	-0.177382	-0.118056	9.809772				-0.004773	0.000118	0.001405				-0.693468	0.975561	-42.135782
00100	12790162	-0.160865	-0.110101	9.805614				-0.002545	0.004481	-0.002106				-0.691949	0.976516	-42.135631
00101	12790212	-0.180677	-0.109040	9.784148				-0.007557	0.000004	0.000612				-0.694111	0.976519	-42.135455
00102	12790262	-0.163111	-0.115209	9.807073				-0.002403	0.000900	-0.001132				-0.692546	0.976451	-42.135022
00103	12790312	-0.164139	-0.118732	9.785977				-0.004125	0.000969	0.001571				-0.693720	0.976734	-42.134574
00104	12790362	-0.181636	-0.112233	9.803563				-0.010867	-0.001127	-0.002176				-0.694585	0.976082	-42.134434
00105	12790412	-0.177393	-0.106348	9.788447				-0.003085	0.001048	-0.002441				-0.695480	0.976374	-42.135132
00106	12790462	-0.186929	-0.101686	9.804789				-0.001047	-0.004341	0.000893				-0.693517	0.974812	-42.134137
00107	12790512	-0.166533	-0.105365	9.797258				-0.002535	0.002323	0.000707				-0.694240	0.975479	-42.133940
00108	12790562	-0.157290	-0.138631	9.793386				-0.002986	0.001786	-0.005262				-0.692862	0.975651	-42.134724
00109	12790612	-0.176207	-0.113773	9.804973				-0.004619	0.000115	-0.002154				-0.694195	0.975677	-42.135342
00110	12790662	-0.173555	-0.106498	9.785787				-0.005483	0.002007	-0.002014				-0.693518	0.975923	-42.135151
00111	12790712	-0.184712	-0.102134	9.805490				-0.002481	0.000349	-0.001805				-0.694237	0.976017	-42.135671
00112	12790762	-0.145052	-0.125635	9.806492				-0.003444	-0.001740	-0.001337				-0.692971	0.975192	-42.135286
00113	12790812	-0.159829	-0.114457	9.783560				0.000712	-0.000138	0.001065				-0.692762	0.975157	-42.134979
00114	12790862	-0.174617	-0.112678	9.815027				-0.004437	-0.001454	0.002585				-0.691761	0.974427	-42.133473
00115	12790912	-0.165546	-0.120191	9.805164				-0.005081	0.005931	0.000602				-0.693214	0.976129	-42.133318
00116	12790962	-0.172841	-0.112699	9.788900				-0.003401	0.003650	-0.006980				-0.691964	0.976828	-42.134609
00117	12791012	-0.169262	-0.108901	9.811890				-0.000762	0.003937	-0.000735				-0.692186	0.977953	-42.134835
00118	12791062	-0.180161	-0.110229	9.781026				-0.001457	0.000498	0.000279				-0.690343	0.977776	-42.133964
00119	12791112	-0.158550	-0.130163	9.795061				-0.003835	0.000417	-0.003407				-0.691459	0.977883	-42.134943
00120	12791162	-0.179282	-0.094263	9.799476				-0.004664	0.001665	-0.000252				-0.690538	0.978038	-42.134282
00121	12791212	-0.177272	-0.100400	9.802582				-0.003903	0.000481	-0.003726				-0.691674	0.978162	-42.135361
00122	12791262	-0.181241	-0.090361	9.793013				-0.005660	0.001581	-0.003268				-0.691054	0.978283	-42.135540
00123	12791312	-0.158622	-0.110124	9.805844				-0.001886	0.000747	-0.002415				-0.691606	0.978488	-42.136236
00124	12791362	-0.161035	-0.103825	9.790517				-0.004294	0.001030	-0.001161				-0.690583	0.978458	-42.135790
00125	12791412	-0.187972	-0.079189	9.789686				-0.002861	0.000276	-0.001001				-0.691407	0.978533	-42.136079
00126	12791462	-0.173433	-0.105382	9.790817				-0.003600	0.002498	0.000361				-0.690179	0.978928	-42.135257
00127	12791512	-0.172324	-0.120775	9.806390				-0.002900	0.001404	-0.001991				-0.691019	0.979324	-42.135827
00128	12791562	-0.178348	-0.095942	9.816961				-0.005746	-0.001611	0.001208				-0.690401	0.978544	-42.134748
00129	12791612	-0.187765	-0.092325	9.787527				0.000662	0.000104	-0.003418				-0.690228	0.978562	-42.135726
00130	12791662	-0.160106	-0.119817	9.797944				-0.004181	-0.000654	-0.002006				-0.689177	0.978046	-42.135527
00131	12791712	-0.174499	-0.093177	9.794179				-0.005724	0.001517	-0.002399				-0.690828	0.978472	-42.136209
00132	12791762	-0.184854	-0.107468	9.798306				-0.001462	0.001659	-0.001355				-0.688995	0.978621	-42.135867
00133	12791812	-0.185966	-0.090615	9.804298				-0.004535	-0.000565	-0.001388				-0.690302	0.978454	-42.136260
00134	12791862	-0.170903	-0.103777	9.799430				-0.002302	0.002771	-0.003752				-0.688720	0.978914	-42.136620
00135	12791912	-0.187800	-0.096447	9.802633				-0.001636	-0.002062	-0.001496				-0.689196	0.978318	-42.137044
00136	12791962	-0.174792	-0.115874	9.821740				-0.005113	-0.000734	-0.002764				-0.688416	0.977776	-42.137071
00137	12792012	-0.194819	-0.110684	9.810822				-0.004084	-0.000818	-0.003316				-0.689602	0.977531	-42.138011
00138	12792062	-0.188975	-0.094202	9.802398				-0.006098	-0.001945	-0.001805				-0.689099	0.976646	-42.137793
00139	12792112	-0.171844	-0.088807	9.780025				-0.003477	0.000525	-0.000840				-0.690099	0.976793	-42.138027
00140	12792162	-0.175031	-0.118294	9.780052				-0.004587	0.002086	-0.001726				-0.689164	0.977063	-42.137811
00141	12792212	-0.175101	-0.114358	9.788191				-0.002671	-0.000820	-0.002232				-0.689940	0.976820	-42.138450
00142	12792262	-0.179343	-0.104744	9.803787				-0.004873	-0.003155	-0.001659				-0.689085	0.975589	-42.138067
00143	12792312	-0.185135	-0.109840	9.793040				-0.004914	-0.002301	0.004445				-0.690471	0.974945	-42.136783
00144	12792362	-0.193852	-0.092307	9.788763				-0.001589	-0.003769	-0.000834				-0.688672	0.973541	-42.136248
00145	12792412	-0.177248	-0.108119	9.784611				-0.000820	-0.003561	0.000701				-0.688904	0.972523	-42.136036
00146	12792462	-0.177069	-0.113972	9.789646				-0.004875	0.000080	-0.000968				-0.688046	0.972221	-42.135594
00147	12792512	-0.169984	-0.109286	9.797035				-0.004944	0.000239	-0.001193				-0.689469	0.972286	-42.135932
00148	12792562	-0.173296	-0.094001	9.792735				-0.002600	-0.000816	0.000209				-0.687954	0.971732	-42.135108
00149	12792612	-0.178340	-0.113437	9.809057				-0.000092	-0.001227	-0.000092				-0.687980	0.971380	-42.135138
00150	12792662	-0.174794	-0.113110	9.813113				-0.003804	-0.000587	-0.003956				-0.686831	0.970876	-42.135454
00151	12792712	-0.182344	-0.095976	9.802129				-0.004843	-0.000150	-0.003182				-0.688234	0.970823	-42.136362
00152	12792762	-0.176449	-0.097176	9.781486				-0.002381	-0.000650	0.000856				-0.686654	0.970318	-42.135342
00153	12792812	-0.185920	-0.094373	9.807650				-0.001998	-0.001911	-0.002555				-0.687239	0.969762	-42.136075
00154	12792862	-0.180763	-0.113144	9.806674				-0.007059	0.001301	-0.001885				-0.687011	0.969807	-42.135738
00155	12792912	-0.173802	-0.108550	9.795375				-0.003334	-0.000156	-0.001999				-0.687976	0.969756	-42.136309
00156	12792962	-0.181737	-0.092143	9.803317				-0.004118	0.001413	-0.002472				-0.686908	0.969831	-42.136167
00157	12793012	-0.168418	-0.101273	9.791274				-0.003755	0.001331	0.000129				-0.687983	0.970212	-42.136128
00158	12793062	-0.168864	-0.121785	9.792001				-0.003748	0.000738	-0.004400				-0.686821	0.970087	-42.136567
00159	12793112	-0.190095	-0.084120	9.796174				-0.004789	0.000634	0.000704				-0.688190	0.970271	-42.136367
00160	12793162	-0.189009	-0.101181	9.811747				-0.005611	0.001302	0.001226				-0.687533	0.970327	-42.135190
00161	12793212	-0.164223	-0.116067	9.797012				-0.005848	0.001352	-0.003266				-0.689224	0.970704	-42.136121
00162	12793262	-0.174291	-0.113744	9.792261				-0.004105	0.003099	-0.000375				-0.688144	0.971269	-42.135402
00163	12793312	-0.193855	-0.100166	9.789004				-0.004944	-0.001062	-0.004756				-0.689583	0.970948	-42.136760
00164	12793362	-0.168815	-0.128447	9.794876				-0.004557	0.000050	-0.002282				-0.688641	0.970634	-42.136529
00165	12793412	-0.168880	-0.112430	9.806374				-0.004183	0.000247	-0.005137				-0.689864	0.970687	-42.138000
00166	12793462	-0.170966	-0.127222	9.807105				-0.006113	-0.001530	-0.003634				-0.689375	0.969915	-42.138214
00167	12793512	-0.179774	-0.107032	9.785577				-0.003036	0.002728	-0.001631				-0.690253	0.970691	-42.138682
00168	12793562	-0.165429	-0.095502	9.789580				-0.002463	0.001733	-0.003118				-0.688715	0.970856	-42.138749
00169	12793612	-0.167173	-0.096521	9.807799				-0.003377	0.001396	-0.000902				-0.689687	0.971253	-42.139009
00170	12793662	-0.191382	-0.089194	9.796168				0.000801	-0.003081	0.000960				-0.687195	0.970052	-42.137935
00171	12793712	-0.167311	-0.122462	9.813080				-0.002492	0.000967	0.000413				-0.687907	0.970330	-42.137815
00172	12793762	-0.164530	-0.113311	9.808270				-0.002277	-0.000942	0.000398				-0.686299	0.969741	-42.136855
00173	12793812	-0.169093	-0.110360	9.796793				-0.002676	0.001872	0.001732				-0.687057	0.970283	-42.136364
00174	12793862	-0.183263	-0.110228	9.790880				-0.003738	-0.001452	-0.001074				-0.685876	0.969541	-42.135944
00175	12793912	-0.171045	-0.112778	9.808064				-0.003127	0.003961	0.001936				-0.686762	0.970683	-42.135396
00176	12793962	-0.175851	-0.109429	9.789872				-0.005557	-0.001314	0.002079				-0.686085	0.969993	-42.133999
00177	12794012	-0.177830	-0.105139	9.786773				-0.003203	-0.002221	-0.002268				-0.687013	0.969349	-42.134645
00178	12794062	-0.172513	-0.101477	9.794884				-0.007692	0.003901	-0.004433				-0.686980	0.970130	-42.135151
00179	12794112	-0.176452	-0.106881	9.791311				-0.005280	0.000916	0.000966				-0.688488	0.970396	-42.134868
00180	12794162	-0.178715	-0.096639	9.800194				-0.006611	-0.000789	0.000411				-0.688122	0.969850	-42.134031
00181	12794212	-0.189051	-0.096286	9.793770				-0.000894	0.003633	-0.005063				-0.688403	0.970873	-42.135496
00182	12794262	-0.172373	-0.105049	9.800646				-0.004588	-0.002149	-0.002132				-0.687469	0.969929	-42.135348
00183	12794312	-0.169203	-0.093211	9.786720				-0.003945	0.000127	-0.001320				-0.688606	0.969961	-42.135726
00184	12794362	-0.199391	-0.089135	9.803650				-0.005172	0.001267	-0.002465				-0.687841	0.969994	-42.135713
00185	12794412	-0.180496	-0.101273	9.795886				-0.004779	-0.000888	-0.001130				-0.689215	0.969736	-42.136032
00186	12794462	-0.172021	-0.114980	9.783868				-0.002747	0.001802	-0.000607				-0.687747	0.969929	-42.135461
00187	12794512	-0.170594	-0.104321	9.800631				-0.005911	0.001582	-0.000922				-0.689445	0.970379	-42.135723
00188	12794562	-0.171552	-0.123186	9.798004				-0.000757	0.001537	-0.002512				-0.687416	0.970490	-42.135703
00189	12794612	-0.140132	-0.129643	9.793052				-0.002943	0.004893	-0.002815				-0.688273	0.971881	-42.136534
00190	12794662	-0.176710	-0.092392	9.807132				-0.005290	0.000168	-0.000677				-0.687533	0.971606	-42.135905
00191	12794712	-0.181534	-0.091783	9.776471				-0.004314	-0.000165	0.001277				-0.688763	0.971563	-42.135539
00192	12794762	-0.176318	-0.124587	9.791080				-0.001144	0.003897	0.000452				-0.686831	0.972359	-42.134693
00193	12794812	-0.171885	-0.119435	9.795126				-0.002532	-0.004443	-0.002826				-0.687570	0.971077	-42.135488
00194	12794862	-0.181481	-0.107207	9.763302				-0.005528	0.000360	-0.001346				-0.686902	0.970855	-42.135116
00195	12794912	-0.173775	-0.085689	9.780030				-0.008803	0.000050	0.001644				-0.689416	0.970875	-42.134644
00196	12794962	-0.192187	-0.092650	9.801457				-0.002086	0.002629	0.004177				-0.687736	0.971321	-42.132728
00197	12795012	-0.166435	-0.114342	9.810197				-0.003943	-0.000164	-0.002477				-0.688878	0.971265	-42.133431
00198	12795062	-0.167473	-0.094742	9.782635				-0.002629	0.000464	-0.006649				-0.687405	0.971054	-42.134594
00199	12795112	-0.162856	-0.111372	9.788132				-0.003231	0.002923	0.000291				-0.688329	0.971892	-42.134521
00200	12795162	-0.161994	-0.105664	9.816163				-0.004723	-0.002666	-0.000917				-0.687429	0.970804	-42.134049
00201	12795212	-0.161188	-0.111463	9.795787				-0.002981	0.000852	-0.002126				-0.688293	0.971041	-42.134656
00202	12795262	-0.161918	-0.110309	9.795555				-0.005509	0.001105	0.000483				-0.687611	0.971037	-42.133685
00203	12795312	-0.166557	-0.107572	9.799894				-0.004141	0.003223	-0.002205				-0.688808	0.971953	-42.134326
00204	12795362	-0.183042	-0.106176	9.791351				-0.002627	-0.001340	-0.002997				-0.687318	0.971238	-42.134424
00205	12795412	-0.155082	-0.106224	9.785458				-0.001540	0.004082	-0.001502				-0.687766	0.972402	-42.134865
00206	12795462	-0.175486	-0.113983	9.806413				-0.005395	0.001296	-0.003047				-0.687069	0.972441	-42.135019
00207	12795512	-0.165458	-0.114183	9.797489				-0.003935	0.001577	-0.004492				-0.688218	0.972878	-42.136307
00208	12795562	-0.192834	-0.099707	9.853464				-0.003936	-0.001327	-0.001935				-0.687098	0.972169	-42.136026
00209	12795612	-0.178642	-0.119035	9.830388				-0.003504	-0.000437	0.002013				-0.688092	0.972051	-42.135450
00210	12795662	-0.193584	-0.103115	9.823513				-0.005209	0.001333	-0.003170				-0.687342	0.972101	-42.135528
00211	12795712	-0.196745	-0.103372	9.809626				-0.004137	-0.002041	-0.000369				-0.688529	0.971516	-42.135619
00212	12795762	-0.206574	-0.105998	9.812557				-0.006408	0.000218	0.001991				-0.688097	0.971264	-42.134218
00213	12795812	-0.201805	-0.115486	9.792885				-0.003389	-0.001315	-0.000814				-0.689072	0.970884	-42.134439
00214	12795862	-0.196063	-0.113295	9.775355				-0.002946	0.001894	-0.001278				-0.687664	0.971101	-42.134008
00215	12795912	-0.180028	-0.105670	9.760901				-0.001920	-0.001230	-0.001687				-0.688223	0.970743	-42.134492
00216	12795962	-0.183677	-0.093345	9.789909				-0.000309	-0.002488	-0.001153				-0.686060	0.969705	-42.133987
00217	12796012	-0.151878	-0.104272	9.829533				-0.002536	-0.001310	-0.005407				-0.686812	0.969311	-42.135531
00218	12796062	-0.136151	-0.132621	9.830181				-0.004660	0.003344	-0.003999				-0.685909	0.969935	-42.135831
00219	12796112	-0.136941	-0.121086	9.809800				-0.002208	0.003910	-0.000188				-0.686543	0.971054	-42.135901
00220	12796162	-0.142573	-0.124071	9.824697				-0.006080	-0.002626	-0.001623				-0.686036	0.969975	-42.135507
00221	12796212	-0.163447	-0.098461	9.788845				0.001094	0.001667	-0.002610				-0.685735	0.970444	-42.136255
00222	12796262	-0.167187	-0.077079	9.777121				-0.002410	0.000924	-0.004371				-0.684188	0.970373	-42.136672
00223	12796312	-0.159772	-0.104691	9.770622				-0.005145	0.002561	-0.002432				-0.685674	0.971098	-42.137375
00224	12796362	-0.150310	-0.107840	9.765539				-0.005686	-0.000005	-0.004432				-0.685068	0.970759	-42.137820
00225	12796412	-0.154171	-0.119191	9.793842				-0.003216	0.001239	-0.001702				-0.685997	0.971108	-42.138309
00226	12796462	-0.186082	-0.109126	9.809336				-0.002818	0.001121	0.001473				-0.684539	0.971113	-42.137045
00227	12796512	-0.171623	-0.110916	9.812383				-0.004145	0.004718	0.000757				-0.685723	0.972467	-42.136837
00228	12796562	-0.159607	-0.109812	9.812556				-0.003804	0.001778	-0.000738				-0.684559	0.972653	-42.136231
00229	12796612	-0.195801	-0.105127	9.829755				-0.004867	0.002121	0.001514				-0.685946	0.973266	-42.135799
00230	12796662	-0.191828	-0.112199	9.828535				-0.004660	0.000507	-0.000899				-0.685028	0.973086	-42.135237
00231	12796712	-0.193605	-0.113181	9.804351				-0.003943	0.002139	-0.000028				-0.686158	0.973699	-42.135254
00232	12796762	-0.214772	-0.108851	9.798692				-0.003811	0.002073	0.000391				-0.684990	0.973973	-42.134289
00233	12796812	-0.218160	-0.102935	9.794397				-0.004680	-0.000916	0.000474				-0.686328	0.973712	-42.134151
00234	12796862	-0.223015	-0.089522	9.792506				-0.006952	-0.001821	0.002787				-0.686049	0.972879	-42.132500
00235	12796912	-0.206085	-0.104953	9.807518				-0.006070	0.001580	-0.000630				-0.687791	0.973330	-42.132679
00236	12796962	-0.201779	-0.108281	9.815643				-0.004170	-0.001140	-0.002253				-0.686739	0.972675	-42.132471
00237	12797012	-0.187803	-0.106375	9.820368				-0.000058	0.000940	-0.000430				-0.686758	0.972943	-42.132592
00238	12797062	-0.178571	-0.110990	9.829430				-0.003029	0.003439	-0.003294				-0.685384	0.973597	-42.132683
00239	12797112	-0.172641	-0.112880	9.805916				-0.002584	-0.000529	-0.002164				-0.686134	0.973438	-42.133297
00240	12797162	-0.162745	-0.094481	9.790036				-0.000451	-0.000905	0.000424				-0.684005	0.972859	-42.132371
00241	12797212	-0.164959	-0.104487	9.787423				-0.000722	-0.002857	-0.004363				-0.684232	0.972026	-42.133609
00242	12797262	-0.151025	-0.107746	9.766503				-0.001267	0.000599	0.000727				-0.682334	0.971879	-42.132538
00243	12797312	-0.138100	-0.103223	9.751580				-0.004502	-0.000856	-0.003321				-0.683639	0.971623	-42.133485
00244	12797362	-0.148464	-0.100167	9.762414				-0.005771	0.000931	-0.003143				-0.683051	0.971558	-42.133561
00245	12797412	-0.152347	-0.088336	9.778244				-0.001995	0.001131	-0.002639				-0.683635	0.971873	-42.134327
00246	12797462	-0.136621	-0.102367	9.809808				-0.004520	0.002025	-0.001217				-0.682679	0.972127	-42.133852
00247	12797512	-0.159619	-0.101345	9.801294				-0.005225	-0.001124	-0.002319				-0.684187	0.971797	-42.134513
00248	12797562	-0.168140	-0.094275	9.813318				-0.005309	-0.000212	0.000733				-0.683447	0.971418	-42.133454
00249	12797612	-0.148872	-0.114167	9.811307				-0.003727	0.002233	-0.002469				-0.684526	0.972049	-42.134166
00250	12797662	-0.169794	-0.093210	9.804700				-0.001094	0.001153	-0.000969				-0.682587	0.972055	-42.133641
00251	12797712	-0.197072	-0.112596	9.739653				-0.007911	0.003099	-0.000044				-0.684854	0.972942	-42.133655
00252	12797762	-0.211888	-0.121246	9.776161				-0.003153	0.002638	0.000328				-0.683498	0.973378	-42.132715
00253	12797812	-0.232274	-0.116493	9.862301				-0.004788	0.001536	-0.001533				-0.684877	0.973813	-42.133150
00254	12797862	-0.241318	-0.101533	9.869768				-0.005361	0.001463	-0.000570				-0.684159	0.973909	-42.132492
00255	12797912	-0.225159	-0.105658	9.843085				-0.004405	0.001411	-0.003683				-0.685439	0.974301	-42.133553
00256	12797962	-0.226016	-0.090034	9.830865				-0.004461	0.002185	-0.002073				-0.684470	0.974599	-42.133331
00257	12798012	-0.226645	-0.092178	9.841651				-0.004037	-0.002103	-0.000269				-0.685628	0.973996	-42.133398
00258	12798062	-0.190440	-0.105860	9.836679				-0.003749	-0.002936	0.000651				-0.684441	0.972836	-42.132382
00259	12798112	-0.198699	-0.100654	9.754754				-0.004429	-0.000648	0.001919				-0.685701	0.972657	-42.131828
00260	12798162	-0.178070	-0.094728	9.737161				-0.006843	-0.002798	-0.000750				-0.685406	0.971533	-42.131180
00261	12798212	-0.166381	-0.107643	9.792464				-0.002576	-0.000489	0.001522				-0.686137	0.971398	-42.130743
00262	12798262	-0.167355	-0.111523	9.796301				-0.001798	-0.001162	-0.002909				-0.684409	0.970735	-42.130738
00263	12798312	-0.134594	-0.110562	9.797813				-0.006340	0.001729	-0.003141				-0.686241	0.971219	-42.131645
00264	12798362	-0.117012	-0.136946	9.783838				-0.008338	0.003415	0.000466				-0.686371	0.971879	-42.130676
00265	12798412	-0.122332	-0.138791	9.795122				-0.004685	0.002184	-0.001733				-0.687721	0.972499	-42.131176
00266	12798462	-0.097170	-0.130536	9.762163				-0.002731	0.001182	-0.000876				-0.686250	0.972514	-42.130568
00267	12798512	-0.094960	-0.126439	9.737226				-0.006314	0.001027	0.000928				-0.688055	0.972811	-42.130300
00268	12798562	-0.119684	-0.107819	9.746932				-0.003795	0.000128	-0.002094				-0.686894	0.972520	-42.130048
00269	12798612	-0.118907	-0.104044	9.793422				-0.002595	0.001957	-0.001062				-0.687643	0.973077	-42.130357
00270	12798662	-0.143625	-0.072251	9.825889				-0.008550	0.005054	-0.002377				-0.687848	0.974195	-42.130232
00271	12798712	-0.153433	-0.069015	9.778241				-0.000637	-0.000428	-0.002175				-0.688041	0.974065	-42.130855
00272	12798762	-0.173856	-0.086052	9.787704				-0.000962	0.002094	-0.000259				-0.686061	0.974342	-42.130081
00273	12798812	-0.206985	-0.094309	9.842273				-0.006551	0.001737	0.002190				-0.687927	0.974847	-42.129458
00274	12798862	-0.218158	-0.108601	9.839451				-0.005190	-0.000119	-0.002150				-0.687167	0.974484	-42.129221
00275	12798912	-0.249068	-0.104537	9.784728				-0.002459	0.002871	-0.001654				-0.687879	0.975301	-42.129702
00276	12798962	-0.243803	-0.139794	9.808920				-0.005441	0.000948	0.001962				-0.687172	0.975258	-42.128308
00277	12799012	-0.234780	-0.150814	9.838350				-0.005120	-0.000080	0.001347				-0.688632	0.975240	-42.127918
00278	12799062	-0.227438	-0.140600	9.833043				-0.003948	-0.000976	-0.003539				-0.687523	0.974628	-42.128087
00279	12799112	-0.232136	-0.115100	9.805736				-0.003368	-0.001124	-0.001967				-0.688498	0.974299	-42.128644
00280	12799162	-0.205815	-0.107421	9.824049				-0.001117	-0.002576	-0.005029				-0.686585	0.973223	-42.129231
00281	12799212	-0.177188	-0.101199	9.826062				-0.003020	-0.000690	0.000305				-0.687449	0.973027	-42.129140
00282	12799262	-0.174042	-0.095804	9.821979				-0.007672	-0.001780	-0.001452				-0.687397	0.972192	-42.128697
00283	12799312	-0.154127	-0.096545	9.752856				-0.005548	-0.000902	-0.000808				-0.688990	0.971931	-42.128924
00284	12799362	-0.136267	-0.081320	9.734066				-0.004546	-0.004438	-0.000804				-0.688038	0.970337	-42.128280
00285	12799412	-0.138978	-0.076651	9.793991				0.000045	-0.000448	-0.000407				-0.688027	0.970207	-42.128396
00286	12799462	-0.134167	-0.098876	9.769528				-0.004537	-0.003160	-0.007178				-0.687105	0.968957	-42.129614
00287	12799512	-0.124700	-0.102484	9.774995				-0.005145	-0.000405	0.000565				-0.688576	0.968843	-42.129451
00288	12799562	-0.143552	-0.114443	9.786598				-0.004985	0.003432	-0.003584				-0.687765	0.969492	-42.129685
00289	12799612	-0.138283	-0.138637	9.805030				-0.003784	0.001972	-0.002792				-0.688862	0.970048	-42.130490
00290	12799662	-0.140109	-0.134934	9.777960				-0.004686	0.002580	0.003886				-0.687929	0.970479	-42.128549
00291	12799712	-0.171104	-0.154423	9.772125				-0.005237	0.005932	0.002272				-0.689418	0.972186	-42.127906
00292	12799762	-0.153594	-0.147980	9.779947				-0.007007	0.004992	0.001148				-0.689163	0.973299	-42.126742
00293	12799812	-0.173290	-0.118246	9.758466				-0.005872	0.001996	-0.003519				-0.690863	0.973859	-42.127752
00294	12799862	-0.176990	-0.097372	9.794638				-0.006502	-0.000783	0.003365				-0.690453	0.973325	-42.125970
00295	12799912	-0.207038	-0.084182	9.824212				-0.003032	-0.000573	-0.002927				-0.691336	0.973151	-42.126798
00296	12799962	-0.189764	-0.085672	9.873979				-0.003911	0.005066	-0.003470				-0.690217	0.974269	-42.126958
00297	12800012	-0.218576	-0.061300	9.904312				-0.003237	0.004342	-0.000170				-0.691145	0.975512	-42.127024
00298	12800062	-0.213798	-0.088657	9.853965				0.001470	-0.000875	0.000138				-0.688466	0.974941	-42.126113
00299	12800112	-0.223598	-0.102686	9.826217				-0.004642	-0.002377	-0.001869				-0.689804	0.974253	-42.126634
00300	12800162	-0.228232	-0.094518	9.819288				-0.002913	-0.002219	-0.001777				-0.688391	0.973291	-42.126319
00301	12800212	-0.242809	-0.123015	9.764732				-0.002385	-0.001887	-0.002897				-0.689088	0.972740	-42.127143
00302	12800262	-0.209235	-0.136230	9.786613				-0.001799	0.000969	-0.001413				-0.687354	0.972693	-42.126730
00303	12800312	-0.193564	-0.141166	9.765681				-0.002213	-0.001102	-0.000138				-0.687988	0.972377	-42.126758
00304	12800362	-0.179258	-0.136376	9.811866				-0.006705	-0.002927	-0.000171				-0.687654	0.971217	-42.125945
00305	12800412	-0.138078	-0.154078	9.842339				-0.005985	-0.003601	-0.001595				-0.689376	0.970180	-42.126388
00306	12800462	-0.138005	-0.108592	9.832498				-0.004554	0.002088	-0.000795				-0.688428	0.970456	-42.125769
00307	12800512	-0.104607	-0.117271	9.808604				-0.003280	0.000525	0.000506				-0.689366	0.970608	-42.125633
00308	12800562	-0.095835	-0.092333	9.783393				-0.001986	-0.002431	-0.002469				-0.687691	0.969582	-42.125469
00309	12800612	-0.126887	-0.055732	9.750946				-0.004303	-0.000624	0.001021				-0.688918	0.969407	-42.125175
00310	12800662	-0.109356	-0.084981	9.734097				-0.008720	0.002074	0.000241				-0.689159	0.969681	-42.124276
00311	12800712	-0.134982	-0.069102	9.731099				-0.005566	0.001483	-0.002526				-0.690766	0.970097	-42.124995
00312	12800762	-0.150459	-0.087148	9.752033				-0.007406	0.004365	0.001278				-0.690626	0.971030	-42.123795
00313	12800812	-0.154150	-0.116801	9.766917				-0.005203	0.001301	-0.000314				-0.692118	0.971402	-42.123889
00314	12800862	-0.170062	-0.129530	9.829309				-0.001726	0.004108	0.001457				-0.690348	0.972262	-42.122641
00315	12800912	-0.190615	-0.130023	9.875429				-0.003272	0.001206	-0.000384				-0.691288	0.972606	-42.122756
00316	12800962	-0.202261	-0.132944	9.877885				0.000178	0.002526	-0.001666				-0.688988	0.973003	-42.122394
00317	12801012	-0.223024	-0.126883	9.878225				-0.003392	0.001180	0.002795				-0.689946	0.973351	-42.121593
00318	12801062	-0.230265	-0.114363	9.798691				-0.002229	-0.001557	-0.000460				-0.688331	0.972582	-42.120918
00319	12801112	-0.218279	-0.109562	9.803662				-0.001890	0.001806	-0.003173				-0.688888	0.973089	-42.121832
00320	12801162	-0.222838	-0.089979	9.776604				-0.002047	0.000972	0.001058				-0.687213	0.973050	-42.120676
00321	12801212	-0.211652	-0.101838	9.764810				-0.005277	-0.001384	0.000285				-0.688723	0.972655	-42.120587
00322	12801262	-0.204367	-0.086920	9.788494				-0.004308	0.000507	-0.000413				-0.687703	0.972478	-42.119873
00323	12801312	-0.210009	-0.060247	9.794263				-0.003140	0.001976	-0.002719				-0.688616	0.973035	-42.120657
00324	12801362	-0.186409	-0.074721	9.830338				-0.003215	-0.001607	0.000596				-0.687278	0.972256	-42.119638
00325	12801412	-0.153957	-0.107653	9.849831				-0.004458	-0.002692	0.002548				-0.688542	0.971494	-42.118894
00326	12801462	-0.136216	-0.144430	9.830585				-0.007842	-0.002369	0.000279				-0.688531	0.970495	-42.117977
00327	12801512	-0.140165	-0.120041	9.801118				-0.006508	-0.003023	0.000241				-0.690394	0.969630	-42.117902
00328	12801562	-0.128013	-0.134089	9.753613				-0.006229	-0.001985	-0.001552				-0.689929	0.968736	-42.117459
00329	12801612	-0.106557	-0.147290	9.734813				-0.003927	-0.001111	-0.003994				-0.691073	0.968404	-42.118591
00330	12801662	-0.137301	-0.125674	9.728008				-0.002079	-0.001592	-0.003292				-0.689428	0.967616	-42.118691
00331	12801712	-0.134395	-0.091040	9.716005				-0.002015	0.001040	0.003620				-0.689988	0.967926	-42.117656
00332	12801762	-0.143647	-0.107338	9.751999				-0.000049	0.000483	0.000242				-0.687745	0.967745	-42.116753
00333	12801812	-0.172034	-0.083945	9.790723				-0.003987	-0.000620	-0.001483				-0.688894	0.967562	-42.117180
00334	12801862	-0.138028	-0.104375	9.840162				-0.002497	-0.000206	-0.000622				-0.687356	0.967180	-42.116536
00335	12801912	-0.163242	-0.080536	9.840770				-0.001674	-0.001805	-0.000437				-0.687837	0.966661	-42.116650
00336	12801962	-0.154948	-0.099599	9.825392				-0.001520	0.000493	0.000501				-0.686014	0.966483	-42.115665
00337	12802012	-0.197749	-0.093759	9.821768				-0.003318	-0.002613	-0.001232				-0.686970	0.965730	-42.116004
00338	12802062	-0.223856	-0.090187	9.821183				-0.001408	0.002012	-0.001083				-0.685123	0.965981	-42.115512
00339	12802112	-0.241264	-0.092389	9.792511				-0.002658	-0.000043	0.000702				-0.685881	0.965971	-42.115307
00340	12802162	-0.229963	-0.113504	9.792463				-0.000593	0.000571	0.001217				-0.683789	0.965818	-42.114127
00341	12802212	-0.259398	-0.109322	9.793096				-0.006110	0.001837	0.000984				-0.685535	0.966347	-42.113846
00342	12802262	-0.239239	-0.116067	9.822704				-0.004893	-0.001511	-0.003243				-0.684695	0.965583	-42.113908
00343	12802312	-0.235798	-0.138164	9.843534				-0.002479	0.001410	-0.001727				-0.685414	0.965981	-42.114407
00344	12802362	-0.202058	-0.125034	9.850796				-0.003767	-0.002552	-0.000016				-0.684237	0.964930	-42.113574
00345	12802412	-0.184294	-0.118702	9.836090				-0.003877	0.000967	-0.001373				-0.685354	0.965202	-42.113966
00346	12802462	-0.158280	-0.117127	9.801208				-0.003458	-0.001389	-0.001777				-0.684097	0.964478	-42.113652
00347	12802512	-0.148778	-0.094844	9.789650				-0.006057	-0.002277	-0.002770				-0.685846	0.963816	-42.114430
00348	12802562	-0.145373	-0.073725	9.771654				-0.001336	0.000358	-0.003701				-0.683991	0.963586	-42.114645
00349	12802612	-0.133373	-0.071227	9.753137				-0.002910	-0.000307	0.000439				-0.684822	0.963500	-42.114523
00350	12802662	-0.111213	-0.092691	9.732658				-0.001959	-0.004037	0.001022				-0.683122	0.962027	-42.113328
00351	12802712	-0.131070	-0.089110	9.747384				-0.001547	0.003108	-0.000605				-0.683568	0.962915	-42.113513
00352	12802762	-0.118457	-0.130743	9.756200				-0.007065	0.003459	-0.001296				-0.683342	0.963581	-42.113041
00353	12802812	-0.118590	-0.135436	9.800296				-0.005785	0.000446	-0.000993				-0.685004	0.963705	-42.113320
00354	12802862	-0.137477	-0.145670	9.821959				-0.004892	0.000660	-0.000257				-0.684150	0.963573	-42.112525
00355	12802912	-0.148087	-0.146025	9.823452				-0.004349	-0.000434	-0.000679				-0.685399	0.963446	-42.112714
00356	12802962	-0.177405	-0.113860	9.832222				-0.006409	0.000722	-0.002880				-0.684993	0.963322	-42.112728
00357	12803012	-0.184764	-0.112896	9.814043				-0.004250	0.002707	-0.000111				-0.686211	0.964097	-42.112764
00358	12803062	-0.209191	-0.118656	9.765044				-0.005005	0.003175	-0.001457				-0.685397	0.964680	-42.112389
00359	12803112	-0.222245	-0.095697	9.769652				-0.006013	0.000603	-0.001497				-0.687127	0.964848	-42.112809
00360	12803162	-0.230192	-0.079761	9.784302				-0.004096	0.002065	-0.000623				-0.686048	0.965116	-42.112160
00361	12803212	-0.202240	-0.093993	9.799023				-0.008471	0.001270	-0.002644				-0.688488	0.965471	-42.112919
00362	12803262	-0.226132	-0.074401	9.848752				-0.007272	0.002135	-0.000845				-0.688320	0.965759	-42.112322
00363	12803312	-0.208051	-0.077344	9.838833				-0.005104	-0.002939	-0.003444				-0.689799	0.964905	-42.113301
00364	12803362	-0.213071	-0.100506	9.867147				-0.002848	0.001252	0.002796				-0.688345	0.964953	-42.111679
00365	12803412	-0.198822	-0.093889	9.849575				-0.001387	-0.004001	-0.001602				-0.688750	0.963801	-42.112133
00366	12803462	-0.180996	-0.121622	9.826968				-0.004384	-0.004603	-0.001696				-0.687758	0.962157	-42.111726
00367	12803512	-0.180162	-0.110256	9.813295				-0.005509	-0.001330	-0.002927				-0.689350	0.961766	-42.112558
00368	12803562	-0.173187	-0.120731	9.756705				-0.005401	-0.003713	0.000139				-0.688641	0.960383	-42.111634
00369	12803612	-0.166763	-0.108068	9.760994				-0.004022	-0.002018	-0.004186				-0.689813	0.959791	-42.112820
00370	12803662	-0.136926	-0.117806	9.740466				-0.002798	-0.002958	0.000390				-0.688357	0.958624	-42.111881
00371	12803712	-0.135813	-0.116915	9.775693				-0.002388	-0.000954	-0.003480				-0.689058	0.958339	-42.112868
00372	12803762	-0.103113	-0.119939	9.771689				-0.009341	-0.000882	-0.003593				-0.689495	0.957754	-42.113057
00373	12803812	-0.112507	-0.105818	9.792345				-0.007389	0.001549	-0.001565				-0.691619	0.958192	-42.113511
00374	12803862	-0.123572	-0.087461	9.814445				-0.003498	0.000161	-0.000168				-0.690367	0.957917	-42.112717
00375	12803912	-0.108478	-0.091586	9.804304				-0.002293	0.001874	0.001504				-0.691017	0.958459	-42.112295
00376	12803962	-0.177172	-0.069342	9.777568				-0.004794	0.001629	-0.001017				-0.690139	0.958602	-42.111752
00377	12804012	-0.174727	-0.089415	9.791214				-0.002519	0.004672	-0.001297				-0.690867	0.959935	-42.112140
00378	12804062	-0.188931	-0.104523	9.773322				-0.003537	0.002260	-0.002684				-0.689637	0.960253	-42.112046
00379	12804112	-0.195781	-0.109638	9.765442				-0.000911	0.005512	-0.002353				-0.689909	0.961824	-42.112737
00380	12804162	-0.204886	-0.124356	9.788266				-0.004365	0.001986	-0.004094				-0.688923	0.962058	-42.113023
00381	12804212	-0.214677	-0.126510	9.824741				-0.004528	0.003182	-0.003187				-0.690235	0.962959	-42.113943
00382	12804262	-0.251357	-0.111443	9.850801				-0.004513	0.001730	-0.002166				-0.689283	0.963126	-42.113741
00383	12804312	-0.232458	-0.106272	9.851183				-0.005870	0.002524	0.002138				-0.690954	0.963856	-42.113138
00384	12804362	-0.235110	-0.103636	9.861270				-0.004660	0.001307	-0.002264				-0.690044	0.963903	-42.112937
00385	12804412	-0.233052	-0.089994	9.856701				-0.005606	-0.002298	-0.003149				-0.691665	0.963234	-42.113826
00386	12804462	-0.210719	-0.091222	9.816563				-0.004107	0.002420	0.000139				-0.690585	0.963608	-42.112954
00387	12804512	-0.194228	-0.087773	9.778136				-0.003575	-0.001551	-0.000682				-0.691613	0.963161	-42.113146
00388	12804562	-0.188747	-0.077229	9.744075				-0.003090	-0.000834	-0.002222				-0.690253	0.962595	-42.112940
00389	12804612	-0.159501	-0.097006	9.759993				-0.003716	-0.001195	-0.001552				-0.691325	0.962247	-42.113379
00390	12804662	-0.146434	-0.077326	9.754403				-0.002801	0.000864	0.004230				-0.689851	0.962190	-42.111317
00391	12804712	-0.141842	-0.101498	9.806630				-0.000709	-0.000953	-0.001143				-0.690059	0.961913	-42.111642
00392	12804762	-0.143837	-0.094918	9.803768				-0.003953	-0.000554	0.000729				-0.688931	0.961437	-42.110557
00393	12804812	-0.119432	-0.116914	9.800529				-0.004661	-0.002764	-0.000023				-0.690266	0.960645	-42.110551
00394	12804862	-0.112152	-0.137454	9.801696				-0.005335	-0.001779	-0.002617				-0.689551	0.959807	-42.110466
00395	12804912	-0.131037	-0.124459	9.778543				-0.003163	0.002592	-0.002306				-0.690468	0.960541	-42.111127
00396	12804962	-0.113050	-0.151804	9.781334				-0.001917	0.001547	-0.001863				-0.688770	0.960658	-42.110811
00397	12805012	-0.145133	-0.121551	9.749609				0.000175	-0.000641	-0.000533				-0.688722	0.960472	-42.110962
00398	12805062	-0.155191	-0.098762	9.768840				-0.003480	0.004117	0.004028				-0.687445	0.961345	-42.108971
00399	12805112	-0.154294	-0.093283	9.783453				-0.003874	0.002904	-0.001718				-0.688563	0.962171	-42.109467
00400	12805162	-0.175678	-0.092843	9.802250				-0.000628	0.003745	0.000169				-0.686486	0.962924	-42.108570
00401	12805212	-0.203950	-0.081034	9.822999				-0.004144	0.001315	-0.002301				-0.687684	0.963293	-42.109234
00402	12805262	-0.212471	-0.080772	9.847732				-0.004639	0.001827	0.000046				-0.686757	0.963495	-42.108432
00403	12805312	-0.217686	-0.105642	9.854708				-0.004061	0.001605	-0.003167				-0.687936	0.963944	-42.109340
00404	12805362	-0.230049	-0.106632	9.845183				-0.005031	0.003343	-0.000201				-0.687122	0.964581	-42.108598
00405	12805412	-0.212689	-0.132240	9.832403				-0.002012	0.001578	-0.003780				-0.687717	0.965020	-42.109679
00406	12805462	-0.211860	-0.136570	9.817780				-0.004292	0.002162	0.000881				-0.686686	0.965322	-42.108610
00407	12805512	-0.223670	-0.115773	9.802497				-0.002952	0.001951	-0.002494				-0.687544	0.965873	-42.109326
00408	12805562	-0.207910	-0.123616	9.792356				-0.006373	-0.002150	-0.000230				-0.687115	0.964937	-42.108501
00409	12805612	-0.188749	-0.119679	9.794896				-0.010731	-0.000159	-0.001204				-0.690194	0.964887	-42.108843
00410	12805662	-0.180960	-0.109220	9.778076				-0.004382	0.000896	0.000452				-0.689192	0.964826	-42.107899
00411	12805712	-0.169686	-0.089151	9.794782				-0.001745	0.001491	-0.001638				-0.689700	0.965247	-42.108377
00412	12805762	-0.132896	-0.115318	9.824091				-0.005249	0.003148	0.002804				-0.688934	0.965839	-42.106750
00413	12805812	-0.104493	-0.091456	9.784870				-0.001918	-0.001331	-0.001559				-0.689491	0.965452	-42.107190
00414	12805862	-0.117678	-0.106378	9.783021				-0.003996	0.000249	-0.003471				-0.688397	0.965192	-42.107346
00415	12805912	-0.112869	-0.106804	9.755678				-0.000706	-0.002214	-0.000896				-0.688603	0.964554	-42.107588
00416	12805962	-0.109422	-0.098809	9.757823				-0.004211	-0.002951	-0.001179				-0.687559	0.963385	-42.107071
00417	12806012	-0.124722	-0.091390	9.741356				-0.003577	-0.000714	-0.003479				-0.688600	0.963169	-42.108071
00418	12806062	-0.160817	-0.113979	9.761437				-0.004432	0.001214	-0.000546				-0.687616	0.963195	-42.107350
00419	12806112	-0.167553	-0.124139	9.783277				-0.006451	0.003278	-0.002703				-0.689477	0.964124	-42.108128
00420	12806162	-0.172191	-0.126387	9.801996				-0.005851	0.004749	-0.000327				-0.688900	0.965163	-42.107411
00421	12806212	-0.166850	-0.135035	9.820191				-0.002509	0.002051	-0.003367				-0.689635	0.965739	-42.108382
00422	12806262	-0.181209	-0.133668	9.826013				-0.003763	0.003325	-0.002136				-0.688467	0.966364	-42.108145
00423	12806312	-0.204639	-0.101916	9.828279				-0.000944	0.000304	-0.002765				-0.688751	0.966442	-42.108931
00424	12806362	-0.205959	-0.105722	9.842419				-0.001674	0.003333	-0.001398				-0.686982	0.967071	-42.108519
00425	12806412	-0.200133	-0.098235	9.819148				-0.003047	0.000917	-0.002211				-0.687865	0.967326	-42.109156
00426	12806462	-0.206417	-0.085205	9.806710				0.000440	-0.000637	0.000498				-0.685481	0.966825	-42.108144
00427	12806512	-0.220132	-0.070875	9.786889				-0.001197	0.003339	-0.002041				-0.685834	0.967775	-42.108741
00428	12806562	-0.212942	-0.092672	9.815619				-0.003309	-0.001636	0.001562				-0.684519	0.966991	-42.107434
00429	12806612	-0.209110	-0.108025	9.802902				-0.002868	-0.003408	0.001618				-0.685333	0.966020	-42.106958
00430	12806662	-0.187651	-0.108163	9.823883				-0.007822	-0.001046	-0.002018				-0.685328	0.965394	-42.106709
00431	12806712	-0.160582	-0.131297	9.811773				-0.003152	0.000270	0.000092				-0.686230	0.965471	-42.106676
00432	12806762	-0.153941	-0.136525	9.823239				-0.000607	-0.001106	0.000813				-0.684145	0.964837	-42.105623
00433	12806812	-0.157622	-0.133430	9.795458				-0.005755	-0.002623	-0.001939				-0.685803	0.964079	-42.106164
00434	12806862	-0.136156	-0.118983	9.778806				-0.007701	-0.004147	-0.001974				-0.685764	0.962564	-42.105890
00435	12806912	-0.131074	-0.127986	9.775667				-0.002308	-0.004114	0.000798				-0.686421	0.961388	-42.105651
00436	12806962	-0.133892	-0.106325	9.751957				-0.003401	-0.000093	-0.001001				-0.685145	0.961038	-42.105096
00437	12807012	-0.112645	-0.121058	9.739383				-0.004179	-0.001922	-0.002004				-0.686351	0.960481	-42.105667
00438	12807062	-0.139606	-0.093352	9.763242				-0.004991	-0.000545	-0.003278				-0.685542	0.959993	-42.105724
00439	12807112	-0.133891	-0.099477	9.756986				-0.000903	0.003057	-0.001024				-0.685805	0.960865	-42.106022
00440	12807162	-0.146641	-0.098609	9.798746				-0.002269	0.000241	-0.005528				-0.684227	0.960594	-42.106788
00441	12807212	-0.157909	-0.080057	9.817727				-0.001711	0.005761	-0.000042				-0.684718	0.962244	-42.106824
00442	12807262	-0.187768	-0.106048	9.803029				-0.003006	-0.000378	-0.002345				-0.683336	0.961807	-42.106682
00443	12807312	-0.216515	-0.109603	9.822825				-0.002753	0.001894	-0.001054				-0.684130	0.962346	-42.106991
00444	12807362	-0.225133	-0.094917	9.812090				-0.005107	0.001235	-0.001111				-0.683343	0.962375	-42.106459
00445	12807412	-0.237784	-0.127783	9.798971				-0.003701	0.000556	0.000519				-0.684401	0.962536	-42.106310
00446	12807462	-0.238926	-0.113001	9.778850				-0.003958	-0.001752	-0.002284				-0.683290	0.961706	-42.106123
00447	12807512	-0.231274	-0.117539	9.811643				-0.006376	-0.001182	-0.003241				-0.685132	0.961357	-42.107043
00448	12807562	-0.211297	-0.122885	9.809144				-0.003242	0.004341	-0.000458				-0.683808	0.962279	-42.106329
00449	12807612	-0.210179	-0.123125	9.835738				-0.006476	-0.000920	-0.001444				-0.685670	0.962011	-42.106740
00450	12807662	-0.205930	-0.103429	9.843866				-0.006113	-0.000073	0.000712				-0.685163	0.961672	-42.105708
00451	12807712	-0.200994	-0.095982	9.826099				-0.003687	0.001134	-0.000189				-0.686220	0.961996	-42.105768
00452	12807762	-0.168881	-0.099773	9.823063				-0.003569	-0.001972	-0.002386				-0.684999	0.961104	-42.105603
00453	12807812	-0.158058	-0.088950	9.816299				-0.005333	-0.001314	0.004351				-0.686506	0.960742	-42.104356
00454	12807862	-0.152259	-0.076738	9.772883				-0.003052	0.000204	-0.000424				-0.685128	0.960479	-42.103664
00455	12807912	-0.141700	-0.117612	9.767331				-0.006016	-0.000499	-0.002540				-0.686864	0.960327	-42.104393
00456	12807962	-0.141885	-0.102219	9.734017				-0.007586	-0.001696	-0.004145				-0.686801	0.959508	-42.104720
00457	12808012	-0.135832	-0.111053	9.756271				0.000314	0.001701	0.006055				-0.686682	0.960016	-42.102996
00458	12808062	-0.140003	-0.122845	9.757258				-0.002322	0.003386	-0.001086				-0.685098	0.960662	-42.102497
00459	12808112	-0.131700	-0.112344	9.786209				-0.005719	0.002613	-0.000405				-0.686739	0.961409	-42.102622
00460	12808162	-0.139877	-0.119221	9.770201				-0.001720	0.003655	-0.001339				-0.684984	0.962132	-42.102174
00461	12808212	-0.150353	-0.121624	9.807878				-0.002112	0.002936	-0.000987				-0.685594	0.962970	-42.102467
00462	12808262	-0.129991	-0.134671	9.827431				-0.002803	0.001667	0.000512				-0.684139	0.963128	-42.101438
00463	12808312	-0.175462	-0.113251	9.816149				-0.003261	0.002587	-0.004002				-0.685093	0.963856	-42.102588
00464	12808362	-0.193973	-0.083971	9.808573				-0.003103	0.007056	-0.001217				-0.683733	0.965553	-42.102092
00465	12808412	-0.193480	-0.108705	9.798508				-0.002965	-0.000736	-0.003091				-0.684597	0.965331	-42.102973
00466	12808462	-0.210231	-0.097528	9.796202				-0.004221	-0.000165	0.001314				-0.683546	0.964968	-42.101741
00467	12808512	-0.218944	-0.104632	9.816856				-0.006589	0.003896	-0.000741				-0.685437	0.966082	-42.101963
00468	12808562	-0.213360	-0.096035	9.815859				-0.004900	-0.004387	-0.002524				-0.684597	0.964496	-42.101824
00469	12808612	-0.220830	-0.111568	9.852088				-0.003059	-0.002637	-0.000589				-0.685476	0.963739	-42.101986
00470	12808662	-0.218626	-0.112188	9.832905				-0.004563	0.000304	-0.002658				-0.684542	0.963497	-42.101884
00471	12808712	-0.209144	-0.132467	9.838131				-0.000049	0.000323	-0.001678				-0.684564	0.963584	-42.102372
00472	12808762	-0.191511	-0.123364	9.822944				-0.005772	-0.000776	0.001346				-0.683956	0.963047	-42.101149
00473	12808812	-0.173075	-0.139479	9.802003				-0.000127	0.000702	-0.003573				-0.684010	0.963236	-42.102175
00474	12808862	-0.168736	-0.118221	9.782328				0.002397	-0.008135	0.000128				-0.681067	0.960586	-42.101243
00475	12808912	-0.172897	-0.103468	9.764847				-0.004740	0.002120	0.000267				-0.682424	0.961194	-42.101170
00476	12808962	-0.165482	-0.104665	9.756427				-0.003076	0.002853	-0.002430				-0.681062	0.961684	-42.101030
00477	12809012	-0.136704	-0.075913	9.758194				-0.007238	0.000808	-0.000346				-0.683137	0.961914	-42.101136
00478	12809062	-0.131605	-0.091603	9.780695				-0.005382	-0.002199	-0.001008				-0.682429	0.960961	-42.100567
00479	12809112	-0.134310	-0.093357	9.788855				-0.002916	0.001949	-0.000831				-0.683269	0.961517	-42.100812
00480	12809162	-0.119762	-0.115193	9.784722				-0.005388	0.002137	-0.000282				-0.682559	0.961808	-42.100052
00481	12809212	-0.138639	-0.101157	9.798950				-0.002447	0.002249	-0.001956				-0.683269	0.962446	-42.100617
00482	12809262	-0.146688	-0.118965	9.820086				-0.005644	0.006729	0.002634				-0.682619	0.964063	-42.099062
00483	12809312	-0.156504	-0.111242	9.790418				-0.004390	0.001054	0.000356				-0.683875	0.964366	-42.098959
00484	12809362	-0.176173	-0.124190	9.783566				-0.004096	0.003774	-0.001846				-0.682803	0.965120	-42.098643
00485	12809412	-0.187279	-0.104190	9.780024				0.001859	0.003809	-0.003336				-0.682287	0.966200	-42.099610
00486	12809462	-0.200734	-0.098981	9.805246				-0.005916	-0.001428	-0.000099				-0.681728	0.965470	-42.098805
00487	12809512	-0.208379	-0.103134	9.806013				-0.003660	0.001936	-0.004382				-0.682797	0.966009	-42.100059
00488	12809562	-0.215294	-0.127606	9.820196				-0.003313	0.001331	-0.000697				-0.681496	0.966068	-42.099420
00489	12809612	-0.221961	-0.113610	9.827896				-0.003910	0.002837	-0.004376				-0.682638	0.966866	-42.100684
00490	12809662	-0.214177	-0.106557	9.842224				-0.003947	-0.002177	-0.005271				-0.681539	0.965905	-42.101334
00491	12809712	-0.206389	-0.109424	9.847227				-0.002643	0.001276	-0.003074				-0.682311	0.966260	-42.102212
00492	12809762	-0.208631	-0.113085	9.834292				-0.004891	0.000858	0.001101				-0.681453	0.966189	-42.101069
00493	12809812	-0.188302	-0.097739	9.826039				-0.004365	0.002415	0.000846				-0.682699	0.966884	-42.100830
00494	12809862	-0.188507	-0.103174	9.795366				-0.003581	-0.000118	0.002309				-0.681460	0.966538	-42.099310
00495	12809912	-0.176043	-0.113489	9.767746				-0.003594	-0.001331	-0.004019				-0.682509	0.966143	-42.100449
00496	12809962	-0.158167	-0.122399	9.788265				-0.004160	-0.002331	0.001586				-0.681438	0.965162	-42.099155
00497	12810012	-0.138323	-0.120534	9.786489				-0.007078	0.003748	-0.003217				-0.683481	0.966224	-42.100085
00498	12810062	-0.120818	-0.139229	9.794306				-0.008996	-0.002749	-0.002895				-0.683817	0.965108	-42.100014
00499	12810112	-0.136874	-0.130916	9.790553				-0.004744	-0.002216	-0.000272				-0.685178	0.964473	-42.100080
00500	12810162	-0.139106	-0.108412	9.781929				0.001059	-0.000072	0.001809				-0.682611	0.964139	-42.098723
00501	12810212	-0.132722	-0.106455	9.794122				-0.002328	-0.001328	0.002451				-0.683266	0.963767	-42.098014
00502	12810262	-0.135924	-0.098780	9.781199				-0.002737	0.002541	0.000101				-0.681796	0.964175	-42.097123
00503	12810312	-0.141214	-0.092300	9.773318				-0.005495	0.004259	-0.004405				-0.683392	0.965380	-42.098402
00504	12810362	-0.168189	-0.094360	9.788309				-0.006552	0.003734	0.001404				-0.683008	0.966134	-42.097175
00505	12810412	-0.176087	-0.083888	9.777084				-0.001176	0.002725	-0.001407				-0.683352	0.966910	-42.097592
00506	12810462	-0.179868	-0.087628	9.783818				0.000247	0.003173	-0.001471				-0.681036	0.967493	-42.097181
00507	12810512	-0.182876	-0.102065	9.803247				-0.004426	0.002121	-0.000665				-0.682307	0.968099	-42.097376
00508	12810562	-0.217369	-0.090673	9.833123				-0.005133	0.004272	-0.000710				-0.681528	0.969000	-42.096758
00509	12810612	-0.214421	-0.105602	9.822102				-0.005893	0.004840	-0.003172				-0.683231	0.970376	-42.097682
00510	12810662	-0.231763	-0.108698	9.831534				-0.001767	0.000003	-0.000129				-0.681483	0.970056	-42.096844
00511	12810712	-0.231188	-0.115540	9.823625				-0.004864	0.002758	-0.001810				-0.682885	0.970840	-42.097366
00512	12810762	-0.240283	-0.074872	9.804248				-0.007134	-0.001415	-0.000926				-0.682679	0.970112	-42.096789
00513	12810812	-0.203145	-0.129864	9.800721				-0.007883	-0.001077	-0.000958				-0.684942	0.969800	-42.097054
00514	12810862	-0.216300	-0.097845	9.810845				-0.004033	-0.000329	-0.001155				-0.683849	0.969383	-42.096541
00515	12810912	-0.208329	-0.088080	9.790188				-0.000592	-0.002755	-0.000407				-0.684020	0.968593	-42.096648
00516	12810962	-0.194182	-0.102010	9.788445				-0.005653	-0.000616	-0.001089				-0.683391	0.968093	-42.096137
00517	12811012	-0.171971	-0.092018	9.799835				-0.001860	0.000706	-0.002666				-0.683937	0.968286	-42.096905
00518	12811062	-0.150929	-0.097019	9.799492				-0.002246	-0.000905	0.002458				-0.682314	0.967717	-42.095344
00519	12811112	-0.131298	-0.109415	9.814012				-0.005227	-0.003000	0.001200				-0.683806	0.966861	-42.094988
00520	12811162	-0.133845	-0.104656	9.778318				-0.006037	0.000085	-0.001957				-0.683291	0.966560	-42.094694
00521	12811212	-0.137725	-0.109624	9.778810				-0.002888	-0.003222	0.000007				-0.684118	0.965637	-42.094681
00522	12811262	-0.115588	-0.120639	9.785415				-0.003809	0.000840	0.001091				-0.682949	0.965562	-42.093500
00523	12811312	-0.137459	-0.117665	9.758445				-0.005753	0.001451	0.000098				-0.684597	0.965978	-42.093479
00524	12811362	-0.157401	-0.119875	9.778201				-0.004066	-0.001232	0.000630				-0.683505	0.965307	-42.092444
00525	12811412	-0.153995	-0.115647	9.772905				-0.002121	0.002196	-0.000509				-0.684115	0.965935	-42.092595
00526	12811462	-0.172013	-0.112231	9.799124				-0.002910	0.001199	-0.005805				-0.682723	0.965939	-42.093422
00527	12811512	-0.161629	-0.113781	9.815368				-0.001250	0.001816	-0.002024				-0.683091	0.966452	-42.094004
00528	12811562	-0.192475	-0.096401	9.798018				-0.005767	0.003397	0.002781				-0.682475	0.967115	-42.092368
00529	12811612	-0.203612	-0.110117	9.817493				-0.003748	0.002234	0.001648				-0.683541	0.967761	-42.091899
00530	12811662	-0.218529	-0.097458	9.842724				-0.004219	0.004674	-0.003146				-0.682511	0.968769	-42.091969
00531	12811712	-0.220103	-0.086242	9.825239				-0.004271	0.000887	-0.005285				-0.683760	0.969005	-42.093478
00532	12811762	-0.215598	-0.082447	9.817303				-0.003172	0.001012	0.000388				-0.682413	0.968977	-42.092521
00533	12811812	-0.218459	-0.095778	9.812294				-0.004558	0.000886	-0.003455				-0.683735	0.969219	-42.093515
00534	12811862	-0.198558	-0.115888	9.800214				-0.003180	-0.000665	0.002753				-0.682379	0.968719	-42.091878
00535	12811912	-0.214982	-0.099475	9.808201				-0.004876	-0.002565	0.004225				-0.683755	0.967999	-42.090645
00536	12811962	-0.205751	-0.107816	9.821333				-0.002116	0.000198	0.002689				-0.682094	0.967746	-42.089018
00537	12812012	-0.212962	-0.093226	9.794766				-0.001832	0.001268	0.001155				-0.682613	0.968113	-42.088698
00538	12812062	-0.158939	-0.123066	9.801215				-0.003026	-0.002835	0.000231				-0.681224	0.966983	-42.087787
00539	12812112	-0.143270	-0.115765	9.799691				-0.006016	-0.003469	-0.000565				-0.682950	0.965988	-42.087927
00540	12812162	-0.143682	-0.108422	9.799693				-0.003767	-0.000549	-0.000652				-0.681779	0.965509	-42.087260
00541	12812212	-0.127208	-0.117476	9.764626				-0.006904	0.002500	0.000753				-0.683753	0.966228	-42.087048
00542	12812262	-0.142860	-0.088177	9.774760				-0.006983	0.000815	0.000198				-0.683498	0.966143	-42.086163
00543	12812312	-0.116128	-0.103330	9.761200				-0.000637	-0.002466	-0.001123				-0.683686	0.965433	-42.086468
00544	12812362	-0.136796	-0.107519	9.773781				-0.007094	-0.001737	0.000761				-0.683460	0.964619	-42.085423
00545	12812412	-0.140536	-0.093334	9.794161				-0.004309	0.002478	0.000232				-0.684693	0.965329	-42.085367
00546	12812462	-0.155377	-0.093351	9.801427				-0.002394	0.002905	0.001258				-0.683118	0.965847	-42.084147
00547	12812512	-0.173463	-0.095623	9.794085				-0.002612	0.003573	0.000430				-0.683865	0.966872	-42.084034
00548	12812562	-0.172722	-0.104135	9.821172				-0.006966	0.001397	0.000588				-0.683603	0.966954	-42.082978
00549	12812612	-0.197649	-0.104752	9.816505				-0.002412	0.001417	-0.000252				-0.684296	0.967360	-42.083057
00550	12812662	-0.190109	-0.120444	9.825092				-0.002512	0.000411	0.001696				-0.682753	0.967164	-42.081707
00551	12812712	-0.204324	-0.118818	9.797853				-0.004119	0.001347	-0.001824				-0.683941	0.967543	-42.082232
00552	12812762	-0.235074	-0.108940	9.821002				-0.004289	0.001766	-0.002104				-0.682927	0.967723	-42.082002
00553	12812812	-0.237641	-0.097460	9.797055				-0.005641	0.000098	-0.000667				-0.684546	0.967748	-42.082188
00554	12812862	-0.212487	-0.114788	9.816100				-0.006197	-0.000782	-0.000130				-0.684068	0.967205	-42.081372
00555	12812912	-0.194912	-0.127084	9.817696				-0.003321	-0.001808	-0.002386				-0.685031	0.966679	-42.082049
00556	12812962	-0.178037	-0.104188	9.839888				-0.003802	-0.000390	-0.000515				-0.683868	0.966247	-42.081370
00557	12813012	-0.198503	-0.091123	9.823215				-0.003867	-0.002325	0.000662				-0.684972	0.965583	-42.081171
00558	12813062	-0.198113	-0.089178	9.829441				-0.005310	-0.002612	-0.001164				-0.684245	0.964513	-42.080618
00559	12813112	-0.166077	-0.110757	9.802439				-0.001420	0.000437	0.002747				-0.684638	0.964647	-42.079833
00560	12813162	-0.162641	-0.107633	9.784214				-0.002857	-0.000054	-0.001229				-0.683209	0.964309	-42.079346
00561	12813212	-0.147821	-0.113695	9.793726				0.000206	-0.000445	0.001168				-0.683144	0.964186	-42.079010
00562	12813262	-0.138172	-0.114327	9.778572				0.000406	-0.003198	-0.002858				-0.680786	0.962942	-42.078902
00563	12813312	-0.139496	-0.116802	9.778589				-0.004715	0.003018	-0.001689				-0.682146	0.963801	-42.079389
00564	12813362	-0.146551	-0.111622	9.759450				-0.005852	0.001778	0.002224				-0.681557	0.963999	-42.077920
00565	12813412	-0.134530	-0.119573	9.749078				-0.003707	0.003718	0.000688				-0.682616	0.965066	-42.077732
00566	12813462	-0.140119	-0.114579	9.775712				-0.003291	-0.001515	-0.000467				-0.681307	0.964312	-42.076991
00567	12813512	-0.146123	-0.114292	9.813614				-0.003168	0.001656	-0.003046				-0.682229	0.964776	-42.077856
00568	12813562	-0.132214	-0.113703	9.804913				-0.002367	-0.000636	-0.005212				-0.680679	0.964256	-42.078549
00569	12813612	-0.151329	-0.109736	9.791346				-0.003041	0.001990	-0.000543				-0.681553	0.964825	-42.078708
00570	12813662	-0.162860	-0.106125	9.805542				-0.003785	0.003430	0.002580				-0.680372	0.965496	-42.077151
00571	12813712	-0.190460	-0.106389	9.799938				-0.005312	0.002718	-0.001329				-0.681901	0.966270	-42.077543
00572	12813762	-0.191733	-0.120499	9.811689				-0.002504	0.001957	-0.002852				-0.680378	0.966501	-42.077552
00573	12813812	-0.220387	-0.108890	9.801999				-0.005141	0.000265	-0.000921				-0.681855	0.966574	-42.077814
00574	12813862	-0.215984	-0.100391	9.811321				-0.002950	-0.001350	-0.003409				-0.680463	0.965856	-42.077934
00575	12813912	-0.211574	-0.118228	9.815379				-0.004247	0.001446	-0.001403				-0.681686	0.966266	-42.078338
00576	12813962	-0.214388	-0.118136	9.820423				-0.003237	0.000782	-0.002273				-0.680372	0.966162	-42.078179
00577	12814012	-0.213438	-0.108050	9.826890				-0.004523	0.000317	0.002503				-0.681656	0.966262	-42.077470
00578	12814062	-0.197816	-0.113376	9.824172				-0.002361	-0.001431	-0.000588				-0.680082	0.965531	-42.076772
00579	12814112	-0.188550	-0.124749	9.820540				-0.007170	-0.001652	-0.003625				-0.682153	0.965046	-42.077801
00580	12814162	-0.176200	-0.093717	9.828856				-0.002690	-0.000239	-0.000651				-0.680673	0.964656	-42.077178
00581	12814212	-0.163048	-0.118177	9.770071				-0.003948	-0.003204	-0.001273				-0.681810	0.963734	-42.077524
00582	12814262	-0.141804	-0.095607	9.775000				-0.002429	-0.001567	-0.002202				-0.680263	0.962959	-42.077316
00583	12814312	-0.155923	-0.108052	9.768606				-0.004422	0.000829	-0.000834				-0.681533	0.963194	-42.077553
00584	12814362	-0.139407	-0.100683	9.778814				-0.005035	0.001749	-0.003967				-0.680742	0.963362	-42.077874
00585	12814412	-0.142077	-0.119717	9.785310				-0.001679	0.001295	-0.000325				-0.681225	0.963732	-42.077967
00586	12814462	-0.141752	-0.103674	9.784115				-0.006996	0.000432	0.002313				-0.680965	0.963545	-42.076441
00587	12814512	-0.153553	-0.117834	9.789202				-0.003982	0.001358	0.001572				-0.682098	0.963940	-42.075991
00588	12814562	-0.163823	-0.111082	9.791891				-0.005710	-0.000271	-0.005101				-0.681505	0.963525	-42.076624
00589	12814612	-0.170100	-0.103913	9.777297				-0.007224	0.002424	-0.002103				-0.683585	0.964212	-42.077232
00590	12814662	-0.169543	-0.125227	9.778498				-0.003254	0.001203	-0.002470				-0.682276	0.964230	-42.077094
00591	12814712	-0.176043	-0.110578	9.797459				-0.001661	0.000548	-0.002607				-0.682764	0.964378	-42.077838
00592	12814762	-0.180547	-0.119053	9.785745				-0.005580	-0.002235	-0.003058				-0.682124	0.963408	-42.077864
00593	12814812	-0.198393	-0.095893	9.794215				-0.003087	0.003275	-0.001912				-0.683018	0.964340	-42.078418
00594	12814862	-0.218022	-0.088712	9.819484				-0.003234	-0.003523	-0.003678				-0.681708	0.962999	-42.078586
00595	12814912	-0.219358	-0.086849	9.817327				-0.003622	-0.000030	-0.000191				-0.682746	0.962990	-42.078640
00596	12814962	-0.211956	-0.100612	9.818970				-0.000873	-0.000589	0.001755				-0.680734	0.962509	-42.077318
00597	12815012	-0.202488	-0.097657	9.819877				-0.006794	-0.001421	-0.006223				-0.682711	0.962081	-42.079097
00598	12815062	-0.194970	-0.111317	9.814818				-0.001264	0.001205	-0.002248				-0.680830	0.962099	-42.078902
00599	12815112	-0.190211	-0.116473	9.830848				-0.000251	-0.000124	0.002044				-0.680892	0.962071	-42.078313
00600	12815162	-0.157386	-0.117805	9.803598				-0.002544	-0.000048	-0.002864				-0.679380	0.961729	-42.078302
00601	12815212	-0.166430	-0.130895	9.794064				-0.004861	-0.002602	-0.000143				-0.680773	0.960983	-42.078331
00602	12815262	-0.179827	-0.102152	9.791723				-0.005157	-0.003491	-0.004157				-0.680016	0.959651	-42.078641
00603	12815312	-0.158998	-0.107374	9.774850				-0.001340	-0.000343	-0.000494				-0.680403	0.959551	-42.078787
00604	12815362	-0.138052	-0.117398	9.781454				-0.007530	0.002201	0.001589				-0.680299	0.959869	-42.077462
00605	12815412	-0.135531	-0.108342	9.787432				-0.005141	0.000265	-0.001030				-0.681776	0.959941	-42.077751
00606	12815462	-0.148201	-0.102635	9.778864				-0.001845	0.001617	0.000284				-0.680051	0.960087	-42.076836
00607	12815512	-0.138217	-0.116808	9.796791				-0.003844	0.002939	-0.000570				-0.681155	0.960927	-42.077003
00608	12815562	-0.153840	-0.088453	9.778168				-0.001036	0.002509	0.002313				-0.679188	0.961335	-42.075487
00609	12815612	-0.145962	-0.110631	9.773583				-0.003552	0.002787	-0.000279				-0.680207	0.962132	-42.075577
00610	12815662	-0.161714	-0.106985	9.811042				-0.000120	0.002415	-0.004011				-0.678008	0.962491	-42.075892
00611	12815712	-0.171430	-0.097734	9.792644				-0.004915	0.000264	-0.002339				-0.679427	0.962559	-42.076558
00612	12815762	-0.182584	-0.097786	9.783830				-0.007928	0.002511	-0.000905				-0.679450	0.962956	-42.075993
00613	12815812	-0.184085	-0.105589	9.797978				-0.006567	0.005825	-0.004005				-0.681351	0.964611	-42.077157
00614	12815862	-0.180378	-0.126753	9.825763				-0.002154	0.003231	-0.000215				-0.679716	0.965217	-42.076394
00615	12815912	-0.206782	-0.095184	9.811754				-0.005939	0.000317	-0.001115				-0.681422	0.965304	-42.076705
00616	12815962	-0.212536	-0.093855	9.835269				-0.002921	0.003147	-0.002614				-0.680018	0.965878	-42.076620
00617	12816012	-0.197837	-0.115185	9.828730				-0.004496	0.000082	-0.001445				-0.681313	0.965896	-42.077034
00618	12816062	-0.213516	-0.100987	9.834316				-0.003333	-0.001457	-0.005559				-0.680042	0.965141	-42.077824
00619	12816112	-0.225768	-0.085371	9.825273				-0.004089	-0.000524	-0.001858				-0.681223	0.964985	-42.078354
00620	12816162	-0.204238	-0.109806	9.812220				-0.003533	-0.000097	-0.003048				-0.679996	0.964628	-42.078393
00621	12816212	-0.190643	-0.100575	9.799216				-0.000940	0.000206	-0.001229				-0.680272	0.964683	-42.078747
00622	12816262	-0.176002	-0.134367	9.799383				-0.005277	-0.000417	-0.000643				-0.679534	0.964243	-42.078110
00623	12816312	-0.175291	-0.093127	9.797210				-0.005031	-0.000088	-0.000738				-0.680978	0.964216	-42.078318
00624	12816362	-0.165796	-0.105165	9.788784				-0.003304	-0.001027	-0.000942				-0.679676	0.963600	-42.077754
00625	12816412	-0.146095	-0.110553	9.799706				-0.005461	0.001258	-0.001857				-0.681249	0.963954	-42.078287
00626	12816462	-0.152997	-0.105058	9.797340				-0.000153	-0.000488	-0.002616				-0.679053	0.963487	-42.078206
00627	12816512	-0.141531	-0.104899	9.787217				-0.005129	-0.000158	-0.002187				-0.680533	0.963434	-42.078827
00628	12816562	-0.137547	-0.125900	9.792953				-0.000247	0.000378	-0.003700				-0.678368	0.963212	-42.079029
00629	12816612	-0.129456	-0.125074	9.769428				-0.004759	-0.000864	-0.001935				-0.679740	0.962958	-42.079578
00630	12816662	-0.155766	-0.102386	9.764288				-0.008052	0.003250	-0.001385				-0.679801	0.963565	-42.079167
00631	12816712	-0.175270	-0.106456	9.773252				-0.003432	-0.000030	-0.000744				-0.680788	0.963554	-42.079385
00632	12816762	-0.157899	-0.112568	9.780112				-0.006659	0.003894	0.000953				-0.680438	0.964354	-42.078284
00633	12816812	-0.187425	-0.086564	9.810452				-0.002401	0.000565	-0.003627				-0.681144	0.964503	-42.079331
00634	12816862	-0.185597	-0.099486	9.807807				-0.001869	0.002163	-0.001341				-0.679433	0.964799	-42.078892
00635	12816912	-0.177000	-0.112473	9.825024				-0.003537	0.003164	-0.004511				-0.680468	0.965690	-42.080191
00636	12816962	-0.202820	-0.097818	9.810056				-0.001887	0.006042	-0.001995				-0.678766	0.967096	-42.079956
00637	12817012	-0.223040	-0.101683	9.824538				-0.003606	0.002686	0.000241				-0.679798	0.967866	-42.079896
00638	12817062	-0.203150	-0.111998	9.844097				0.000863	-0.001214	-0.001849				-0.677307	0.967193	-42.079600
00639	12817112	-0.208590	-0.096963	9.833807				-0.004350	0.000992	0.000583				-0.678550	0.967479	-42.079427
00640	12817162	-0.202887	-0.101620	9.807173				-0.004546	0.001793	-0.000405				-0.677601	0.967674	-42.078701
00641	12817212	-0.219059	-0.109882	9.790245				-0.003822	-0.002915	-0.001170				-0.678702	0.966835	-42.079019
00642	12817262	-0.184339	-0.104703	9.819068				-0.006161	-0.000982	-0.001957				-0.678223	0.966229	-42.078741
00643	12817312	-0.176258	-0.089905	9.806805				-0.005237	-0.000805	-0.001927				-0.679732	0.965992	-42.079286
00644	12817362	-0.176977	-0.110747	9.804895				-0.004049	-0.000846	-0.001642				-0.678648	0.965425	-42.078958
00645	12817412	-0.155658	-0.100443	9.784653				-0.002582	0.000606	0.000447				-0.679385	0.965600	-42.078831
00646	12817462	-0.137857	-0.117987	9.778099				-0.005139	-0.003038	-0.002679				-0.678617	0.964403	-42.078742
00647	12817512	-0.142185	-0.107089	9.775486				-0.005452	0.003170	-0.001234				-0.680185	0.965307	-42.079104
00648	12817562	-0.151038	-0.100212	9.786543				-0.001743	-0.003550	0.003368				-0.678415	0.963983	-42.077319
00649	12817612	-0.133428	-0.102086	9.765853				-0.006065	0.003924	-0.005178				-0.680177	0.965089	-42.078814
00650	12817662	-0.140996	-0.099596	9.767565				-0.006460	0.002403	-0.001878				-0.679784	0.965452	-42.078538
00651	12817712	-0.134353	-0.109341	9.760825				-0.005429	0.000092	-0.003112				-0.681355	0.965468	-42.079436
00652	12817762	-0.157192	-0.108557	9.785382				-0.003859	0.000221	-0.001770				-0.680217	0.965207	-42.079134
00653	12817812	-0.169933	-0.102906	9.795276				-0.002663	-0.000919	0.001305				-0.680973	0.964948	-42.078757
00654	12817862	-0.155199	-0.118214	9.796161				-0.004961	0.001756	-0.000568				-0.680144	0.965130	-42.078059
00655	12817912	-0.170095	-0.116579	9.805341				-0.002743	-0.000203	0.003040				-0.680915	0.965083	-42.077183
00656	12817962	-0.185148	-0.112702	9.813807				-0.003719	-0.000261	-0.002282				-0.679739	0.964681	-42.077005
00657	12818012	-0.206956	-0.108972	9.823026				-0.001797	0.001100	-0.001252				-0.680260	0.964992	-42.077364
00658	12818062	-0.198529	-0.097871	9.812912				-0.003678	0.001980	0.001580				-0.679053	0.965247	-42.076087
00659	12818112	-0.206396	-0.105649	9.801687				-0.004105	-0.000005	-0.000417				-0.680231	0.965244	-42.076201
00660	12818162	-0.210658	-0.089319	9.805782				-0.002541	0.000080	-0.002345				-0.678716	0.964940	-42.076019
00661	12818212	-0.208954	-0.097058	9.803376				-0.008658	0.002073	-0.003086				-0.681212	0.965524	-42.076906
00662	12818262	-0.210255	-0.093988	9.810814				-0.004296	-0.004212	-0.000760				-0.680193	0.963996	-42.076280
00663	12818312	-0.189220	-0.094083	9.820774				-0.005525	-0.002452	0.002103				-0.681765	0.963301	-42.075663
00664	12818362	-0.189118	-0.109812	9.808308				-0.004181	-0.004117	-0.003229				-0.680725	0.961793	-42.075746
00665	12818412	-0.174606	-0.092425	9.804405				-0.002293	0.000212	-0.002475				-0.681394	0.961845	-42.076450
00666	12818462	-0.166249	-0.110981	9.799331				-0.002241	-0.002301	0.000268				-0.679781	0.960869	-42.075531
00667	12818512	-0.160599	-0.125927	9.783487				-0.005740	0.001833	-0.003328				-0.681441	0.961383	-42.076487
00668	12818562	-0.145653	-0.117551	9.780294				-0.002909	0.001467	-0.002534				-0.680034	0.961477	-42.076365
00669	12818612	-0.125467	-0.110052	9.749750				-0.005422	-0.001034	-0.001101				-0.681592	0.961177	-42.076674
00670	12818662	-0.123801	-0.109910	9.766517				0.001039	0.003079	-0.005876				-0.679070	0.961720	-42.077577
00671	12818712	-0.138741	-0.099254	9.789843				-0.007042	0.000454	-0.002848				-0.681101	0.961840	-42.078389
00672	12818762	-0.133208	-0.106664	9.792210				-0.003008	0.001527	-0.003176				-0.679726	0.961948	-42.078469
00673	12818812	-0.164845	-0.097925	9.785660				-0.002568	-0.001311	-0.002963				-0.680476	0.961563	-42.079312
00674	12818862	-0.146868	-0.121941	9.788207				-0.002316	0.002220	-0.002022				-0.678896	0.961873	-42.079071
00675	12818912	-0.164218	-0.097940	9.800033				-0.002189	0.005589	0.001174				-0.679518	0.963478	-42.078753
00676	12818962	-0.174607	-0.115058	9.808001				-0.003744	-0.001296	-0.001425				-0.678344	0.962783	-42.078321
00677	12819012	-0.192921	-0.097058	9.802332				0.001635	0.001741	-0.001805				-0.677885	0.963276	-42.078837
00678	12819062	-0.198616	-0.109459	9.806681				-0.007232	0.004654	-0.003337				-0.677720	0.964279	-42.078984
00679	12819112	-0.200722	-0.102548	9.806213				-0.005780	-0.000043	-0.005162				-0.679401	0.964249	-42.080454
00680	12819162	-0.218278	-0.089273	9.811814				-0.001889	0.000066	0.001091				-0.677685	0.963953	-42.079316
00681	12819212	-0.200848	-0.114019	9.815559				-0.000207	0.000183	-0.003698				-0.677762	0.963993	-42.080372
00682	12819262	-0.189004	-0.112902	9.811662				-0.003393	-0.000117	-0.000324				-0.676482	0.963640	-42.079592
00683	12819312	-0.206593	-0.089508	9.814386				-0.006803	0.000072	-0.003199				-0.678447	0.963650	-42.080501
00684	12819362	-0.169139	-0.121340	9.818037				0.002725	0.000792	-0.001238				-0.675419	0.963555	-42.080031
00685	12819412	-0.194393	-0.113660	9.811449				-0.002379	-0.001719	0.001685				-0.676092	0.963068	-42.079542
00686	12819462	-0.169264	-0.100523	9.796942				-0.002342	-0.001407	-0.003739				-0.674528	0.962334	-42.079748
00687	12819512	-0.165971	-0.110502	9.798369				-0.002377	-0.003078	0.000072				-0.675209	0.961453	-42.079712
00688	12819562	-0.151154	-0.102526	9.788470				-0.001986	0.000773	-0.001290				-0.673531	0.961352	-42.079241
00689	12819612	-0.144334	-0.107014	9.786761				-0.005388	0.001100	-0.001084				-0.675080	0.961663	-42.079554
00690	12819662	-0.142743	-0.127872	9.753442				-0.004631	0.002043	-0.005126				-0.674180	0.961913	-42.080206
00691	12819712	-0.143261	-0.112385	9.783154				-0.004689	-0.001089	-0.002284				-0.675534	0.961593	-42.080855
00692	12819762	-0.146355	-0.114112	9.769755				-0.003466	0.003304	0.000621				-0.674272	0.962223	-42.079877
00693	12819812	-0.144886	-0.119818	9.776216				-0.002413	0.002351	0.001410				-0.674956	0.962901	-42.079481
00694	12819862	-0.145067	-0.111457	9.769032				-0.003428	-0.000192	-0.001927				-0.673695	0.962521	-42.079183
00695	12819912	-0.161059	-0.102893	9.782286				-0.004885	-0.000643	-0.001600				-0.675102	0.962332	-42.079637
00696	12819962	-0.175291	-0.110252	9.787635				-0.004937	-0.000027	-0.002144				-0.674274	0.961998	-42.079439
00697	12820012	-0.181785	-0.111947	9.798455				-0.004971	0.002207	-0.000938				-0.675703	0.962627	-42.079718
00698	12820062	-0.172085	-0.118292	9.789535				-0.002610	-0.001300	0.003396				-0.674182	0.961947	-42.077870
00699	12820112	-0.181966	-0.101611	9.809956				-0.002442	0.003385	-0.000329				-0.674883	0.962916	-42.077973
00700	12820162	-0.210734	-0.092930	9.818246				-0.005357	0.001262	-0.000814				-0.674170	0.962955	-42.077377
00701	12820212	-0.212247	-0.102571	9.815136				-0.003871	0.002673	-0.003729				-0.675297	0.963709	-42.078450
00702	12820262	-0.211806	-0.095261	9.817770				-0.003455	-0.001223	-0.000384				-0.674036	0.963038	-42.077711
00703	12820312	-0.211283	-0.107102	9.820172				-0.002439	0.001285	-0.000312				-0.674737	0.963405	-42.077807
00704	12820362	-0.202161	-0.118310	9.829231				-0.002750	0.002857	-0.002544				-0.673285	0.963897	-42.077708
00705	12820412	-0.179889	-0.117378	9.812095				-0.004531	0.001665	0.000786				-0.674579	0.964377	-42.077477
00706	12820462	-0.180782	-0.137473	9.811390				-0.003898	0.001744	-0.000080				-0.673444	0.964558	-42.076688
00707	12820512	-0.176782	-0.114904	9.799857				-0.000925	0.001725	-0.002241				-0.673720	0.965045	-42.077336
00708	12820562	-0.172462	-0.116253	9.778511				-0.004611	-0.002544	-0.003599				-0.672806	0.963986	-42.077511
00709	12820612	-0.168629	-0.114144	9.778976				-0.005969	-0.003312	-0.004271				-0.674537	0.963023	-42.078730
00710	12820662	-0.153619	-0.094422	9.775055				-0.006880	-0.004781	-0.003316				-0.674271	0.961324	-42.078815
00711	12820712	-0.160587	-0.095393	9.776047				-0.003341	-0.001738	0.000699				-0.675225	0.960829	-42.078615
00712	12820762	-0.152332	-0.087326	9.793261				-0.005027	0.001846	-0.003126				-0.674427	0.961029	-42.078660
00713	12820812	-0.138837	-0.096522	9.790082				-0.003746	0.003069	-0.000811				-0.675505	0.961905	-42.078896
00714	12820862	-0.135737	-0.092167	9.790304				-0.002018	-0.001305	-0.003635				-0.673848	0.961200	-42.079130
00715	12820912	-0.155552	-0.082663	9.778662				-0.005294	0.000128	-0.000858				-0.675369	0.961234	-42.079371
00716	12820962	-0.146771	-0.108507	9.794919				-0.001527	0.000516	-0.002854				-0.673568	0.961054	-42.079357
00717	12821012	-0.168302	-0.114943	9.793353				-0.004267	-0.000954	-0.003076				-0.674805	0.960770	-42.080242
00718	12821062	-0.146437	-0.120247	9.793960				-0.006786	0.002920	-0.000136				-0.674498	0.961287	-42.079412
00719	12821112	-0.180616	-0.095053	9.812103				-0.002677	0.000367	-0.001729				-0.675273	0.961386	-42.079905
00720	12821162	-0.186410	-0.110297	9.828432				-0.004755	-0.001735	-0.001089				-0.674388	0.960567	-42.079372
00721	12821212	-0.205921	-0.103800	9.809354				-0.002398	-0.000878	0.002024				-0.675066	0.960322	-42.078785
00722	12821262	-0.192392	-0.104613	9.810962				-0.003126	0.001761	0.001074				-0.673704	0.960511	-42.077626
00723	12821312	-0.204255	-0.105626	9.846247				-0.004523	0.000506	0.002484				-0.674988	0.960665	-42.076906
00724	12821362	-0.192794	-0.113537	9.822235				-0.001290	-0.000799	-0.000515				-0.673107	0.960115	-42.076227
00725	12821412	-0.211587	-0.073834	9.817283				-0.001734	-0.002108	-0.003694				-0.673622	0.959499	-42.077280
00726	12821462	-0.188673	-0.121639	9.821254				-0.004167	-0.000012	-0.001212				-0.672569	0.959174	-42.076744
00727	12821512	-0.181940	-0.095544	9.797972				-0.003871	0.000771	-0.001816				-0.673686	0.959389	-42.077264
00728	12821562	-0.180034	-0.101764	9.803710				-0.004359	0.001084	-0.000788				-0.672686	0.959378	-42.076682
00729	12821612	-0.168638	-0.108402	9.784722				-0.000019	0.000613	-0.000673				-0.672695	0.959552	-42.076873
00730	12821662	-0.151757	-0.126095	9.799735				-0.005168	-0.001840	-0.001094				-0.671928	0.958703	-42.076285
00731	12821712	-0.144250	-0.115029	9.782681				-0.005616	0.000224	-0.001692				-0.673544	0.958762	-42.076761
00732	12821762	-0.163274	-0.118373	9.790447				-0.000067	-0.000066	-0.001705				-0.671320	0.958419	-42.076417
00733	12821812	-0.149584	-0.114045	9.780310				-0.002862	-0.003805	0.000335				-0.672138	0.957330	-42.076307
00734	12821862	-0.145811	-0.105375	9.784363				0.001814	0.000352	-0.001165				-0.669372	0.957109	-42.075756
00735	12821912	-0.157264	-0.099548	9.785142				-0.003493	-0.000093	0.000101				-0.670372	0.957082	-42.075728
00736	12821962	-0.151035	-0.106219	9.787272				-0.007369	0.001200	0.001143				-0.670225	0.957111	-42.074588
00737	12822012	-0.138946	-0.115322	9.776665				-0.004724	0.000305	-0.000536				-0.671581	0.957197	-42.074738
00738	12822062	-0.157519	-0.102319	9.793778				-0.004236	-0.000081	-0.004391				-0.670564	0.956840	-42.075139
00739	12822112	-0.148251	-0.106078	9.790368				-0.001890	0.002065	-0.001856				-0.671115	0.957425	-42.075675
00740	12822162	-0.166020	-0.104303	9.811315				-0.004020	0.002812	0.001335				-0.670009	0.957917	-42.074423
00741	12822212	-0.194778	-0.108147	9.815773				-0.006718	0.001620	-0.002993				-0.671948	0.958371	-42.075282
00742	12822262	-0.200606	-0.099108	9.812684				-0.005533	0.002613	-0.003179				-0.671296	0.958789	-42.075370
00743	12822312	-0.203223	-0.096286	9.814131				-0.005285	0.001235	0.001594				-0.672802	0.959148	-42.074911
00744	12822362	-0.196662	-0.112450	9.820572				-0.005837	0.001321	-0.000142				-0.672223	0.959207	-42.074131
00745	12822412	-0.216213	-0.094090	9.830250				-0.003645	-0.000394	-0.002944				-0.673281	0.959085	-42.074968
00746	12822462	-0.213364	-0.106949	9.813704				-0.008641	-0.000381	-0.002452				-0.673517	0.958648	-42.074848
00747	12822512	-0.203449	-0.111769	9.805270				-0.001083	0.000755	-0.001508				-0.673835	0.958859	-42.075281
00748	12822562	-0.190354	-0.110295	9.811432				-0.004759	-0.002507	-0.000100				-0.672946	0.957823	-42.074409
00749	12822612	-0.173765	-0.111593	9.789779				-0.000712	-0.002821	0.001651				-0.673142	0.957020	-42.073927
00750	12822662	-0.191891	-0.104031	9.807364				-0.001241	-0.000514	-0.003658				-0.671263	0.956543	-42.074135
00751	12822712	-0.160390	-0.129731	9.793554				-0.000442	0.003837	-0.000945				-0.671394	0.957639	-42.074421
00752	12822762	-0.164336	-0.095132	9.801953				-0.004326	-0.000013	-0.000183				-0.670382	0.957317	-42.073628
00753	12822812	-0.165614	-0.094123	9.781105				-0.004051	-0.002790	-0.000907				-0.671547	0.956514	-42.073881
00754	12822862	-0.150832	-0.106519	9.791103				-0.006688	0.000723	-0.000081				-0.671212	0.956404	-42.073063
00755	12822912	-0.147915	-0.099016	9.776944				-0.002213	-0.001073	-0.000874				-0.671850	0.956093	-42.073305
00756	12822962	-0.148862	-0.107679	9.793488				-0.005087	-0.000420	-0.001889				-0.671065	0.955648	-42.073007
00757	12823012	-0.146455	-0.109882	9.787245				-0.004715	-0.000059	-0.002465				-0.672428	0.955623	-42.073709
00758	12823062	-0.171430	-0.097193	9.792409				-0.003215	0.001067	-0.003711				-0.671115	0.955598	-42.073959
00759	12823112	-0.161280	-0.116064	9.802667				-0.004795	0.002693	-0.002478				-0.672501	0.956361	-42.074670
00760	12823162	-0.181104	-0.111031	9.805635				-0.002220	0.001385	0.000200				-0.670885	0.956440	-42.073793
00761	12823212	-0.184409	-0.094920	9.801817				-0.006060	0.002085	-0.002094				-0.672631	0.957030	-42.074390
00762	12823262	-0.172612	-0.118531	9.829073				-0.004651	0.001509	0.002135				-0.671702	0.957151	-42.072944
00763	12823312	-0.195423	-0.101469	9.801151				-0.005488	-0.000874	-0.000217				-0.673275	0.956900	-42.073000
00764	12823362	-0.202602	-0.100335	9.797590				-0.007550	0.001837	-0.000034				-0.673186	0.957108	-42.072222
00765	12823412	-0.209560	-0.098222	9.800505				-0.000747	0.001274	-0.002462				-0.673412	0.957465	-42.072933
00766	12823462	-0.192757	-0.093803	9.817672				-0.002436	-0.002081	0.000027				-0.671859	0.956551	-42.072049
00767	12823512	-0.213831	-0.102770	9.813947				-0.003309	0.000460	0.000944				-0.672802	0.956686	-42.071777
00768	12823562	-0.188479	-0.116279	9.816940				-0.002553	0.002129	0.003223				-0.671267	0.956989	-42.070030
00769	12823612	-0.191699	-0.107022	9.798978				-0.001823	-0.003561	-0.002840				-0.671802	0.955959	-42.070824
00770	12823662	-0.186499	-0.105366	9.813082				-0.003699	0.001583	-0.001717				-0.670620	0.956089	-42.070531
00771	12823712	-0.188817	-0.120325	9.799210				-0.004604	0.000659	-0.001238				-0.671944	0.956273	-42.070876
00772	12823762	-0.176098	-0.100360	9.796498				-0.000404	-0.002328	0.001587				-0.669801	0.955295	-42.069523
00773	12823812	-0.169623	-0.097517	9.782806				-0.004504	-0.001639	-0.002440				-0.671103	0.954817	-42.070207
00774	12823862	-0.157949	-0.104205	9.776991				-0.005022	0.001951	0.000663				-0.670286	0.955060	-42.069219
00775	12823912	-0.155563	-0.120291	9.773636				-0.005852	0.000604	-0.001045				-0.671968	0.955230	-42.069509
00776	12823962	-0.144802	-0.112085	9.794666				-0.003878	-0.001073	-0.000804				-0.670831	0.954602	-42.068882
00777	12824012	-0.134309	-0.113469	9.786227				-0.002490	0.003800	-0.000975				-0.671549	0.955687	-42.069164
00778	12824062	-0.135252	-0.112782	9.783597				-0.003510	0.001354	-0.002909				-0.670318	0.955748	-42.069142
00779	12824112	-0.154725	-0.123649	9.786090				-0.001482	0.003266	-0.001493				-0.670749	0.956678	-42.069574
00780	12824162	-0.154593	-0.098448	9.792791				-0.003585	0.004944	-0.001670				-0.669534	0.957771	-42.069257
00781	12824212	-0.174816	-0.110639	9.813513				-0.003151	0.003104	-0.004023				-0.670456	0.958646	-42.070422
00782	12824262	-0.169339	-0.115298	9.799828				-0.003346	-0.000746	-0.003048				-0.669178	0.958105	-42.070439
00783	12824312	-0.178639	-0.096001	9.798191				-0.004586	0.000112	-0.000057				-0.670492	0.958136	-42.070454
00784	12824362	-0.183898	-0.111541	9.790552				-0.003298	0.003777	-0.004657				-0.669207	0.958885	-42.070953
00785	12824412	-0.201078	-0.101460	9.811006				-0.005284	0.001138	0.002487				-0.670709	0.959220	-42.070240
00786	12824462	-0.190151	-0.121437	9.825098				-0.003260	0.002789	-0.000109				-0.669393	0.959700	-42.069438
00787	12824512	-0.204809	-0.134378	9.800490				-0.007702	0.000314	-0.002481				-0.671611	0.959782	-42.070139
00788	12824562	-0.215223	-0.110573	9.839360				-0.005151	-0.002421	-0.001858				-0.670845	0.958764	-42.069806
00789	12824612	-0.212958	-0.098490	9.813465				-0.002004	-0.000653	-0.002372				-0.671430	0.958569	-42.070479
00790	12824662	-0.217104	-0.077532	9.801252				-0.003836	-0.002198	0.001027				-0.670273	0.957625	-42.069363
00791	12824712	-0.189413	-0.079285	9.815492				-0.001889	0.000031	-0.000031				-0.670814	0.957634	-42.069368
00792	12824762	-0.188025	-0.104606	9.798719				-0.003733	-0.000785	-0.003689				-0.669650	0.957080	-42.069578
00793	12824812	-0.182838	-0.093885	9.795809				-0.003593	-0.003232	-0.001518				-0.670686	0.956149	-42.070002
00794	12824862	-0.175090	-0.106597	9.796017				-0.003133	-0.002186	0.000858				-0.669329	0.955208	-42.068929
00795	12824912	-0.138255	-0.103350	9.802778				-0.004336	-0.000758	-0.001347				-0.670577	0.954986	-42.069311
00796	12824962	-0.152289	-0.102104	9.787999				-0.001918	-0.000297	-0.002154				-0.668886	0.954577	-42.069092
00797	12825012	-0.145077	-0.119653	9.776937				-0.003491	-0.000159	-0.000224				-0.669887	0.954530	-42.069150
00798	12825062	-0.150095	-0.098019	9.770484				-0.001180	0.002953	-0.000340				-0.667975	0.955058	-42.068420
00799	12825112	-0.145626	-0.116776	9.785563				-0.006411	-0.001282	-0.004200				-0.669832	0.954677	-42.069618
00800	12825162	-0.142163	-0.121640	9.804241				-0.001989	0.001261	0.001862				-0.668142	0.954726	-42.068263
00801	12825212	-0.158536	-0.119068	9.793061				-0.001824	-0.000966	0.001309				-0.668658	0.954454	-42.067887
00802	12825262	-0.166408	-0.119500	9.783995				-0.001186	0.003980	-0.001909				-0.666756	0.955269	-42.067625
00803	12825312	-0.165782	-0.103321	9.807238				-0.004587	0.003246	-0.001159				-0.668076	0.956196	-42.067969
00804	12825362	-0.162651	-0.108470	9.806743				-0.003158	0.005298	-0.006705				-0.666761	0.957373	-42.069064
00805	12825412	-0.194987	-0.116440	9.801873				-0.004298	-0.001179	-0.002179				-0.668003	0.957028	-42.069680
00806	12825462	-0.189309	-0.114501	9.791298				-0.003839	0.000703	-0.002878				-0.666866	0.956901	-42.069694
00807	12825512	-0.186808	-0.105095	9.819559				-0.006403	0.002991	-0.001411				-0.668707	0.957753	-42.070114
00808	12825562	-0.201295	-0.098789	9.825146				-0.004949	-0.001609	-0.002146				-0.667884	0.956968	-42.069859
00809	12825612	-0.207088	-0.107980	9.794499				0.000181	0.003299	-0.001844				-0.667841	0.957907	-42.070394
00810	12825662	-0.204748	-0.099895	9.829234				-0.005328	0.002362	-0.001448				-0.667123	0.958262	-42.069978
00811	12825712	-0.201688	-0.120289	9.806217				-0.000513	0.000796	-0.003365				-0.667286	0.958479	-42.070942
00812	12825762	-0.200355	-0.090284	9.811959				-0.003990	-0.002265	0.001954				-0.666169	0.957519	-42.069559
00813	12825812	-0.199704	-0.091532	9.813393				-0.005545	-0.000200	-0.003576				-0.667775	0.957450	-42.070579
00814	12825862	-0.171972	-0.119257	9.804395				-0.004327	0.002024	-0.001042				-0.666768	0.957709	-42.070030
00815	12825912	-0.151399	-0.101344	9.797810				-0.003155	0.000459	-0.000125				-0.667673	0.957840	-42.070066
00816	12825962	-0.169987	-0.097794	9.803416				-0.002488	-0.002637	-0.002355				-0.666145	0.956760	-42.069914
00817	12826012	-0.156419	-0.116636	9.790168				-0.001317	0.000038	-0.000068				-0.666523	0.956770	-42.069932
00818	12826062	-0.155468	-0.091620	9.775541				-0.004588	0.000078	-0.002141				-0.665597	0.956468	-42.069691
00819	12826112	-0.141917	-0.103214	9.767091				-0.007781	0.000962	0.000788				-0.667822	0.956747	-42.069459
00820	12826162	-0.148691	-0.103383	9.796127				-0.004513	-0.001575	-0.004204				-0.666884	0.955964	-42.069840
00821	12826212	-0.152336	-0.101518	9.790388				-0.006162	0.000375	0.000747				-0.668645	0.956074	-42.069625
00822	12826262	-0.163451	-0.110051	9.786131				-0.003318	0.003523	-0.003056				-0.667360	0.956756	-42.069645
00823	12826312	-0.171100	-0.100088	9.807739				-0.005101	0.004467	-0.001314				-0.668828	0.958031	-42.070036
00824	12826362	-0.181772	-0.110616	9.800844				-0.007917	0.001052	-0.000812				-0.668849	0.958013	-42.069401
00825	12826412	-0.157239	-0.111177	9.790176				-0.002107	0.003841	-0.001488				-0.669460	0.959108	-42.069833
00826	12826462	-0.181060	-0.116247	9.805400				-0.002725	0.001211	-0.000279				-0.667991	0.959136	-42.069077
00827	12826512	-0.181662	-0.116941	9.823373				0.000360	0.004148	0.001461				-0.667881	0.960329	-42.068670
00828	12826562	-0.194925	-0.106388	9.816727				-0.001253	-0.003193	-0.002071				-0.665998	0.959090	-42.068416
00829	12826612	-0.203928	-0.094939	9.811737				-0.000231	0.000289	-0.000706				-0.666068	0.959170	-42.068621
00830	12826662	-0.197639	-0.100835	9.809556				-0.002123	0.000221	-0.000957				-0.664430	0.958913	-42.068055
00831	12826712	-0.215193	-0.098707	9.826411				-0.001933	0.000390	0.001356				-0.664977	0.959030	-42.067660
00832	12826762	-0.194281	-0.107501	9.806660				-0.003441	0.002293	-0.002707				-0.663725	0.959360	-42.067608
00833	12826812	-0.191896	-0.108986	9.813359				-0.004593	0.000138	-0.003841				-0.665059	0.959387	-42.068702
00834	12826862	-0.207534	-0.094009	9.799294				-0.005056	0.003818	-0.002753				-0.664270	0.960154	-42.068724
00835	12826912	-0.197980	-0.089135	9.799724				-0.005725	-0.000364	-0.001753				-0.665919	0.960044	-42.069221
00836	12826962	-0.168281	-0.104788	9.799584				-0.001750	0.000683	0.000902				-0.664165	0.959926	-42.068086
00837	12827012	-0.149295	-0.108999	9.789654				-0.004192	-0.000239	-0.000958				-0.665370	0.959855	-42.068356
00838	12827062	-0.145086	-0.102001	9.787714				-0.002485	-0.001498	0.000409				-0.663829	0.959111	-42.067367
00839	12827112	-0.153190	-0.103254	9.785839				-0.001784	-0.000324	-0.000293				-0.664341	0.959017	-42.067444
00840	12827162	-0.134294	-0.122924	9.782878				-0.004889	-0.001638	-0.000712				-0.663494	0.958228	-42.066810
00841	12827212	-0.138822	-0.115846	9.768271				-0.003671	-0.001754	-0.002121				-0.664556	0.957719	-42.067408
00842	12827262	-0.128048	-0.109637	9.776372				-0.001044	-0.000573	-0.001708				-0.662613	0.957232	-42.067070
00843	12827312	-0.168926	-0.109235	9.790718				-0.002418	0.003411	-0.002355				-0.663317	0.958201	-42.067753
00844	12827362	-0.169687	-0.097928	9.788556				-0.006444	-0.001021	-0.001626				-0.662920	0.957586	-42.067347
00845	12827412	-0.162729	-0.100684	9.820161				-0.006348	-0.000021	-0.001589				-0.664746	0.957575	-42.067796
00846	12827462	-0.169639	-0.112940	9.799826				-0.002839	0.001563	-0.001530				-0.663316	0.957700	-42.067423
00847	12827512	-0.195955	-0.117889	9.802835				-0.004873	-0.001320	-0.003558				-0.664729	0.957310	-42.068434
00848	12827562	-0.178985	-0.113315	9.814013				-0.003137	0.001848	-0.001138				-0.663383	0.957518	-42.067943
00849	12827612	-0.188621	-0.102544	9.821723				-0.000650	-0.001496	0.002137				-0.663559	0.957097	-42.067331
00850	12827662	-0.203565	-0.099100	9.793762				-0.005855	0.000604	-0.002868				-0.662999	0.956943	-42.067290
00851	12827712	-0.219540	-0.098396	9.826671				-0.005094	0.001308	0.002169				-0.664448	0.957325	-42.066672
00852	12827762	-0.208732	-0.098826	9.810087				-0.000592	0.002610	-0.000309				-0.662368	0.957754	-42.065957
00853	12827812	-0.201850	-0.103472	9.791841				-0.002196	0.000538	-0.001632				-0.663005	0.957903	-42.066426
00854	12827862	-0.188651	-0.119299	9.812148				-0.002106	0.000670	-0.001405				-0.661365	0.957773	-42.066002
00855	12827912	-0.171856	-0.103626	9.804628				-0.004856	-0.000474	-0.000890				-0.662761	0.957635	-42.066256
00856	12827962	-0.162910	-0.107395	9.801717				-0.001599	-0.002397	-0.003096				-0.660983	0.956620	-42.066318
00857	12828012	-0.182515	-0.104091	9.798691				-0.003126	-0.000837	-0.003498				-0.661895	0.956369	-42.067306
00858	12828062	-0.161574	-0.094870	9.800263				-0.004426	-0.006255	-0.001920				-0.660921	0.954254	-42.066972
00859	12828112	-0.150950	-0.110774	9.792786				-0.005394	-0.002647	0.001051				-0.662462	0.953499	-42.066661
00860	12828162	-0.144977	-0.109842	9.769746				-0.004774	0.002786	-0.003889				-0.661598	0.953967	-42.066952
00861	12828212	-0.169395	-0.113428	9.783292				-0.005491	-0.001980	-0.003335				-0.663186	0.953389	-42.067892
00862	12828262	-0.154479	-0.115741	9.787529				-0.006536	0.000980	-0.001298				-0.662815	0.953349	-42.067436
00863	12828312	-0.165235	-0.097039	9.789257				-0.000960	0.000587	-0.004970				-0.663114	0.953501	-42.068859
00864	12828362	-0.164897	-0.109661	9.785910				-0.005250	0.005715	-0.005765				-0.662395	0.954802	-42.069671
00865	12828412	-0.161587	-0.109241	9.794518				-0.003907	0.003032	-0.001808				-0.663523	0.955665	-42.070198
00866	12828462	-0.145532	-0.117769	9.805463				-0.004300	0.001513	0.003447				-0.662489	0.955792	-42.068413
00867	12828512	-0.162831	-0.112989	9.803150				-0.005501	0.005683	-0.001884				-0.664074	0.957414	-42.068961
00868	12828562	-0.173389	-0.109407	9.809908				-0.003893	0.004254	-0.005328				-0.662964	0.958298	-42.069656
00869	12828612	-0.175071	-0.097288	9.800331				-0.001229	0.001066	-0.003780				-0.663335	0.958590	-42.070746
00870	12828662	-0.209086	-0.082479	9.807448				-0.003530	0.000492	0.001422				-0.662089	0.958419	-42.069448
00871	12828712	-0.195214	-0.106297	9.809546				-0.002947	-0.000083	-0.000539				-0.662935	0.958394	-42.069598
00872	12828762	-0.198229	-0.120087	9.817707				-0.005211	0.003523	-0.003273				-0.662195	0.959075	-42.069723
00873	12828812	-0.196430	-0.102853	9.804988				-0.000931	0.000117	0.000415				-0.662460	0.959109	-42.069605
00874	12828862	-0.203660	-0.109172	9.799521				-0.005842	-0.002784	-0.000612				-0.661886	0.957993	-42.068953
00875	12828912	-0.207813	-0.089291	9.821339				-0.001462	-0.002750	-0.004340				-0.662325	0.957191	-42.070187
00876	12828962	-0.195929	-0.099380	9.805230				-0.004005	-0.001470	-0.004327				-0.661242	0.956439	-42.070552
00877	12829012	-0.185195	-0.109127	9.800622				-0.003013	0.002981	-0.002579				-0.662118	0.957285	-42.071305
00878	12829062	-0.146297	-0.106736	9.798747				-0.002515	-0.001795	-0.001550				-0.660595	0.956449	-42.070904
00879	12829112	-0.164575	-0.121375	9.782547				-0.003971	-0.002167	0.000186				-0.661732	0.955829	-42.070840
00880	12829162	-0.155606	-0.108382	9.804781				-0.005084	-0.001485	-0.001892				-0.660947	0.955081	-42.070556
00881	12829212	-0.151792	-0.100893	9.788226				-0.001537	-0.000260	-0.002379				-0.661399	0.954998	-42.071231
00882	12829262	-0.154299	-0.086568	9.789677				-0.004572	-0.004543	-0.001111				-0.660464	0.953376	-42.070686
00883	12829312	-0.145204	-0.095074	9.798491				-0.001706	-0.003946	-0.000410				-0.660954	0.952245	-42.070793
00884	12829362	-0.144992	-0.096722	9.800177				-0.000693	-0.001640	-0.003573				-0.658920	0.951446	-42.070969
00885	12829412	-0.162525	-0.098685	9.785171				-0.004011	-0.000073	-0.001405				-0.660076	0.951421	-42.071369
00886	12829462	-0.153227	-0.122086	9.788728				-0.003809	0.001165	0.001616				-0.658909	0.951443	-42.070078
00887	12829512	-0.178079	-0.110619	9.794834				-0.002094	-0.001848	-0.001355				-0.659515	0.950909	-42.070455
00888	12829562	-0.178682	-0.105212	9.816644				-0.002613	0.001629	-0.000858				-0.658018	0.951056	-42.069873
00889	12829612	-0.205402	-0.099027	9.815344				-0.006542	0.001977	-0.003436				-0.659908	0.951611	-42.070853
00890	12829662	-0.181968	-0.101650	9.808994				-0.003400	0.002235	-0.000658				-0.658636	0.951932	-42.070254
00891	12829712	-0.183429	-0.114654	9.809004				-0.002155	0.000118	-0.003171				-0.659269	0.951955	-42.071155
00892	12829762	-0.203400	-0.098218	9.802147				-0.003762	0.000253	-0.003295				-0.658112	0.951700	-42.071270
00893	12829812	-0.195265	-0.093005	9.786532				-0.006496	0.000590	-0.003158				-0.659988	0.951859	-42.072174
00894	12829862	-0.206810	-0.110764	9.800969				-0.001348	0.001231	-0.000540				-0.658127	0.951893	-42.071481
00895	12829912	-0.194268	-0.104244	9.814325				-0.003720	-0.002246	-0.003697				-0.659210	0.951237	-42.072535
00896	12829962	-0.204089	-0.103469	9.815337				-0.003577	-0.000465	-0.000704				-0.657989	0.950785	-42.071919
00897	12830012	-0.192317	-0.107578	9.810246				-0.007214	-0.001887	-0.001540				-0.660063	0.950239	-42.072348
00898	12830062	-0.168976	-0.117072	9.784965				-0.006180	-0.001085	0.002052				-0.659574	0.949620	-42.070878
00899	12830112	-0.161001	-0.096081	9.777971				-0.000478	-0.003124	0.000425				-0.659708	0.948727	-42.070744
00900	12830162	-0.166556	-0.099510	9.785666				-0.007059	-0.001852	-0.001127				-0.659486	0.947876	-42.070242
00901	12830212	-0.153927	-0.119246	9.802629				-0.004938	-0.003140	-0.001844				-0.660909	0.946970	-42.070760
00902	12830262	-0.150571	-0.106132	9.792541				-0.001217	-0.001460	-0.004058				-0.659026	0.946222	-42.071050
00903	12830312	-0.161278	-0.121280	9.787325				-0.005341	-0.000367	-0.000251				-0.660557	0.946116	-42.071119
00904	12830362	-0.147770	-0.111102	9.805708				-0.002980	-0.000200	-0.003307				-0.659177	0.945732	-42.071229
00905	12830412	-0.167702	-0.098735	9.783998				-0.004518	-0.001289	-0.002247				-0.660482	0.945355	-42.071863
00906	12830462	-0.155457	-0.123763	9.801200				-0.005709	0.000013	-0.002594				-0.659879	0.945034	-42.071768
00907	12830512	-0.156240	-0.111376	9.798078				-0.004628	-0.000350	0.001349				-0.661199	0.944938	-42.071379
00908	12830562	-0.160764	-0.116412	9.792595				0.000353	0.004033	-0.000950				-0.658852	0.945774	-42.070831
00909	12830612	-0.150988	-0.125500	9.797819				-0.003375	0.004357	-0.001647				-0.659827	0.947017	-42.071304
00910	12830662	-0.183710	-0.121559	9.819796				-0.005353	0.002026	-0.002484				-0.659123	0.947272	-42.071224
00911	12830712	-0.177580	-0.103253	9.806575				-0.005846	0.000470	-0.000341				-0.660800	0.947406	-42.071324
00912	12830762	-0.190940	-0.106655	9.812874				-0.007452	-0.001498	-0.000831				-0.660690	0.946657	-42.070724
00913	12830812	-0.215579	-0.084859	9.800048				-0.004042	-0.002965	-0.002033				-0.661857	0.945801	-42.071291
00914	12830862	-0.213545	-0.102092	9.794771				-0.003581	0.002091	0.000852				-0.660629	0.946086	-42.070228
00915	12830912	-0.208777	-0.087227	9.807926				-0.003325	-0.001163	0.000637				-0.661579	0.945755	-42.070039
00916	12830962	-0.198188	-0.094349	9.813382				-0.002044	0.000054	0.001638				-0.659907	0.945460	-42.068735
00917	12831012	-0.210313	-0.104139	9.815847				-0.000516	0.000042	-0.001638				-0.660063	0.945466	-42.069211
00918	12831062	-0.182529	-0.120024	9.820024				-0.001879	0.001704	-0.001054				-0.658357	0.945635	-42.068689
00919	12831112	-0.177663	-0.116007	9.793631				-0.002445	0.003337	-0.002516				-0.659070	0.946583	-42.069411
00920	12831162	-0.175119	-0.109716	9.799616				-0.003536	0.001580	0.000780				-0.657829	0.946722	-42.068369
00921	12831212	-0.154418	-0.108289	9.799992				-0.006171	0.000387	-0.003941				-0.659616	0.946820	-42.069490
00922	12831262	-0.171142	-0.091423	9.784254				-0.005152	-0.002299	-0.001001				-0.658847	0.945842	-42.068918
00923	12831312	-0.146800	-0.127065	9.797074				-0.002331	-0.000285	-0.001196				-0.659520	0.945756	-42.069258
00924	12831362	-0.170427	-0.102340	9.784250				-0.004506	0.003558	-0.002418				-0.658573	0.946451	-42.069133
00925	12831412	-0.164137	-0.110223	9.793329				-0.004772	0.001843	-0.001748				-0.659948	0.946973	-42.069636
00926	12831462	-0.152547	-0.109082	9.795424				-0.001816	0.001767	0.000322				-0.658218	0.947165	-42.068686
00927	12831512	-0.144932	-0.135692	9.788440				-0.003596	0.001511	0.001738				-0.659240	0.947604	-42.068194
00928	12831562	-0.163876	-0.129307	9.785658				-0.003474	0.001512	-0.000666				-0.657989	0.947719	-42.067536
00929	12831612	-0.154243	-0.108856	9.811251				-0.003594	-0.000083	-0.003083				-0.659033	0.947685	-42.068422
00930	12831662	-0.186444	-0.097196	9.787445				-0.007816	0.002014	-0.001808				-0.659032	0.947940	-42.068127
00931	12831712	-0.173769	-0.103938	9.798651				-0.002178	0.000751	-0.003367				-0.659672	0.948144	-42.069093
00932	12831762	-0.174628	-0.117931	9.808482				-0.004067	0.002756	-0.002965				-0.658602	0.948607	-42.069077
00933	12831812	-0.182402	-0.091619	9.814982				-0.005642	0.002284	0.000147				-0.660218	0.949262	-42.069036
00934	12831862	-0.187560	-0.096767	9.780984				-0.003175	0.002066	-0.000276				-0.658880	0.949537	-42.068271
00935	12831912	-0.181454	-0.122651	9.804681				-0.002605	0.001199	-0.003234				-0.659641	0.949870	-42.069198
00936	12831962	-0.193499	-0.109143	9.809531				-0.004311	-0.000636	-0.001633				-0.658636	0.949366	-42.068864
00937	12832012	-0.188841	-0.100846	9.813108				-0.003010	0.000231	0.000837				-0.659494	0.949435	-42.068624
00938	12832062	-0.208301	-0.107476	9.810801				-0.003252	0.000708	0.000779				-0.658174	0.949324	-42.067546
00939	12832112	-0.169399	-0.113533	9.803180				-0.005741	0.000209	-0.000380				-0.659820	0.949383	-42.067646
00940	12832162	-0.187976	-0.106108	9.824841				-0.006653	0.002515	-0.004596				-0.659499	0.949772	-42.068141
00941	12832212	-0.177677	-0.126152	9.800592				-0.005092	-0.003366	-0.001776				-0.660966	0.948802	-42.068635
00942	12832262	-0.172035	-0.101935	9.822367				-0.002836	0.001849	0.001355				-0.659524	0.949021	-42.067415
00943	12832312	-0.167989	-0.122347	9.795512				-0.003920	0.000273	-0.001184				-0.660652	0.949095	-42.067754
00944	12832362	-0.145731	-0.118107	9.802823				-0.000840	0.001207	-0.000259				-0.658646	0.949124	-42.067015
00945	12832412	-0.160474	-0.116310	9.794509				-0.001828	0.000925	-0.002533				-0.659182	0.949381	-42.067752
00946	12832462	-0.155996	-0.113828	9.793286				-0.002278	0.000845	-0.003564				-0.657604	0.949295	-42.067948
00947	12832512	-0.170088	-0.095013	9.789283				-0.003790	0.002178	-0.003742				-0.658707	0.949906	-42.069029
00948	12832562	-0.156095	-0.106922	9.775554				-0.001220	-0.002100	-0.000727				-0.656811	0.948987	-42.068364
00949	12832612	-0.157220	-0.083227	9.791366				-0.002810	-0.002551	-0.001845				-0.657625	0.948250	-42.068888
00950	12832662	-0.166613	-0.111604	9.804845				-0.004722	0.001261	-0.001853				-0.656738	0.948289	-42.068594
00951	12832712	-0.150283	-0.122600	9.809320				-0.004444	0.001393	-0.003325				-0.658027	0.948677	-42.069555
00952	12832762	-0.156669	-0.123750	9.800722				-0.003708	0.001801	-0.000344				-0.656843	0.948876	-42.068822
00953	12832812	-0.178227	-0.093531	9.807297				-0.004510	0.000716	-0.001116				-0.658140	0.949077	-42.069141
00954	12832862	-0.182901	-0.120053	9.806611				-0.001666	0.001733	-0.002816				-0.656382	0.949248	-42.069105
00955	12832912	-0.184099	-0.104554	9.824584				-0.005572	-0.000107	-0.000638				-0.657981	0.949215	-42.069282
00956	12832962	-0.178691	-0.106186	9.810177				-0.005769	-0.003158	-0.001872				-0.657394	0.947989	-42.068948
00957	12833012	-0.199061	-0.090400	9.815791				-0.006757	0.001807	-0.001966				-0.659339	0.948500	-42.069502
00958	12833062	-0.195412	-0.093406	9.790604				-0.001878	-0.002538	-0.001071				-0.657633	0.947454	-42.068941
00959	12833112	-0.193565	-0.094873	9.817197				-0.005925	0.001981	-0.001806				-0.659339	0.948015	-42.069459
00960	12833162	-0.201257	-0.105511	9.826591				-0.007066	-0.000561	-0.002526				-0.659127	0.947530	-42.069352
00961	12833212	-0.170234	-0.117509	9.800547				-0.002670	-0.001769	-0.000908				-0.659896	0.947021	-42.069606
00962	12833262	-0.189536	-0.113156	9.800647				-0.001341	-0.002237	-0.000437				-0.658034	0.946063	-42.068899
00963	12833312	-0.153733	-0.098112	9.790156				-0.001746	0.000113	-0.003345				-0.658550	0.946084	-42.069853
00964	12833362	-0.178223	-0.104871	9.786685				-0.005633	0.002863	-0.001547				-0.657923	0.946583	-42.069430
00965	12833412	-0.163886	-0.120893	9.807711				-0.005922	0.002954	0.000599				-0.659617	0.947431	-42.069267
00966	12833462	-0.172359	-0.101741	9.779467				-0.003038	-0.003295	0.000688				-0.658236	0.946174	-42.068261
00967	12833512	-0.163769	-0.113264	9.784460				-0.008977	-0.000815	0.000553				-0.660805	0.945942	-42.068100
00968	12833562	-0.152493	-0.104417	9.796860				-0.004405	-0.002743	-0.000784				-0.659821	0.944839	-42.067449
00969	12833612	-0.161834	-0.102486	9.782534				-0.005401	0.003774	0.001565				-0.661362	0.945925	-42.067017
00970	12833662	-0.149824	-0.108276	9.780556				-0.009679	0.004045	-0.004391				-0.661907	0.946753	-42.067409
00971	12833712	-0.139871	-0.114419	9.785299				-0.000377	-0.002679	-0.004225				-0.662035	0.945972	-42.068610
00972	12833762	-0.146823	-0.136079	9.807143				-0.006025	0.004348	0.001245				-0.661508	0.946906	-42.067396
00973	12833812	-0.178356	-0.089881	9.805619				-0.002376	0.004011	-0.003926				-0.662207	0.948042	-42.068531
00974	12833862	-0.172857	-0.098990	9.801999				-0.001220	0.000741	-0.003112				-0.660324	0.947928	-42.068560
00975	12833912	-0.158330	-0.102955	9.808393				-0.001661	0.000533	-0.004171				-0.660819	0.948067	-42.069751
00976	12833962	-0.192389	-0.104937	9.807846				-0.006196	0.000363	-0.001018				-0.660351	0.947851	-42.069240
00977	12834012	-0.195607	-0.115073	9.807868				-0.003725	0.001312	-0.000700				-0.661422	0.948225	-42.069442
00978	12834062	-0.185662	-0.105638	9.810212				-0.000431	-0.000666	-0.001033				-0.659302	0.947715	-42.068888
00979	12834112	-0.175405	-0.102686	9.802733				-0.004861	0.000511	-0.004195				-0.660714	0.947847	-42.070087
00980	12834162	-0.186704	-0.112796	9.793921				-0.002197	0.001627	-0.001502				-0.659103	0.947993	-42.069669
00981	12834212	-0.184597	-0.110820	9.803731				-0.002540	-0.003032	-0.002040				-0.659840	0.947117	-42.070248
00982	12834262	-0.178876	-0.100634	9.805864				-0.003713	0.002860	-0.002999				-0.658670	0.947611	-42.070241
00983	12834312	-0.195577	-0.102346	9.799710				-0.001765	0.006491	0.000741				-0.659172	0.949473	-42.070052
00984	12834362	-0.189206	-0.092290	9.810711				-0.004993	-0.000531	-0.005513				-0.658380	0.948988	-42.070824
00985	12834412	-0.157568	-0.111976	9.805279				-0.005585	0.003315	-0.000908				-0.659985	0.949934	-42.071091
00986	12834462	-0.169865	-0.090613	9.795750				-0.003538	0.002547	-0.000276				-0.658752	0.950347	-42.070331
00987	12834512	-0.159561	-0.109482	9.781322				-0.002406	0.002243	0.000393				-0.659440	0.950991	-42.070225
00988	12834562	-0.154006	-0.113443	9.776981				-0.006761	0.001872	-0.000785				-0.659132	0.951209	-42.069609
00989	12834612	-0.170295	-0.085393	9.782330				-0.000355	-0.002088	-0.000113				-0.659234	0.950611	-42.069628
00990	12834662	-0.151825	-0.102719	9.778400				-0.003837	0.002798	-0.001045				-0.658091	0.951093	-42.069089
00991	12834712	-0.143949	-0.110985	9.789387				-0.001175	0.002680	-0.002142				-0.658438	0.951854	-42.069717
00992	12834762	-0.171252	-0.098260	9.799829				-0.005062	0.000492	0.005107				-0.657616	0.951696	-42.067444
00993	12834812	-0.159572	-0.105282	9.818229				-0.003005	0.000644	-0.002787				-0.658490	0.951871	-42.068239
00994	12834862	-0.185651	-0.102821	9.796067				-0.002430	0.001047	0.001543				-0.656931	0.951860	-42.066949
00995	12834912	-0.181261	-0.102064	9.778791				-0.002450	-0.001538	0.000342				-0.657631	0.951421	-42.066845
00996	12834962	-0.180067	-0.103800	9.779750				-0.003685	0.001089	-0.000826				-0.656443	0.951414	-42.066262
00997	12835012	-0.178695	-0.107854	9.797956				-0.003856	0.001243	-0.001755				-0.657556	0.951765	-42.066766
00998	12835062	-0.190432	-0.115597	9.816707				-0.003367	0.001159	-0.000025				-0.656272	0.951781	-42.065918
00999	12835112	-0.197205	-0.102483	9.808113				-0.003187	0.003783	0.000888				-0.657181	0.952867	-42.065671
01000	12835162	-0.181610	-0.103983	9.808034				-0.003240	-0.000811	0.000153				-0.655861	0.952320	-42.064760
01001	12835212	-0.197936	-0.120552	9.807163				-0.004789	0.001623	0.000431				-0.657231	0.952786	-42.064630
01002	12835262	-0.206423	-0.113293	9.826138				-0.001349	0.001293	0.000100				-0.655368	0.952842	-42.063774
01003	12835312	-0.197909	-0.111560	9.800204				0.000113	-0.000655	-0.000748				-0.655339	0.952652	-42.063985
01004	12835362	-0.183472	-0.108297	9.802294				0.000755	0.000326	-0.001646				-0.652883	0.952425	-42.063613
01005	12835412	-0.193114	-0.096372	9.810488				-0.004296	-0.003358	-0.003606				-0.654130	0.951451	-42.064631
01006	12835462	-0.179712	-0.121989	9.808028				-0.003646	-0.002540	-0.003701				-0.652943	0.950396	-42.064862
01007	12835512	-0.157661	-0.108520	9.798808				-0.003657	-0.003118	-0.001620				-0.653999	0.949498	-42.065315
01008	12835562	-0.163992	-0.114932	9.774395				-0.006069	0.001238	-0.001559				-0.653497	0.949533	-42.064890
01009	12835612	-0.150172	-0.113416	9.812187				-0.003569	0.002279	-0.002010				-0.654529	0.950179	-42.065468
01010	12835662	-0.165189	-0.118409	9.795729				-0.008021	-0.001374	0.002635				-0.654567	0.949479	-42.063867
01011	12835712	-0.148455	-0.103737	9.788214				-0.004020	0.001469	-0.000511				-0.655721	0.949898	-42.064018
01012	12835762	-0.153828	-0.097215	9.791355				-0.003085	0.000417	-0.000034				-0.654357	0.949703	-42.063158
01013	12835812	-0.159569	-0.107146	9.779882				-0.006551	0.001327	-0.002649				-0.656246	0.950074	-42.063923
01014	12835862	-0.165411	-0.096091	9.799081				-0.004987	-0.003426	0.000563				-0.655425	0.948779	-42.062914
01015	12835912	-0.173841	-0.114285	9.792415				-0.003225	0.001075	0.004430				-0.656328	0.949101	-42.061642
01016	12835962	-0.172972	-0.108445	9.798882				-0.004213	-0.000803	-0.003688				-0.655304	0.948544	-42.061837
01017	12836012	-0.174918	-0.102801	9.781633				-0.005739	0.003150	-0.001740				-0.656957	0.949440	-42.062345
01018	12836062	-0.174482	-0.113841	9.809671				-0.000621	0.003534	-0.001366				-0.654894	0.950132	-42.061967
01019	12836112	-0.184021	-0.103055	9.796065				-0.001515	0.003456	0.000562				-0.655326	0.951124	-42.061816
01020	12836162	-0.183679	-0.111747	9.799414				-0.004011	-0.000825	-0.001577				-0.654235	0.950568	-42.061336
01021	12836212	-0.187434	-0.106836	9.823882				-0.001661	-0.000134	0.000506				-0.654708	0.950531	-42.061187
01022	12836262	-0.191886	-0.112718	9.796825				-0.004038	-0.003186	-0.001584				-0.653625	0.949297	-42.060867
01023	12836312	-0.190230	-0.110527	9.815749				-0.000946	0.001391	-0.002821				-0.653910	0.949686	-42.061680
01024	12836362	-0.182381	-0.114735	9.800137				-0.001527	-0.002760	-0.003609				-0.652116	0.948569	-42.061796
01025	12836412	-0.178888	-0.097511	9.802511				-0.006466	0.002047	0.002363				-0.653958	0.949163	-42.061117
01026	12836462	-0.177432	-0.104804	9.782855				-0.005233	-0.001224	0.005452				-0.653184	0.948515	-42.058681
01027	12836512	-0.176706	-0.103799	9.814243				-0.004276	0.000133	-0.004551				-0.654431	0.948538	-42.059979
01028	12836562	-0.176880	-0.102763	9.792909				-0.005240	0.002316	-0.003829				-0.653703	0.948874	-42.060266
01029	12836612	-0.171324	-0.096918	9.806062				-0.001500	0.002642	-0.003263				-0.654148	0.949620	-42.061206
01030	12836662	-0.156976	-0.117000	9.811990				-0.004461	-0.000739	-0.000741				-0.653182	0.949090	-42.060663
01031	12836712	-0.151754	-0.127678	9.788470				0.000198	-0.000099	0.001432				-0.653119	0.949066	-42.060249
01032	12836762	-0.161834	-0.110728	9.797868				-0.005735	0.002017	-0.001978				-0.652523	0.949323	-42.059947
01033	12836812	-0.152881	-0.105121	9.780089				-0.006563	-0.000219	0.001001				-0.654399	0.949263	-42.059658
01034	12836862	-0.155720	-0.107536	9.771238				-0.000320	0.003283	0.002157				-0.652233	0.949896	-42.058154
01035	12836912	-0.150790	-0.116949	9.809080				-0.003889	0.000304	-0.001093				-0.653352	0.949980	-42.058468
01036	12836962	-0.151386	-0.102487	9.786311				-0.001321	0.003096	-0.002781				-0.651497	0.950543	-42.058360
01037	12837012	-0.152566	-0.117335	9.786323				-0.005289	0.000125	-0.000029				-0.653012	0.950579	-42.058360
01038	12837062	-0.156189	-0.115023	9.788014				-0.005459	0.001148	-0.002459				-0.652340	0.950584	-42.058267
01039	12837112	-0.185644	-0.096123	9.819074				-0.004383	0.001718	-0.001942				-0.653605	0.951070	-42.058831
01040	12837162	-0.192969	-0.097893	9.801381				-0.004791	0.002650	-0.001714				-0.652739	0.951508	-42.058484
01041	12837212	-0.182213	-0.100751	9.803000				-0.002364	0.003888	-0.002033				-0.653426	0.952615	-42.059076
01042	12837262	-0.191831	-0.098851	9.788671				-0.006748	-0.001424	0.000162				-0.653111	0.951892	-42.058153
01043	12837312	-0.182195	-0.126906	9.818820				-0.002016	0.000957	0.000643				-0.653686	0.952169	-42.057972
01044	12837362	-0.181739	-0.117121	9.809951				-0.006957	-0.001306	-0.005739				-0.653459	0.951460	-42.058775
01045	12837412	-0.198990	-0.102514	9.800686				-0.006608	-0.000937	-0.001147				-0.655358	0.951188	-42.059105
01046	12837462	-0.190549	-0.092911	9.796332				-0.000889	0.000352	-0.004496				-0.653386	0.950960	-42.059510
01047	12837512	-0.186295	-0.112543	9.789850				-0.003412	0.002480	-0.002262				-0.654375	0.951663	-42.060164
01048	12837562	-0.173430	-0.103737	9.794574				-0.005049	-0.000752	-0.002725				-0.653587	0.951123	-42.060066
01049	12837612	-0.176948	-0.124485	9.808013				-0.001222	0.002029	-0.002372				-0.653948	0.951697	-42.060747
01050	12837662	-0.160024	-0.113401	9.793550				-0.001541	0.000763	-0.004684				-0.652165	0.951585	-42.061303
01051	12837712	-0.163144	-0.102853	9.812010				-0.003260	0.001777	-0.000245				-0.653100	0.952093	-42.061375
01052	12837762	-0.159197	-0.119449	9.797859				-0.004742	-0.003260	-0.000656				-0.652214	0.950842	-42.060738
01053	12837812	-0.160009	-0.099975	9.792825				-0.004806	0.003434	0.002687				-0.653579	0.951834	-42.059980
01054	12837862	-0.151857	-0.117722	9.797343				-0.003099	-0.001523	-0.000653				-0.652223	0.951081	-42.059243
01055	12837912	-0.138114	-0.128743	9.784570				-0.006322	0.002132	-0.003415				-0.654051	0.951680	-42.060232
01056	12837962	-0.151323	-0.126739	9.793507				-0.008092	0.001820	0.001145				-0.654117	0.951891	-42.059000
01057	12838012	-0.174536	-0.113162	9.792180				-0.003268	-0.000330	-0.002727				-0.655066	0.951787	-42.059777
01058	12838062	-0.169121	-0.098265	9.801737				-0.003631	0.001316	-0.000823				-0.653863	0.951846	-42.059236
01059	12838112	-0.166887	-0.118880	9.799815				-0.004648	0.001038	-0.000795				-0.655199	0.952141	-42.059466
01060	12838162	-0.193622	-0.090934	9.810246				-0.005436	0.004870	-0.001731				-0.654518	0.953215	-42.059078
01061	12838212	-0.196375	-0.110627	9.820328				-0.006951	-0.001876	0.001381				-0.656503	0.952682	-42.058676
01062	12838262	-0.193992	-0.106601	9.801867				-0.000796	0.000551	-0.004011				-0.654503	0.952511	-42.058997
01063	12838312	-0.179181	-0.099813	9.803467				-0.003586	0.002929	-0.002294				-0.655541	0.953342	-42.059663
01064	12838362	-0.191233	-0.114064	9.804492				-0.005705	-0.002015	0.000093				-0.654929	0.952450	-42.058815
01065	12838412	-0.194073	-0.105895	9.814803				-0.001847	0.000601	-0.001028				-0.655463	0.952619	-42.059108
01066	12838462	-0.187646	-0.090932	9.817652				-0.004485	0.002142	-0.000208				-0.654503	0.952917	-42.058261
01067	12838512	-0.192542	-0.107998	9.799705				-0.002759	0.001201	0.000907				-0.655289	0.953264	-42.058005
01068	12838562	-0.188502	-0.105364	9.801837				-0.001959	-0.001017	-0.002026				-0.653612	0.952652	-42.057781
01069	12838612	-0.169740	-0.116732	9.785450				-0.001714	0.001545	-0.000125				-0.654104	0.953094	-42.057819
01070	12838662	-0.166239	-0.108820	9.786861				-0.008391	0.000068	0.001200				-0.654256	0.952802	-42.056615
01071	12838712	-0.177348	-0.097145	9.790520				-0.007442	-0.000757	0.000039				-0.656388	0.952586	-42.056601
01072	12838762	-0.144696	-0.110384	9.775974				-0.003479	0.000409	-0.000770				-0.655142	0.952386	-42.055937
01073	12838812	-0.170643	-0.124318	9.805587				-0.006285	-0.000732	0.001288				-0.656936	0.952180	-42.055566
01074	12838862	-0.165938	-0.099727	9.788061				-0.005826	0.000860	0.000235				-0.656358	0.952112	-42.054702
01075	12838912	-0.165113	-0.089256	9.802195				-0.004674	-0.001357	-0.001866				-0.657706	0.951717	-42.055233
01076	12838962	-0.152234	-0.091941	9.796614				-0.007919	0.000138	0.000013				-0.657728	0.951442	-42.054323
01077	12839012	-0.173298	-0.097623	9.784508				-0.004237	0.002173	-0.002614				-0.658955	0.952056	-42.055074
01078	12839062	-0.159112	-0.117226	9.778446				-0.002323	-0.001999	-0.004154				-0.657394	0.951154	-42.055389
01079	12839112	-0.166117	-0.102999	9.792139				-0.009099	0.000762	-0.003383				-0.660016	0.951361	-42.056361
01080	12839162	-0.182005	-0.096242	9.809949				-0.006402	-0.001320	0.000257				-0.659603	0.950670	-42.055380
01081	12839212	-0.178948	-0.091381	9.789083				-0.005826	0.003253	0.002335				-0.661261	0.951610	-42.054714
01082	12839262	-0.176001	-0.103758	9.803927				-0.001692	0.001993	0.000395				-0.659498	0.951867	-42.053766
01083	12839312	-0.187345	-0.105081	9.811182				-0.004449	-0.000449	-0.003494				-0.660789	0.951727	-42.054767
01084	12839362	-0.208973	-0.103597	9.812244				-0.001248	-0.002628	-0.005922				-0.658928	0.950640	-42.055632
01085	12839412	-0.177508	-0.124407	9.827670				-0.004113	0.000236	-0.002180				-0.660117	0.950700	-42.056252
01086	12839462	-0.195356	-0.108142	9.791807				-0.001358	0.002056	-0.004324				-0.658280	0.950960	-42.056623
01087	12839512	-0.180816	-0.108441	9.792693				-0.001816	0.000797	0.000548				-0.658798	0.951190	-42.056465
01088	12839562	-0.184760	-0.108327	9.806370				-0.004738	0.000909	0.000041				-0.657909	0.951136	-42.055607
01089	12839612	-0.186519	-0.112566	9.807587				-0.003652	-0.001210	-0.002442				-0.658967	0.950781	-42.056308
01090	12839662	-0.172460	-0.094974	9.799837				-0.002766	-0.000904	-0.003470				-0.657529	0.950196	-42.056474
01091	12839712	-0.166745	-0.112812	9.804125				-0.005415	0.000860	-0.002044				-0.659090	0.950436	-42.057065
01092	12839762	-0.177866	-0.098044	9.793399				-0.005081	0.000508	-0.001372				-0.658307	0.950263	-42.056554
01093	12839812	-0.151212	-0.121470	9.779840				-0.003744	-0.001238	0.000152				-0.659378	0.949909	-42.056503
01094	12839862	-0.162876	-0.091631	9.790709				-0.006765	-0.001705	0.000956				-0.659065	0.949109	-42.055371
