// General information: 
//  MT Manager version: 2022.0.0 
//  XDA version: 2022.0.0 build 7085 rev 119802 built on 2022-11-08
// Device information: 
//  DeviceId: 037004D1
//  ProductCode: MTi-300-2A5G4
//  Firmware Version: 1.4.1
//  Hardware Version: 2.1.0
// Device settings: 
//  Filter Profile: general(39.16)
//  Option Flags: Orientation Smoother Disabled, Position/Velocity Smoother Disabled, Continuous Zero Rotation Update Disabled, AHS Disabled, ICC Disabled
// Coordinate system: ENU
PacketCounter	SampleTimeFine	Acc_X	Acc_Y	Acc_Z	AccHR_X	AccHR_Y	AccHR_Z	Gyr_X	Gyr_Y	Gyr_Z	GyrHR_X	GyrHR_Y	GyrHR_Z	Roll	Pitch	Yaw
00001	2203374	0.158209	-9.779492	-0.092653				-0.005816	0.003549	0.000071				-90.323812	-0.904473	-42.872406
00002	2203424	0.155763	-9.799040	-0.088016				-0.001708	-0.000974	-0.001150				-90.324310	-0.904799	-42.872126
00003	2203474	0.165968	-9.800314	-0.105566				-0.004408	-0.001796	-0.001118				-90.323614	-0.904354	-42.871361
00004	2203524	0.151613	-9.772428	-0.110217				0.000288	0.000677	-0.002914				-90.323525	-0.905193	-42.871546
00005	2203574	0.156514	-9.790269	-0.103187				-0.004930	-0.001449	-0.000762				-90.322990	-0.904652	-42.870868
00006	2203624	0.174483	-9.794431	-0.110877				-0.000920	0.001436	-0.001335				-90.323243	-0.905036	-42.871276
00007	2203674	0.186950	-9.808187	-0.101406				-0.003267	0.001848	-0.000783				-90.322227	-0.904504	-42.871564
00008	2203724	0.162282	-9.788743	-0.089347				-0.005105	0.000428	0.002585				-90.323679	-0.903762	-42.871693
00009	2203774	0.165870	-9.789799	-0.110612				-0.004522	0.002851	-0.003146				-90.322999	-0.903910	-42.872264
00010	2203824	0.171403	-9.798269	-0.095118				-0.003827	0.001925	-0.004340				-90.324090	-0.905158	-42.872811
00011	2203874	0.176701	-9.791454	-0.086695				-0.003125	0.004367	-0.002982				-90.322990	-0.905261	-42.873809
00012	2203924	0.162262	-9.781402	-0.088893				-0.005403	0.001486	-0.001545				-90.324525	-0.905704	-42.874221
00013	2203974	0.175836	-9.794833	-0.099229				-0.004910	0.000004	-0.001204				-90.323971	-0.905290	-42.873985
00014	2204024	0.175168	-9.801476	-0.099660				-0.003745	-0.000395	-0.001242				-90.325043	-0.905641	-42.873870
00015	2204074	0.183439	-9.804860	-0.104903				-0.008650	0.000548	-0.003792				-90.325579	-0.905979	-42.873793
00016	2204124	0.170407	-9.790089	-0.103403				-0.002849	-0.000644	-0.004485				-90.326393	-0.907262	-42.873592
00017	2204174	0.178503	-9.790343	-0.111671				-0.003244	-0.000194	-0.002947				-90.325359	-0.907348	-42.873306
00018	2204224	0.175334	-9.788802	-0.090877				-0.006612	0.000809	-0.004885				-90.327249	-0.908752	-42.873528
00019	2204274	0.146110	-9.771369	-0.090603				-0.002797	0.002474	0.002465				-90.326079	-0.907287	-42.873993
00020	2204324	0.162951	-9.785355	-0.108895				-0.000717	0.001985	-0.003449				-90.326274	-0.908277	-42.874561
00021	2204374	0.152232	-9.792893	-0.090142				-0.008858	-0.000905	-0.001132				-90.326869	-0.907848	-42.874018
00022	2204424	0.179301	-9.783089	-0.104277				-0.006143	0.001532	-0.002220				-90.328627	-0.908487	-42.874454
00023	2204474	0.167562	-9.780677	-0.101077				-0.003175	0.001975	-0.000557				-90.327569	-0.907887	-42.874765
00024	2204524	0.183744	-9.799314	-0.094423				-0.004385	0.000370	-0.002649				-90.328823	-0.908648	-42.874862
00025	2204574	0.170934	-9.800787	-0.101243				-0.000244	0.000410	-0.001504				-90.326928	-0.908321	-42.874745
00026	2204624	0.175209	-9.811778	-0.092780				-0.005520	0.002424	0.002277				-90.328497	-0.907673	-42.875448
00027	2204674	0.182272	-9.832979	-0.096771				-0.002170	-0.000592	-0.000287				-90.327146	-0.906991	-42.875017
00028	2204724	0.158978	-9.800748	-0.082862				-0.004132	-0.001702	-0.004774				-90.328334	-0.908353	-42.874523
00029	2204774	0.165518	-9.802953	-0.103782				-0.007752	-0.000305	-0.001518				-90.328600	-0.908037	-42.874168
00030	2204824	0.147441	-9.780615	-0.090075				-0.008432	0.004215	0.000530				-90.330993	-0.907890	-42.875379
00031	2204874	0.176539	-9.792861	-0.103550				-0.004520	0.002988	-0.001317				-90.330324	-0.907512	-42.875995
00032	2204924	0.159725	-9.790944	-0.087103				-0.004628	0.001276	-0.000044				-90.331656	-0.907532	-42.876364
00033	2204974	0.159337	-9.796264	-0.111569				-0.001324	-0.001359	-0.004786				-90.330068	-0.908141	-42.875721
00034	2205024	0.169996	-9.780574	-0.106120				-0.003538	-0.000876	-0.001116				-90.331075	-0.908458	-42.875464
00035	2205074	0.166159	-9.799170	-0.102752				-0.005397	0.002194	-0.001958				-90.330668	-0.908270	-42.875848
00036	2205124	0.171059	-9.790368	-0.100131				-0.004358	0.001730	-0.001709				-90.331908	-0.908761	-42.876336
00037	2205174	0.157514	-9.794225	-0.107226				-0.003214	0.001070	-0.001648				-90.330862	-0.908473	-42.876404
00038	2205224	0.173922	-9.768567	-0.112150				-0.003774	-0.002624	-0.000740				-90.331947	-0.908680	-42.875642
00039	2205274	0.167229	-9.787250	-0.105353				-0.003255	0.001229	-0.002709				-90.330911	-0.908712	-42.875747
00040	2205324	0.175106	-9.802472	-0.096309				-0.003004	-0.002546	0.000668				-90.331794	-0.908516	-42.875020
00041	2205374	0.171955	-9.804857	-0.098654				-0.002731	-0.001219	-0.002851				-90.330615	-0.908571	-42.874458
00042	2205424	0.157088	-9.767417	-0.092456				-0.005767	0.001866	-0.000547				-90.332264	-0.908734	-42.874997
00043	2205474	0.176890	-9.797655	-0.100400				-0.004606	-0.000937	-0.004996				-90.331615	-0.909400	-42.874477
00044	2205524	0.160965	-9.794755	-0.100372				-0.004912	0.002503	0.001888				-90.333008	-0.908864	-42.875193
00045	2205574	0.154538	-9.780539	-0.105087				-0.005580	0.002868	-0.002791				-90.332646	-0.908910	-42.875808
00046	2205624	0.161494	-9.771842	-0.094123				-0.004105	0.000827	-0.001810				-90.333818	-0.909435	-42.876047
00047	2205674	0.172407	-9.792135	-0.092509				-0.005627	-0.000653	-0.000080				-90.333467	-0.908694	-42.875585
00048	2205724	0.161777	-9.798574	-0.098309				-0.000237	-0.000715	0.000542				-90.333538	-0.908541	-42.875375
00049	2205774	0.160586	-9.777931	-0.115502				-0.008037	-0.001707	-0.004573				-90.333887	-0.909093	-42.874624
00050	2205824	0.156958	-9.779473	-0.110386				-0.004666	0.003271	-0.002725				-90.335206	-0.909874	-42.875554
00051	2205874	0.160647	-9.791551	-0.077854				-0.004762	0.000364	-0.002225				-90.334618	-0.909754	-42.875450
00052	2205924	0.161673	-9.783523	-0.090576				-0.007328	-0.000788	-0.004539				-90.336729	-0.911053	-42.875225
00053	2205974	0.160313	-9.780422	-0.107803				-0.006179	0.004601	-0.003324				-90.336505	-0.911260	-42.876268
00054	2206024	0.157086	-9.807776	-0.090401				-0.001409	0.002816	-0.001518				-90.336887	-0.911697	-42.877068
00055	2206074	0.179518	-9.794172	-0.092722				-0.002410	0.002123	-0.000014				-90.335605	-0.910947	-42.877450
00056	2206124	0.178594	-9.792409	-0.100086				-0.002858	0.002380	0.002749				-90.336428	-0.910168	-42.878140
00057	2206174	0.169918	-9.774700	-0.102289				-0.002639	0.002211	-0.001807				-90.335194	-0.909925	-42.878519
00058	2206224	0.163602	-9.787182	-0.097638				-0.003219	0.002301	-0.001135				-90.336119	-0.910256	-42.879189
00059	2206274	0.179933	-9.798003	-0.105626				-0.001469	0.002848	0.000565				-90.334567	-0.909343	-42.879755
00060	2206324	0.166884	-9.797763	-0.116082				0.000250	-0.000997	0.000700				-90.334503	-0.909139	-42.879470
00061	2206374	0.167521	-9.797888	-0.092012				-0.006227	0.004216	-0.001243				-90.334300	-0.908741	-42.880430
00062	2206424	0.164135	-9.793474	-0.104628				-0.002933	0.002498	-0.000618				-90.335114	-0.908918	-42.881131
00063	2206474	0.172314	-9.810537	-0.114476				-0.004008	-0.000270	-0.002591				-90.334330	-0.908911	-42.880812
00064	2206524	0.158630	-9.787437	-0.100262				-0.002784	0.000492	-0.003035				-90.335115	-0.909781	-42.880941
00065	2206574	0.163525	-9.790206	-0.101569				-0.004176	-0.000813	0.001422				-90.334372	-0.908617	-42.880491
00066	2206624	0.165574	-9.789961	-0.100125				-0.004903	0.002786	-0.001895				-90.335765	-0.909166	-42.881289
00067	2206674	0.146427	-9.780132	-0.091246				-0.001876	-0.000013	-0.004071				-90.334330	-0.909568	-42.881033
00068	2206724	0.148457	-9.786929	-0.110709				0.000178	0.000124	-0.002369				-90.334273	-0.910248	-42.881063
00069	2206774	0.157941	-9.785663	-0.123323				-0.002751	0.000792	0.000692				-90.333096	-0.909290	-42.881037
00070	2206824	0.146761	-9.798155	-0.091670				-0.005776	0.005327	-0.000884				-90.334726	-0.909551	-42.882569
00071	2206874	0.166140	-9.789204	-0.087404				-0.003368	-0.000194	-0.000887				-90.333735	-0.909050	-42.882247
00072	2206924	0.168256	-9.793937	-0.117583				-0.003186	0.000298	0.000237				-90.334645	-0.908985	-42.882330
00073	2206974	0.169050	-9.802589	-0.109254				-0.004911	0.000107	0.000817				-90.334105	-0.907997	-42.882141
00074	2207024	0.176940	-9.800099	-0.095297				-0.000643	0.000460	-0.005640				-90.334297	-0.909612	-42.882273
00075	2207074	0.174346	-9.797600	-0.090113				-0.004748	-0.003127	-0.000452				-90.333696	-0.908973	-42.881128
00076	2207124	0.156815	-9.782822	-0.093382				-0.004846	0.000103	0.000269				-90.335086	-0.908894	-42.881165
00077	2207174	0.169736	-9.784588	-0.091718				-0.003593	0.002903	-0.002701				-90.334142	-0.908917	-42.881722
00078	2207224	0.154091	-9.793052	-0.093755				-0.002743	0.000406	-0.000308				-90.334927	-0.909005	-42.881842
00079	2207274	0.174232	-9.805177	-0.090761				-0.002892	0.001142	-0.000082				-90.333803	-0.908270	-42.881934
00080	2207324	0.165665	-9.785984	-0.096692				-0.001343	-0.000095	0.001226				-90.334190	-0.907918	-42.881911
00081	2207374	0.144846	-9.766210	-0.088074				-0.004998	-0.000088	0.001332				-90.333636	-0.906778	-42.881662
00082	2207424	0.168036	-9.783992	-0.100889				-0.005708	0.001191	0.000958				-90.335260	-0.906505	-42.882002
00083	2207474	0.170282	-9.806063	-0.098465				-0.006271	-0.002769	-0.003012				-90.335125	-0.906599	-42.880976
00084	2207524	0.162086	-9.783119	-0.100621				-0.007176	0.001975	0.000897				-90.337167	-0.906350	-42.881534
00085	2207574	0.159579	-9.791896	-0.102796				-0.005063	0.001881	0.000027				-90.336662	-0.905585	-42.881854
00086	2207624	0.150549	-9.786465	-0.108367				-0.003061	0.001335	-0.000945				-90.337536	-0.905856	-42.882239
00087	2207674	0.157556	-9.779037	-0.091998				-0.005095	-0.001422	-0.002234				-90.337023	-0.905733	-42.881565
00088	2207724	0.156051	-9.799041	-0.088548				-0.004838	0.001784	-0.002059				-90.338410	-0.906330	-42.882075
00089	2207774	0.140263	-9.778290	-0.108620				-0.003667	0.000121	-0.003452				-90.337499	-0.906563	-42.881873
00090	2207824	0.149117	-9.787387	-0.111184				-0.001268	0.001528	-0.000370				-90.337851	-0.906669	-42.882311
00091	2207874	0.162497	-9.788863	-0.097293				-0.005901	0.001695	-0.004141				-90.337588	-0.907097	-42.882571
00092	2207924	0.179715	-9.817029	-0.102607				-0.007019	0.000844	-0.000522				-90.339600	-0.907247	-42.882808
00093	2207974	0.172018	-9.790049	-0.104880				-0.003499	-0.001136	-0.001884				-90.338641	-0.907028	-42.882248
00094	2208024	0.157035	-9.779841	-0.102031				-0.005018	-0.000512	0.000176				-90.340081	-0.906978	-42.882095
00095	2208074	0.162082	-9.792434	-0.111773				-0.002877	0.000522	-0.002266				-90.338920	-0.906869	-42.881980
00096	2208124	0.159580	-9.785442	-0.105744				-0.000392	-0.000011	-0.001856				-90.339039	-0.907403	-42.881979
00097	2208174	0.173717	-9.810352	-0.094198				-0.007049	-0.000587	-0.004795				-90.339098	-0.908023	-42.881567
00098	2208224	0.163282	-9.799746	-0.098289				-0.001324	0.000133	-0.000089				-90.339484	-0.908050	-42.881612
00099	2208274	0.176343	-9.793665	-0.097490				-0.002661	-0.001415	-0.004142				-90.338294	-0.908464	-42.880940
00100	2208324	0.172549	-9.767499	-0.090030				-0.002798	0.002342	-0.000109				-90.339076	-0.908497	-42.881609
00101	2208374	0.164914	-9.780477	-0.100566				-0.002996	-0.000706	-0.000152				-90.337997	-0.907787	-42.881178
00102	2208424	0.192167	-9.808846	-0.100483				-0.004903	-0.000219	-0.000020				-90.339394	-0.907791	-42.881106
00103	2208474	0.181705	-9.797071	-0.087182				-0.002659	-0.000016	0.000170				-90.338189	-0.906983	-42.880847
00104	2208524	0.162091	-9.784279	-0.102083				-0.006419	0.001210	0.000862				-90.340036	-0.906737	-42.881206
00105	2208574	0.181600	-9.789691	-0.104810				-0.005643	0.000632	-0.003668				-90.339684	-0.907026	-42.881095
00106	2208624	0.161278	-9.804428	-0.103905				-0.005060	0.001586	-0.002831				-90.341130	-0.907836	-42.881548
00107	2208674	0.149723	-9.802965	-0.100759				-0.004862	0.002724	0.000222				-90.340551	-0.907032	-42.882095
00108	2208724	0.169322	-9.809076	-0.088587				-0.003498	0.001933	-0.003283				-90.341543	-0.907979	-42.882644
00109	2208774	0.160967	-9.791155	-0.087779				-0.001790	0.000839	-0.000082				-90.340092	-0.907238	-42.882612
00110	2208824	0.159906	-9.782379	-0.088833				-0.005068	0.003042	-0.001922				-90.341537	-0.907796	-42.883478
00111	2208874	0.173034	-9.795017	-0.104929				-0.005425	-0.001004	-0.000665				-90.341133	-0.907221	-42.882914
00112	2208924	0.158983	-9.812926	-0.124045				-0.003987	0.001513	0.001756				-90.342272	-0.906721	-42.883354
00113	2208974	0.174404	-9.808169	-0.097026				-0.002407	0.000366	-0.005760				-90.340996	-0.907605	-42.883210
00114	2209024	0.177510	-9.801982	-0.110891				-0.002369	0.003030	0.002013				-90.341662	-0.907033	-42.884082
00115	2209074	0.166761	-9.791124	-0.100817				-0.003132	0.001555	-0.002196				-90.340609	-0.906912	-42.884237
00116	2209124	0.185155	-9.797807	-0.098785				-0.003606	-0.001682	-0.000226				-90.341650	-0.906977	-42.883753
00117	2209174	0.182924	-9.792679	-0.094651				-0.005185	0.000616	-0.001073				-90.341152	-0.906521	-42.883675
00118	2209224	0.178932	-9.789605	-0.097277				-0.003868	0.003184	-0.004429				-90.342234	-0.907796	-42.884571
00119	2209274	0.175653	-9.787630	-0.089340				-0.003429	-0.000095	-0.000694				-90.341279	-0.907229	-42.884310
00120	2209324	0.173405	-9.794147	-0.099373				-0.001590	0.001487	-0.001144				-90.341721	-0.907559	-42.884733
00121	2209374	0.183804	-9.803066	-0.096775				-0.002293	0.003416	-0.001421				-90.340384	-0.907211	-42.885426
00122	2209424	0.179468	-9.784833	-0.098153				-0.000104	-0.000711	0.001507				-90.340419	-0.906782	-42.885223
00123	2209474	0.184394	-9.792042	-0.104270				-0.004296	-0.001308	-0.002145				-90.339707	-0.906620	-42.884618
00124	2209524	0.163092	-9.792023	-0.091581				-0.006948	0.000682	-0.000262				-90.341703	-0.906696	-42.884818
00125	2209574	0.187988	-9.808229	-0.113109				-0.003435	-0.003073	-0.000009				-90.340736	-0.905942	-42.883694
00126	2209624	0.164442	-9.795562	-0.123146				-0.004472	0.002010	-0.006165				-90.342002	-0.907714	-42.884253
00127	2209674	0.151629	-9.801105	-0.096689				-0.003345	0.001066	-0.002550				-90.340995	-0.907679	-42.884305
00128	2209724	0.166581	-9.776318	-0.091930				-0.002500	-0.000477	-0.004387				-90.341716	-0.908935	-42.884165
00129	2209774	0.163653	-9.773551	-0.104418				-0.003114	0.003241	0.000127				-90.340634	-0.908151	-42.884850
00130	2209824	0.159654	-9.811921	-0.096228				-0.005387	0.001836	-0.002927				-90.342165	-0.908993	-42.885368
00131	2209874	0.170853	-9.801485	-0.071863				-0.004411	0.001330	-0.003920				-90.341490	-0.909357	-42.885546
00132	2209924	0.145651	-9.792169	-0.096604				-0.009550	-0.000510	-0.005358				-90.344231	-0.910892	-42.885387
00133	2209974	0.169020	-9.787813	-0.083311				-0.004178	-0.000057	-0.003576				-90.343451	-0.911152	-42.885126
00134	2210024	0.170605	-9.797583	-0.094577				-0.002986	-0.001102	-0.001468				-90.344308	-0.911567	-42.884812
00135	2210074	0.193856	-9.837634	-0.123987				-0.003901	0.003771	0.001255				-90.343439	-0.910460	-42.885642
00136	2210124	0.169082	-9.794782	-0.123790				-0.002821	-0.001227	-0.001276				-90.344249	-0.910824	-42.885281
00137	2210174	0.167146	-9.781853	-0.102308				-0.004997	-0.001557	-0.002649				-90.343750	-0.910823	-42.884602
00138	2210224	0.183228	-9.797029	-0.089238				-0.006507	0.002778	-0.002849				-90.345601	-0.911647	-42.885393
00139	2210274	0.174565	-9.827307	-0.101858				-0.005780	-0.003054	-0.001247				-90.345287	-0.911223	-42.884265
00140	2210324	0.150830	-9.802150	-0.121763				-0.000567	0.001269	-0.002038				-90.345447	-0.911806	-42.884629
00141	2210374	0.161618	-9.783893	-0.097020				-0.005522	-0.000916	-0.001201				-90.345069	-0.911394	-42.884148
00142	2210424	0.171952	-9.777064	-0.116421				-0.003888	0.000046	-0.003001				-90.346178	-0.912251	-42.884154
00143	2210474	0.178662	-9.796311	-0.092968				-0.003324	0.002641	-0.001381				-90.345162	-0.911890	-42.884662
00144	2210524	0.180445	-9.797828	-0.101216				-0.006711	0.000126	-0.002605				-90.347080	-0.912636	-42.884693
00145	2210574	0.157538	-9.795738	-0.101466				-0.003590	0.001834	-0.001960				-90.346175	-0.912447	-42.884964
00146	2210624	0.155369	-9.784370	-0.117596				-0.005890	0.000334	-0.002540				-90.347862	-0.913170	-42.885053
00147	2210674	0.174628	-9.797508	-0.095873				-0.004672	0.001657	-0.000358				-90.347224	-0.912521	-42.885284
00148	2210724	0.155447	-9.771667	-0.095021				-0.004006	0.004188	0.001036				-90.348349	-0.912228	-42.886490
00149	2210774	0.175678	-9.796156	-0.121008				-0.001559	0.001747	0.001946				-90.346834	-0.910908	-42.886729
00150	2210824	0.178676	-9.812316	-0.101288				-0.001283	0.001711	-0.000591				-90.347198	-0.911089	-42.887213
00151	2210874	0.155926	-9.798834	-0.101275				-0.003318	0.001287	-0.001837				-90.346170	-0.910846	-42.887340
00152	2210924	0.163340	-9.790967	-0.113976				-0.004599	0.000904	-0.004400				-90.347493	-0.912113	-42.887596
00153	2210974	0.163714	-9.792111	-0.116134				-0.002086	0.003091	0.000353				-90.346100	-0.911256	-42.888246
00154	2211024	0.170652	-9.799882	-0.098955				-0.004029	0.001600	-0.000294				-90.347245	-0.911341	-42.888708
00155	2211074	0.180005	-9.797711	-0.093649				-0.002885	0.000414	-0.004829				-90.346119	-0.911968	-42.888545
00156	2211124	0.170204	-9.798066	-0.109441				-0.002667	-0.000123	-0.001398				-90.346891	-0.912370	-42.888513
00157	2211174	0.170411	-9.803716	-0.112356				-0.005820	0.000107	-0.004499				-90.346599	-0.912892	-42.888307
00158	2211224	0.155823	-9.796034	-0.098869				-0.003425	0.001670	-0.002059				-90.347576	-0.913485	-42.888787
00159	2211274	0.178960	-9.797882	-0.083408				-0.004201	0.001460	-0.005233				-90.346814	-0.914224	-42.888947
00160	2211324	0.173900	-9.795399	-0.094645				-0.003853	-0.000081	-0.001781				-90.347913	-0.914730	-42.888917
00161	2211374	0.189330	-9.802631	-0.105447				-0.002296	-0.000731	-0.001373				-90.346624	-0.914374	-42.888445
00162	2211424	0.176743	-9.790705	-0.104684				-0.004653	0.000037	-0.000491				-90.347947	-0.914513	-42.888451
00163	2211474	0.171566	-9.811556	-0.110428				-0.004152	-0.000861	-0.001079				-90.347179	-0.914058	-42.887929
00164	2211524	0.176939	-9.807575	-0.102792				-0.002871	-0.000808	-0.001401				-90.348000	-0.914456	-42.887695
00165	2211574	0.166118	-9.787040	-0.104652				-0.003792	0.002646	0.003529				-90.347131	-0.912695	-42.888230
00166	2211624	0.162058	-9.787936	-0.080927				-0.004712	0.003850	-0.000985				-90.348468	-0.912981	-42.889331
00167	2211674	0.166533	-9.800640	-0.098887				-0.003092	-0.000579	0.001647				-90.347398	-0.911755	-42.888943
00168	2211724	0.180293	-9.794293	-0.099430				-0.002523	0.001561	0.000441				-90.348122	-0.911633	-42.889402
00169	2211774	0.163349	-9.787803	-0.103691				-0.005832	0.003960	-0.000855				-90.347806	-0.911117	-42.890274
00170	2211824	0.170890	-9.787032	-0.085728				-0.002816	0.003652	-0.003429				-90.348588	-0.912103	-42.891310
00171	2211874	0.173163	-9.786658	-0.092966				-0.006237	-0.001973	-0.004064				-90.348431	-0.912501	-42.890501
00172	2211924	0.155723	-9.789536	-0.089294				-0.003871	0.002540	-0.002053				-90.349525	-0.913095	-42.891229
00173	2211974	0.159801	-9.803216	-0.122455				-0.005330	-0.001618	0.002675				-90.349112	-0.911566	-42.890533
00174	2212024	0.181409	-9.800419	-0.101765				-0.001773	-0.001212	-0.002466				-90.349627	-0.912277	-42.890187
00175	2212074	0.154890	-9.784424	-0.114438				-0.004832	-0.001687	-0.004128				-90.349055	-0.912692	-42.889440
00176	2212124	0.140189	-9.775983	-0.104451				-0.000563	0.001242	-0.002450				-90.349202	-0.913396	-42.889792
00177	2212174	0.157747	-9.806744	-0.095215				-0.000906	-0.001426	-0.006126				-90.347527	-0.914388	-42.889116
00178	2212224	0.156990	-9.794657	-0.094952				-0.001371	0.003748	-0.001413				-90.347904	-0.914803	-42.890190
00179	2212274	0.171888	-9.783620	-0.106515				-0.001171	-0.000803	-0.001054				-90.346280	-0.914340	-42.889678
00180	2212324	0.166436	-9.784196	-0.104419				-0.001912	-0.001627	-0.000642				-90.346838	-0.914519	-42.889210
00181	2212374	0.167549	-9.772985	-0.107754				-0.001190	-0.001328	-0.002658				-90.345203	-0.914522	-42.888588
00182	2212424	0.185171	-9.790389	-0.118154				-0.001906	0.001281	-0.000110				-90.345737	-0.914549	-42.888958
00183	2212474	0.173644	-9.784369	-0.086489				-0.005384	-0.000972	0.001238				-90.345334	-0.913434	-42.888443
00184	2212524	0.171014	-9.786446	-0.108049				-0.002757	-0.000282	-0.001203				-90.346117	-0.913775	-42.888357
00185	2212574	0.182938	-9.811759	-0.103508				-0.003364	-0.000165	0.001520				-90.345148	-0.912586	-42.888111
00186	2212624	0.172196	-9.791704	-0.089637				-0.003791	0.000955	-0.003252				-90.346237	-0.913517	-42.888382
00187	2212674	0.160396	-9.793201	-0.109933				-0.005023	-0.001687	-0.001751				-90.345704	-0.913248	-42.887651
00188	2212724	0.181570	-9.803275	-0.085048				-0.003167	0.003815	-0.001312				-90.346603	-0.913630	-42.888745
00189	2212774	0.156644	-9.798685	-0.095641				-0.008630	0.000833	-0.004166				-90.347121	-0.914070	-42.888746
00190	2212824	0.170258	-9.795957	-0.092237				-0.005466	-0.001688	0.000109				-90.348697	-0.914032	-42.888273
00191	2212874	0.178724	-9.806418	-0.098950				-0.003163	-0.000121	0.003994				-90.347631	-0.912134	-42.887967
00192	2212924	0.164067	-9.797527	-0.103258				-0.004028	0.002241	-0.003918				-90.348775	-0.913263	-42.888601
00193	2212974	0.164830	-9.795885	-0.101216				-0.002353	0.001375	0.000471				-90.347503	-0.912366	-42.888744
00194	2213024	0.151251	-9.775969	-0.096524				-0.006240	0.001596	0.001156				-90.349277	-0.912032	-42.889210
00195	2213074	0.159021	-9.781854	-0.092929				-0.006380	-0.000321	-0.002866				-90.349163	-0.912094	-42.888865
00196	2213124	0.154243	-9.780177	-0.097933				-0.006334	-0.001807	-0.002839				-90.350985	-0.912903	-42.888345
00197	2213174	0.161178	-9.795732	-0.083333				-0.002991	0.002298	-0.000001				-90.349869	-0.912145	-42.888722
00198	2213224	0.162695	-9.795356	-0.091247				-0.006048	-0.000636	-0.001424				-90.351595	-0.912551	-42.888536
00199	2213274	0.163147	-9.809376	-0.104673				-0.006028	0.001954	0.000452				-90.351369	-0.911664	-42.888861
00200	2213324	0.170361	-9.786069	-0.087658				-0.003348	0.002457	0.000509				-90.352312	-0.911521	-42.889568
00201	2213374	0.182669	-9.806145	-0.113791				-0.003827	0.002480	0.000541				-90.351442	-0.910608	-42.889994
00202	2213424	0.162472	-9.785315	-0.111854				-0.004683	0.002877	-0.001796				-90.352777	-0.911120	-42.890822
00203	2213474	0.160424	-9.788127	-0.116092				-0.003356	-0.000652	-0.001299				-90.351775	-0.910738	-42.890403
00204	2213524	0.181481	-9.807669	-0.108340				-0.004874	-0.002326	-0.000732				-90.353174	-0.910946	-42.889729
00205	2213574	0.179204	-9.796169	-0.102141				-0.004400	-0.004227	-0.001837				-90.352485	-0.910696	-42.888270
00206	2213624	0.159988	-9.797415	-0.098626				-0.003632	0.000756	-0.005114				-90.353527	-0.912162	-42.888487
00207	2213674	0.176309	-9.793312	-0.104920				-0.001621	0.000319	-0.001400				-90.352042	-0.911804	-42.888322
00208	2213724	0.176783	-9.792953	-0.097042				-0.005321	-0.002306	-0.001919				-90.353582	-0.912351	-42.887665
00209	2213774	0.155058	-9.794447	-0.094479				-0.002371	0.001051	0.001434				-90.352285	-0.911175	-42.887713
00210	2213824	0.148399	-9.796601	-0.114144				-0.005860	0.000561	-0.002159				-90.353965	-0.911797	-42.887870
00211	2213874	0.171304	-9.809985	-0.104622				-0.002167	0.003510	-0.000452				-90.352602	-0.911175	-42.888631
00212	2213924	0.154096	-9.793531	-0.093553				-0.001583	0.001189	-0.000556				-90.353045	-0.911336	-42.888961
00213	2213974	0.175416	-9.780880	-0.112127				-0.003325	0.003813	0.000612				-90.352022	-0.910399	-42.889804
00214	2214024	0.168896	-9.793502	-0.098994				-0.007273	-0.000301	-0.001454				-90.354110	-0.910813	-42.889716
00215	2214074	0.143740	-9.777127	-0.104277				-0.002766	-0.002841	-0.000288				-90.352968	-0.910134	-42.888624
00216	2214124	0.162106	-9.802270	-0.089475				-0.003071	0.000448	-0.003383				-90.353854	-0.911105	-42.888747
00217	2214174	0.154471	-9.791066	-0.114857				-0.001913	0.002312	-0.003183				-90.352427	-0.911257	-42.889170
00218	2214224	0.169413	-9.797894	-0.090243				-0.000825	-0.001644	-0.001926				-90.352667	-0.911805	-42.888691
00219	2214274	0.162241	-9.796359	-0.103410				-0.002529	-0.002246	0.001705				-90.351454	-0.910550	-42.887816
00220	2214324	0.190775	-9.818694	-0.092946				-0.002016	-0.000238	0.000391				-90.352032	-0.910436	-42.887751
00221	2214374	0.175737	-9.817810	-0.101411				-0.005768	0.000495	-0.002834				-90.351712	-0.910490	-42.887640
00222	2214424	0.176182	-9.791674	-0.088125				-0.001856	0.001802	-0.000491				-90.352242	-0.910637	-42.888160
00223	2214474	0.176977	-9.780096	-0.100227				-0.005318	0.001372	-0.005589				-90.351797	-0.911478	-42.888298
00224	2214524	0.170607	-9.781850	-0.098954				-0.005373	0.001612	0.000095				-90.353334	-0.911459	-42.888760
00225	2214574	0.176098	-9.810994	-0.081729				-0.004993	0.001748	0.001052				-90.352803	-0.910393	-42.889019
00226	2214624	0.156451	-9.796689	-0.117473				-0.000148	-0.000562	-0.000955				-90.352840	-0.910667	-42.888856
00227	2214674	0.148176	-9.783451	-0.106043				-0.003175	-0.000361	-0.003319				-90.351812	-0.910856	-42.888504
00228	2214724	0.186487	-9.783887	-0.108440				-0.006806	0.001129	-0.001001				-90.353759	-0.911142	-42.888822
00229	2214774	0.156006	-9.790613	-0.096648				-0.002059	-0.001081	-0.000537				-90.352382	-0.910537	-42.888245
00230	2214824	0.160397	-9.796710	-0.097198				-0.003821	0.002024	-0.001091				-90.353470	-0.910856	-42.888824
00231	2214874	0.169695	-9.805558	-0.085309				-0.004170	0.000816	-0.002321				-90.352706	-0.910757	-42.888791
00232	2214924	0.152809	-9.796089	-0.113444				-0.004029	0.003603	-0.001724				-90.353850	-0.911258	-42.889825
00233	2214974	0.163672	-9.793685	-0.106598				-0.004277	0.002341	-0.000160				-90.353092	-0.910552	-42.890255
00234	2215024	0.170026	-9.790204	-0.096273				-0.005292	0.000995	-0.000102				-90.354597	-0.910580	-42.890539
00235	2215074	0.177419	-9.798143	-0.098516				-0.003374	-0.000239	-0.004735				-90.353622	-0.911171	-42.890227
00236	2215124	0.161639	-9.798006	-0.089344				-0.003786	0.000351	0.003291				-90.354700	-0.910226	-42.890330
00237	2215174	0.170697	-9.786716	-0.091562				-0.005555	0.002088	-0.001861				-90.354335	-0.910013	-42.890685
00238	2215224	0.183893	-9.813533	-0.095177				-0.003933	-0.001695	-0.001019				-90.355475	-0.910300	-42.890204
00239	2215274	0.163967	-9.790805	-0.108365				-0.000472	0.000236	-0.001945				-90.353628	-0.910093	-42.890014
00240	2215324	0.166947	-9.795842	-0.117778				-0.002645	0.002431	-0.001480				-90.354375	-0.910524	-42.890710
00241	2215374	0.183717	-9.804494	-0.081510				-0.004721	0.001971	-0.003499				-90.353768	-0.910765	-42.890993
00242	2215424	0.183795	-9.798204	-0.104803				-0.005997	-0.002252	-0.001465				-90.355500	-0.911185	-42.890338
00243	2215474	0.182846	-9.795327	-0.108033				-0.004011	-0.000280	-0.002939				-90.354692	-0.911263	-42.890008
00244	2215524	0.183809	-9.810473	-0.124757				-0.006703	0.000001	0.000052				-90.356607	-0.911243	-42.890011
00245	2215574	0.162690	-9.790145	-0.106083				-0.005969	0.000208	0.000635				-90.356357	-0.910298	-42.889829
00246	2215624	0.184141	-9.788068	-0.100452				-0.005015	0.001124	-0.003441				-90.357789	-0.911285	-42.890140
00247	2215674	0.156331	-9.800313	-0.097604				-0.002959	0.000265	0.000596				-90.356691	-0.910358	-42.889968
00248	2215724	0.149935	-9.779629	-0.090410				-0.002005	0.001016	-0.004278				-90.357262	-0.911587	-42.890255
00249	2215774	0.181453	-9.794653	-0.121798				-0.004541	0.002430	-0.001797				-90.356586	-0.911340	-42.890718
00250	2215824	0.174333	-9.787841	-0.107939				-0.006811	-0.000740	0.000086				-90.358536	-0.911312	-42.890512
00251	2215874	0.155204	-9.792598	-0.106746				-0.002760	0.001514	-0.005686				-90.357350	-0.912183	-42.890662
00252	2215924	0.160292	-9.809767	-0.081673				-0.004241	-0.000350	-0.004859				-90.358558	-0.913577	-42.890554
00253	2215974	0.167284	-9.783794	-0.098957				-0.004939	-0.005334	-0.000392				-90.358062	-0.912916	-42.888792
00254	2216024	0.182405	-9.788866	-0.112035				-0.008260	0.005054	0.002138				-90.360407	-0.912313	-42.890251
00255	2216074	0.167603	-9.797251	-0.103211				-0.003470	0.003931	-0.003844				-90.359414	-0.912651	-42.891133
00256	2216124	0.187719	-9.792054	-0.115971				-0.000722	0.002697	0.002202				-90.359601	-0.912028	-42.891907
00257	2216174	0.144805	-9.785515	-0.097865				-0.004214	0.002306	-0.002661				-90.358855	-0.912032	-42.892339
00258	2216224	0.158309	-9.791531	-0.080794				-0.000129	-0.000274	-0.001759				-90.358895	-0.912532	-42.892256
00259	2216274	0.167260	-9.797889	-0.092549				-0.006799	-0.001229	-0.002323				-90.358888	-0.912439	-42.891633
00260	2216324	0.149114	-9.780353	-0.106031				-0.004655	-0.001198	-0.002905				-90.360241	-0.913267	-42.891293
00261	2216374	0.149138	-9.776645	-0.084594				-0.001273	-0.002882	-0.003790				-90.358659	-0.913586	-42.890227
00262	2216424	0.166276	-9.775498	-0.084302				-0.004160	-0.001673	-0.003552				-90.359869	-0.914601	-42.889748
00263	2216474	0.156169	-9.773280	-0.113013				-0.004993	0.001711	-0.002119				-90.359306	-0.914451	-42.889958
00264	2216524	0.165945	-9.786196	-0.098155				-0.003110	0.001037	0.000727				-90.360185	-0.914245	-42.890259
00265	2216574	0.153776	-9.785453	-0.094501				-0.003296	-0.001690	-0.003297				-90.359190	-0.914427	-42.889517
00266	2216624	0.167092	-9.791586	-0.101148				-0.005151	0.002318	-0.003012				-90.360656	-0.915295	-42.890174
00267	2216674	0.141313	-9.781665	-0.120039				-0.002056	-0.001409	-0.003330				-90.359297	-0.915483	-42.889512
00268	2216724	0.175700	-9.776834	-0.112687				-0.007064	-0.001109	-0.002643				-90.361323	-0.916233	-42.889187
00269	2216774	0.172374	-9.791622	-0.110212				-0.005112	0.000186	-0.002802				-90.360826	-0.916277	-42.888990
00270	2216824	0.178589	-9.783171	-0.099429				-0.003939	-0.001343	-0.001724				-90.361960	-0.916766	-42.888600
00271	2216874	0.162889	-9.785815	-0.094618				-0.004448	0.003593	-0.003459				-90.361257	-0.916998	-42.889384
00272	2216924	0.159850	-9.774106	-0.102524				-0.003943	0.001154	0.001820				-90.362373	-0.916484	-42.889708
00273	2216974	0.174572	-9.793807	-0.105123				-0.004375	-0.000502	0.000978				-90.361685	-0.915435	-42.889336
00274	2217024	0.163093	-9.804923	-0.100998				-0.001542	-0.001042	0.000422				-90.362129	-0.915313	-42.889045
00275	2217074	0.184010	-9.797905	-0.109016				-0.002433	0.004894	-0.001080				-90.360873	-0.914869	-42.890195
00276	2217124	0.174731	-9.792196	-0.101906				-0.006066	-0.000319	-0.004531				-90.362613	-0.916166	-42.890094
00277	2217174	0.172408	-9.796359	-0.095376				-0.007171	0.001776	0.000421				-90.362694	-0.915287	-42.890323
00278	2217224	0.156422	-9.793886	-0.115196				-0.006227	0.002010	-0.002788				-90.364478	-0.916089	-42.890893
00279	2217274	0.160964	-9.786507	-0.097552				-0.005925	-0.001474	-0.002134				-90.364220	-0.915937	-42.890241
00280	2217324	0.166704	-9.775488	-0.130567				-0.003874	0.001797	-0.000583				-90.365319	-0.916109	-42.890757
00281	2217374	0.156722	-9.785646	-0.110582				-0.004160	0.002665	-0.001217				-90.364553	-0.915698	-42.891285
00282	2217424	0.153330	-9.796643	-0.122943				-0.000628	0.001533	0.000884				-90.364717	-0.915444	-42.891724
00283	2217474	0.185320	-9.806152	-0.111233				-0.003756	0.001057	-0.000495				-90.363838	-0.914822	-42.891783
00284	2217524	0.139851	-9.778678	-0.098733				-0.002467	-0.000047	0.001942				-90.364548	-0.914268	-42.891774
00285	2217574	0.157646	-9.787066	-0.094716				-0.001161	0.004840	-0.004423				-90.362905	-0.914778	-42.892906
00286	2217624	0.168953	-9.786665	-0.111666				-0.006293	-0.001227	-0.004315				-90.364711	-0.916010	-42.892545
00287	2217674	0.169269	-9.799349	-0.103980				-0.004148	0.000173	-0.001235				-90.363931	-0.915602	-42.892319
00288	2217724	0.179295	-9.791686	-0.099928				-0.002000	0.000247	0.000332				-90.364507	-0.915511	-42.892389
00289	2217774	0.175801	-9.784724	-0.108775				-0.004689	0.003004	-0.002564				-90.363898	-0.915481	-42.893022
00290	2217824	0.168060	-9.775099	-0.108489				-0.004321	0.001460	-0.002605				-90.365137	-0.916228	-42.893439
00291	2217874	0.161121	-9.776417	-0.105461				-0.007246	-0.001236	-0.001296				-90.365253	-0.915836	-42.892832
00292	2217924	0.177305	-9.791611	-0.107217				-0.006560	0.001425	-0.002566				-90.367130	-0.916573	-42.893229
00293	2217974	0.189624	-9.794085	-0.090234				0.001749	-0.004321	-0.004356				-90.364684	-0.917044	-42.891725
00294	2218024	0.170796	-9.781829	-0.084879				-0.006653	0.001522	-0.002150				-90.366585	-0.917665	-42.892158
00295	2218074	0.189520	-9.809414	-0.096420				-0.004376	0.000533	0.001077				-90.365880	-0.916594	-42.892104
00296	2218124	0.165443	-9.804168	-0.117592				-0.003711	-0.000698	-0.003514				-90.366954	-0.917595	-42.891905
00297	2218174	0.176006	-9.815804	-0.092735				-0.004769	0.002722	-0.001184				-90.366337	-0.917167	-42.892426
00298	2218224	0.137924	-9.777929	-0.087171				-0.000174	0.000179	-0.001912				-90.366389	-0.917716	-42.892471
00299	2218274	0.161578	-9.781323	-0.094587				-0.003876	0.001861	-0.000199				-90.365539	-0.917018	-42.892794
00300	2218324	0.162263	-9.796249	-0.095067				-0.005357	-0.000041	-0.001645				-90.367078	-0.917492	-42.892781
00301	2218374	0.168740	-9.795414	-0.097966				-0.002518	0.001135	-0.002963				-90.365831	-0.917567	-42.892857
00302	2218424	0.159119	-9.797864	-0.084881				-0.001301	0.000189	-0.001688				-90.366207	-0.918047	-42.892906
00303	2218474	0.167345	-9.776695	-0.113303				-0.002894	0.001907	-0.003759				-90.365069	-0.918365	-42.893220
00304	2218524	0.168070	-9.778290	-0.101829				-0.005770	0.001890	-0.001957				-90.366721	-0.918932	-42.893764
00305	2218574	0.168382	-9.791086	-0.102114				-0.006115	-0.002412	-0.000056				-90.366518	-0.918175	-42.892823
00306	2218624	0.167698	-9.803571	-0.108528				-0.006360	-0.001938	-0.002714				-90.368349	-0.918949	-42.892267
00307	2218674	0.159977	-9.800003	-0.100090				-0.004033	0.004699	-0.002267				-90.367521	-0.918837	-42.893346
00308	2218724	0.177314	-9.774276	-0.108356				-0.004409	0.001332	-0.002061				-90.368784	-0.919430	-42.893731
00309	2218774	0.165815	-9.791651	-0.097973				-0.004723	0.001103	-0.001452				-90.368176	-0.919079	-42.893820
00310	2218824	0.180455	-9.800782	-0.094571				-0.001461	-0.001655	-0.001252				-90.368602	-0.919439	-42.893346
00311	2218874	0.177850	-9.806807	-0.090044				-0.003131	0.000420	-0.001395				-90.367551	-0.919067	-42.893250
00312	2218924	0.172567	-9.800716	-0.089025				-0.001518	0.000930	-0.002519				-90.367986	-0.919788	-42.893511
00313	2218974	0.176034	-9.795915	-0.090283				-0.001774	-0.002015	-0.000834				-90.366517	-0.919257	-42.892698
00314	2219024	0.161380	-9.781877	-0.104955				-0.005738	0.003225	0.001068				-90.368144	-0.918957	-42.893627
00315	2219074	0.161205	-9.792229	-0.095258				-0.003889	0.001248	-0.000010				-90.367309	-0.918196	-42.893747
00316	2219124	0.156704	-9.772404	-0.092337				-0.002320	-0.000926	-0.002394				-90.367970	-0.918877	-42.893470
00317	2219174	0.159151	-9.782780	-0.094103				-0.004701	0.001785	0.001250				-90.367358	-0.917757	-42.893724
00318	2219224	0.162061	-9.794891	-0.075221				-0.006140	-0.000504	0.000630				-90.369116	-0.917577	-42.893577
00319	2219274	0.163723	-9.791773	-0.076420				-0.005497	0.003580	0.000107				-90.368742	-0.916790	-42.894336
00320	2219324	0.163654	-9.811605	-0.098056				-0.008927	0.004651	0.000217				-90.371286	-0.916737	-42.895673
00321	2219374	0.159470	-9.783278	-0.092486				-0.008669	0.000127	-0.002149				-90.371811	-0.916585	-42.895463
00322	2219424	0.163460	-9.792577	-0.101982				-0.003488	-0.001468	-0.002174				-90.372815	-0.917206	-42.895036
00323	2219474	0.167429	-9.776836	-0.119104				-0.006618	-0.003041	-0.003231				-90.372769	-0.917354	-42.893912
00324	2219524	0.173191	-9.797401	-0.088297				-0.003052	0.002133	-0.000872				-90.373626	-0.917606	-42.894510
00325	2219574	0.153407	-9.788340	-0.107569				-0.007232	0.001579	-0.000828				-90.373746	-0.917082	-42.894708
00326	2219624	0.172654	-9.783072	-0.079807				-0.005420	0.004230	0.000013				-90.375283	-0.917086	-42.895923
00327	2219674	0.167344	-9.803061	-0.095534				-0.001792	0.000537	-0.002359				-90.373826	-0.917000	-42.895811
00328	2219724	0.180437	-9.773957	-0.110726				-0.004649	0.000813	-0.002322				-90.375160	-0.917668	-42.896038
00329	2219774	0.158815	-9.799610	-0.110938				-0.006983	0.002876	-0.000342				-90.375186	-0.917002	-42.896620
00330	2219824	0.174249	-9.798175	-0.098671				-0.002166	-0.003964	-0.001199				-90.375815	-0.917334	-42.895476
00331	2219874	0.179679	-9.800508	-0.097062				-0.003298	-0.001422	-0.000958				-90.374830	-0.916845	-42.894844
00332	2219924	0.191286	-9.784252	-0.111237				-0.002771	-0.000967	-0.002240				-90.375616	-0.917482	-42.894554
00333	2219974	0.168011	-9.784090	-0.094112				-0.005087	-0.002428	-0.001147				-90.375141	-0.917041	-42.893626
00334	2220024	0.145186	-9.776859	-0.105072				-0.005502	-0.000433	-0.001807				-90.376717	-0.917559	-42.893498
00335	2220074	0.170704	-9.795299	-0.088099				-0.002271	-0.000239	0.000814				-90.375422	-0.916562	-42.893172
00336	2220124	0.160625	-9.779854	-0.098196				-0.003503	0.002190	-0.000743				-90.376416	-0.916776	-42.893801
00337	2220174	0.163169	-9.783957	-0.107008				-0.002424	-0.000767	-0.001626				-90.375152	-0.916478	-42.893336
00338	2220224	0.161649	-9.790344	-0.094147				-0.007337	-0.000140	-0.001675				-90.377257	-0.916955	-42.893295
00339	2220274	0.177556	-9.788997	-0.092026				-0.004847	0.001234	0.001691				-90.376682	-0.915701	-42.893381
00340	2220324	0.145234	-9.782180	-0.098352				-0.003907	0.001760	-0.001477				-90.377797	-0.916125	-42.893886
00341	2220374	0.154458	-9.784339	-0.104574				-0.002306	0.003290	0.002409				-90.376483	-0.914682	-42.894588
00342	2220424	0.171895	-9.791900	-0.123628				-0.005458	0.000150	-0.000329				-90.378049	-0.914777	-42.894627
00343	2220474	0.171466	-9.782707	-0.104491				-0.004984	0.001354	-0.002284				-90.377507	-0.914666	-42.894784
00344	2220524	0.163982	-9.810657	-0.098159				-0.003471	-0.002273	-0.004324				-90.378513	-0.915901	-42.894126
00345	2220574	0.164241	-9.802444	-0.091468				-0.004460	0.003045	-0.002179				-90.377818	-0.915759	-42.894743
00346	2220624	0.164975	-9.783938	-0.091639				-0.001697	0.002767	-0.002858				-90.378298	-0.916586	-42.895537
00347	2220674	0.156156	-9.774410	-0.116529				-0.000171	-0.002886	0.000346				-90.376399	-0.915704	-42.894484
00348	2220724	0.152448	-9.794083	-0.104928				-0.008190	0.002696	0.000750				-90.378726	-0.915491	-42.895250
00349	2220774	0.155297	-9.794050	-0.089275				-0.002968	0.002492	-0.001638				-90.377620	-0.915211	-42.895693
00350	2220824	0.172559	-9.778736	-0.099677				-0.003199	-0.001494	-0.002012				-90.378545	-0.915782	-42.895258
00351	2220874	0.183842	-9.803369	-0.093188				-0.003093	0.002058	-0.005044				-90.377466	-0.916470	-42.895596
00352	2220924	0.158413	-9.781720	-0.086633				-0.003068	-0.000257	-0.000464				-90.378341	-0.916599	-42.895520
00353	2220974	0.168717	-9.791056	-0.104005				-0.004496	0.000808	-0.003566				-90.377659	-0.916855	-42.895496
00354	2221024	0.158889	-9.791594	-0.107480				-0.003531	-0.001169	-0.000086				-90.378679	-0.916880	-42.895162
00355	2221074	0.161132	-9.796897	-0.100217				-0.000642	-0.000250	-0.002497				-90.376918	-0.916827	-42.894823
00356	2221124	0.177638	-9.790599	-0.095401				-0.004456	0.000916	-0.000267				-90.378185	-0.916901	-42.895090
00357	2221174	0.177974	-9.802816	-0.102766				-0.002070	0.000676	0.002582				-90.376844	-0.915405	-42.895043
00358	2221224	0.169483	-9.796055	-0.117400				-0.005347	-0.000332	-0.000817				-90.378368	-0.915637	-42.894941
00359	2221274	0.158539	-9.798558	-0.102758				-0.004531	0.001201	-0.001418				-90.377695	-0.915272	-42.895052
00360	2221324	0.162177	-9.777740	-0.094910				0.000697	0.001364	0.000881				-90.377494	-0.915022	-42.895448
00361	2221374	0.161714	-9.780369	-0.094290				-0.003886	0.000346	0.001335				-90.376662	-0.913881	-42.895322
00362	2221424	0.167487	-9.792112	-0.097483				-0.004649	0.001776	-0.003272				-90.377993	-0.914824	-42.895830
00363	2221474	0.164268	-9.792830	-0.100356				-0.004666	0.004362	-0.004192				-90.377348	-0.915258	-42.896827
00364	2221524	0.166764	-9.790998	-0.093392				-0.003056	0.000969	-0.002895				-90.378210	-0.916090	-42.897087
00365	2221574	0.171315	-9.789537	-0.107781				-0.004277	0.001270	-0.001163				-90.377484	-0.915666	-42.897216
00366	2221624	0.156613	-9.777057	-0.113706				-0.001602	-0.000003	-0.000470				-90.377937	-0.915803	-42.897210
00367	2221674	0.165467	-9.786873	-0.100651				-0.007204	-0.000266	-0.000107				-90.378046	-0.915067	-42.896892
00368	2221724	0.179225	-9.813235	-0.103368				-0.007567	0.001790	-0.003555				-90.380221	-0.916087	-42.897411
00369	2221774	0.138404	-9.769980	-0.094595				0.000015	-0.000820	-0.002308				-90.378269	-0.915983	-42.896893
00370	2221824	0.160126	-9.783463	-0.095259				-0.002364	0.001825	0.000120				-90.378939	-0.915952	-42.897417
00371	2221874	0.174557	-9.800743	-0.101899				-0.006630	0.000544	-0.004177				-90.378883	-0.916388	-42.897327
00372	2221924	0.168654	-9.809266	-0.107512				-0.002268	0.001797	-0.000045				-90.379527	-0.916408	-42.897838
00373	2221974	0.174006	-9.790294	-0.087709				-0.004151	0.002470	-0.000065				-90.378732	-0.915655	-42.898306
00374	2222024	0.178351	-9.787242	-0.096995				-0.002580	0.001330	-0.002386				-90.379463	-0.916339	-42.898686
00375	2222074	0.173812	-9.802234	-0.097773				-0.005692	-0.001829	-0.003582				-90.379169	-0.916599	-42.897956
00376	2222124	0.165174	-9.791549	-0.105597				-0.004294	0.001687	-0.003597				-90.380384	-0.917631	-42.898420
00377	2222174	0.179581	-9.808587	-0.096657				-0.004759	0.000359	-0.000685				-90.379794	-0.917057	-42.898254
00378	2222224	0.173847	-9.783428	-0.102348				-0.005667	-0.000469	-0.001907				-90.381416	-0.917599	-42.898116
00379	2222274	0.164266	-9.788292	-0.117058				-0.002471	-0.000153	-0.002937				-90.380165	-0.917681	-42.897800
00380	2222324	0.167513	-9.801018	-0.089817				-0.004574	0.001593	-0.000677				-90.381473	-0.917882	-42.898252
00381	2222374	0.163578	-9.794220	-0.087125				-0.002905	0.001557	-0.000649				-90.380336	-0.917299	-42.898481
00382	2222424	0.167557	-9.795521	-0.107628				0.001530	0.001217	0.000136				-90.379885	-0.917260	-42.898824
00383	2222474	0.142912	-9.793369	-0.112778				-0.007300	0.002166	0.003666				-90.380018	-0.915443	-42.899206
00384	2222524	0.150883	-9.779783	-0.095256				-0.004754	0.001329	-0.001544				-90.381372	-0.915886	-42.899580
00385	2222574	0.169298	-9.794077	-0.091745				-0.004911	0.001295	0.000927				-90.380814	-0.914856	-42.899683
00386	2222624	0.155363	-9.808143	-0.113921				-0.002965	-0.000741	-0.002393				-90.381662	-0.915534	-42.899456
00387	2222674	0.161218	-9.788467	-0.093135				-0.002580	-0.000900	-0.003007				-90.380463	-0.915634	-42.898979
00388	2222724	0.162281	-9.808454	-0.088317				-0.004309	-0.001567	0.001937				-90.381708	-0.915075	-42.898541
00389	2222774	0.144236	-9.770714	-0.088733				-0.005558	-0.000690	-0.000527				-90.381365	-0.914463	-42.898099
00390	2222824	0.170884	-9.781144	-0.098470				-0.004113	0.000080	-0.001620				-90.382531	-0.914928	-42.898114
00391	2222874	0.160814	-9.793839	-0.098821				-0.001610	-0.003042	0.000063				-90.381056	-0.914141	-42.897018
00392	2222924	0.169769	-9.804287	-0.106401				-0.004569	0.001463	-0.000970				-90.382358	-0.914420	-42.897430
00393	2222974	0.169490	-9.764121	-0.095841				-0.003453	0.000738	0.000180				-90.381391	-0.913598	-42.897422
00394	2223024	0.162435	-9.780940	-0.087669				-0.004949	-0.000608	0.000950				-90.382817	-0.913325	-42.897252
00395	2223074	0.178635	-9.772023	-0.084140				-0.005092	0.001608	-0.003563				-90.382328	-0.913578	-42.897457
00396	2223124	0.176733	-9.804428	-0.107559				-0.002998	0.001263	-0.000879				-90.383178	-0.913833	-42.897812
00397	2223174	0.168983	-9.795753	-0.106870				-0.006240	0.001559	-0.001700				-90.382995	-0.913558	-42.898022
00398	2223224	0.178382	-9.782108	-0.107349				-0.004181	0.000204	-0.002353				-90.384192	-0.914228	-42.898075
00399	2223274	0.187702	-9.799125	-0.087899				-0.000155	-0.000270	-0.000929				-90.382300	-0.913730	-42.897706
00400	2223324	0.177415	-9.789705	-0.107155				-0.004260	0.003055	0.000259				-90.383505	-0.913662	-42.898584
00401	2223374	0.159186	-9.777065	-0.110924				-0.007251	-0.001816	0.000723				-90.383632	-0.912692	-42.897809
00402	2223424	0.169671	-9.799465	-0.096066				-0.003651	-0.002401	-0.001504				-90.384703	-0.913119	-42.897125
00403	2223474	0.153997	-9.783649	-0.088113				-0.003964	0.000498	-0.002258				-90.383863	-0.913002	-42.897040
00404	2223524	0.171639	-9.790140	-0.098708				-0.003735	0.001676	0.002013				-90.384931	-0.912429	-42.897528
00405	2223574	0.164642	-9.784038	-0.100619				-0.005093	0.000541	-0.003792				-90.384437	-0.912753	-42.897405
00406	2223624	0.147147	-9.784976	-0.099539				-0.002382	0.003243	-0.002374				-90.385105	-0.913439	-42.898331
00407	2223674	0.154865	-9.796803	-0.096005				-0.004714	0.002041	-0.001505				-90.384497	-0.913100	-42.898676
00408	2223724	0.149218	-9.776365	-0.102577				0.000214	0.001287	0.000525				-90.384430	-0.912955	-42.899041
00409	2223774	0.160307	-9.790140	-0.108703				-0.004029	0.002830	-0.000572				-90.383610	-0.912360	-42.899598
00410	2223824	0.142760	-9.768909	-0.099717				-0.003390	-0.003730	-0.004300				-90.384598	-0.913587	-42.898526
00411	2223874	0.175558	-9.786037	-0.100401				-0.003983	-0.000988	-0.001657				-90.383795	-0.913289	-42.897968
00412	2223924	0.142539	-9.793725	-0.105730				-0.005322	0.000765	-0.003244				-90.385309	-0.914217	-42.898183
00413	2223974	0.167233	-9.776998	-0.093278				-0.000629	-0.000536	0.000004				-90.383547	-0.913450	-42.897810
00414	2224024	0.178743	-9.800466	-0.085620				-0.007056	-0.000140	-0.003090				-90.385564	-0.914332	-42.897761
00415	2224074	0.161310	-9.791867	-0.118295				-0.004354	0.000918	0.000316				-90.384871	-0.913482	-42.897797
00416	2224124	0.158816	-9.786610	-0.092102				-0.004344	-0.002807	-0.002301				-90.386136	-0.914139	-42.896991
00417	2224174	0.165290	-9.783719	-0.105604				-0.002091	0.000048	-0.002428				-90.384765	-0.914064	-42.896739
00418	2224224	0.168286	-9.785981	-0.094636				-0.003491	-0.001333	-0.000919				-90.385772	-0.914326	-42.896352
00419	2224274	0.167932	-9.788191	-0.121394				-0.001086	0.003355	-0.006004				-90.384119	-0.915284	-42.897069
00420	2224324	0.173243	-9.783314	-0.079022				-0.001681	0.003353	-0.002989				-90.384589	-0.916148	-42.898028
00421	2224374	0.160327	-9.784813	-0.115668				-0.001699	-0.002305	-0.002310				-90.383137	-0.916040	-42.897118
00422	2224424	0.163903	-9.787497	-0.107715				-0.002183	0.000983	-0.001036				-90.383751	-0.916339	-42.897401
00423	2224474	0.159510	-9.786019	-0.114775				-0.007238	-0.000972	0.001948				-90.383867	-0.915002	-42.896868
00424	2224524	0.169756	-9.784578	-0.107292				-0.002066	-0.001694	0.001093				-90.384454	-0.914687	-42.896379
00425	2224574	0.159254	-9.794659	-0.108536				-0.006089	-0.001086	-0.000525				-90.384268	-0.914071	-42.895829
00426	2224624	0.163731	-9.789193	-0.105647				-0.005712	0.001954	-0.003365				-90.385896	-0.915042	-42.896392
00427	2224674	0.161469	-9.784263	-0.104177				-0.004864	0.000548	-0.002415				-90.385324	-0.914964	-42.896292
00428	2224724	0.157201	-9.786682	-0.104314				-0.003221	0.000551	0.000051				-90.386248	-0.914947	-42.896453
00429	2224774	0.158972	-9.783628	-0.100716				-0.001534	-0.001396	-0.002114				-90.384749	-0.914789	-42.895816
00430	2224824	0.138355	-9.785078	-0.069547				-0.004362	0.001175	0.000637				-90.385995	-0.914612	-42.896156
00431	2224874	0.164492	-9.791337	-0.088852				-0.003926	0.001670	0.000250				-90.385165	-0.913768	-42.896378
00432	2224924	0.156587	-9.780348	-0.100333				-0.004663	-0.001477	0.000560				-90.386500	-0.913606	-42.895956
00433	2224974	0.158320	-9.792605	-0.088061				-0.002092	0.003185	-0.002469				-90.385138	-0.913554	-42.896631
00434	2225024	0.151138	-9.794305	-0.107444				-0.003777	-0.002602	-0.002913				-90.386229	-0.914382	-42.895881
00435	2225074	0.165227	-9.804152	-0.087641				-0.005355	-0.003312	-0.002787				-90.385832	-0.914405	-42.894682
00436	2225124	0.166296	-9.790912	-0.099341				-0.000562	-0.002931	-0.000838				-90.386009	-0.914638	-42.893849
00437	2225174	0.180351	-9.800645	-0.087698				-0.003138	-0.000290	-0.000469				-90.384943	-0.914005	-42.893521
00438	2225224	0.181406	-9.790783	-0.111444				-0.005649	-0.001151	-0.003383				-90.386567	-0.914975	-42.893181
00439	2225274	0.179863	-9.789221	-0.105899				-0.003247	0.003390	-0.000417				-90.385526	-0.914333	-42.893902
00440	2225324	0.179321	-9.802384	-0.083860				-0.003757	-0.000783	0.000975				-90.386612	-0.914057	-42.893678
00441	2225374	0.184939	-9.800569	-0.088917				-0.004058	0.000171	-0.003160				-90.385824	-0.914199	-42.893468
00442	2225424	0.161621	-9.788389	-0.112956				-0.000817	0.002299	-0.002417				-90.386049	-0.914896	-42.894122
00443	2225474	0.168876	-9.779395	-0.090595				-0.006018	0.000630	-0.000550				-90.385799	-0.914278	-42.894047
00444	2225524	0.149923	-9.791361	-0.099335				-0.006042	0.000071	-0.004371				-90.387522	-0.915532	-42.894056
00445	2225574	0.148129	-9.801934	-0.107166				-0.002673	0.000973	-0.002928				-90.386359	-0.915609	-42.894088
00446	2225624	0.166062	-9.789367	-0.108233				-0.003798	0.001179	-0.003116				-90.387445	-0.916504	-42.894426
00447	2225674	0.154288	-9.792821	-0.092889				-0.004891	0.001850	0.001476				-90.386869	-0.915317	-42.894699
00448	2225724	0.153383	-9.795544	-0.086387				-0.003470	0.000155	-0.001363				-90.387852	-0.915706	-42.894741
00449	2225774	0.165889	-9.779867	-0.108673				-0.003129	0.000616	0.000279				-90.386788	-0.914864	-42.894655
00450	2225824	0.180894	-9.812430	-0.107880				-0.003950	-0.001115	-0.002459				-90.387926	-0.915568	-42.894327
00451	2225874	0.166820	-9.805559	-0.087370				-0.004022	-0.000820	-0.000051				-90.387134	-0.914807	-42.893815
00452	2225924	0.161676	-9.790132	-0.092463				-0.005559	0.001251	-0.001702				-90.388717	-0.915295	-42.894169
00453	2225974	0.164130	-9.792259	-0.106339				-0.004101	0.003185	0.001352				-90.387936	-0.914152	-42.894844
00454	2226024	0.179474	-9.816331	-0.117395				-0.002375	-0.001017	0.001321				-90.388624	-0.913776	-42.894558
00455	2226074	0.156267	-9.792068	-0.094037				-0.003268	0.003008	0.000032				-90.387587	-0.913000	-42.895194
00456	2226124	0.167456	-9.791652	-0.096922				-0.002706	0.000127	-0.003579				-90.388363	-0.914026	-42.895218
00457	2226174	0.150892	-9.756709	-0.083971				-0.002620	-0.001019	0.003538				-90.387164	-0.912235	-42.894696
00458	2226224	0.165482	-9.795651	-0.100323				-0.002953	0.001433	0.003102				-90.387993	-0.911350	-42.895107
00459	2226274	0.163136	-9.798529	-0.100330				-0.003687	0.003634	-0.004964				-90.387103	-0.912023	-42.895897
00460	2226324	0.184391	-9.790562	-0.107972				-0.006607	0.001168	0.000155				-90.388976	-0.911979	-42.896232
00461	2226374	0.158749	-9.770194	-0.110789				-0.002289	0.000139	-0.002779				-90.387677	-0.912008	-42.896023
00462	2226424	0.171034	-9.803775	-0.107737				-0.001454	0.001090	-0.003225				-90.388100	-0.912939	-42.896337
00463	2226474	0.177659	-9.790471	-0.103932				-0.001084	-0.001284	0.000773				-90.386469	-0.911934	-42.895716
00464	2226524	0.168140	-9.807210	-0.102207				-0.001991	-0.000108	-0.000469				-90.387038	-0.912069	-42.895677
00465	2226574	0.167692	-9.789574	-0.093355				-0.002104	0.003504	-0.003433				-90.385672	-0.912298	-42.896449
00466	2226624	0.159193	-9.772974	-0.099342				-0.002456	0.003435	-0.001765				-90.386364	-0.912813	-42.897435
00467	2226674	0.158674	-9.790154	-0.093362				-0.004879	0.001903	-0.003916				-90.385793	-0.913177	-42.897722
00468	2226724	0.159405	-9.793420	-0.111326				-0.003150	-0.001843	0.000007				-90.386716	-0.913173	-42.897195
00469	2226774	0.168197	-9.788192	-0.105361				-0.003117	-0.001043	-0.002331				-90.385641	-0.913066	-42.896627
00470	2226824	0.157110	-9.792534	-0.109591				-0.002845	-0.000516	-0.002424				-90.386468	-0.913755	-42.896479
00471	2226874	0.158026	-9.796521	-0.096656				-0.002503	-0.000256	-0.004321				-90.385234	-0.914231	-42.896172
00472	2226924	0.173170	-9.806828	-0.092199				-0.002052	-0.000671	-0.005989				-90.385825	-0.915948	-42.895971
00473	2226974	0.152018	-9.775663	-0.115206				-0.006825	-0.001061	0.001976				-90.385843	-0.914613	-42.895425
00474	2227024	0.172921	-9.801411	-0.105603				-0.003941	-0.000476	-0.002905				-90.386970	-0.915442	-42.895283
00475	2227074	0.176491	-9.799757	-0.102108				-0.005283	0.000340	-0.006362				-90.386523	-0.916500	-42.895131
00476	2227124	0.176065	-9.791200	-0.103978				-0.003721	0.002155	-0.000323				-90.387569	-0.916600	-42.895739
00477	2227174	0.169160	-9.802282	-0.083154				-0.004305	0.004311	-0.001244				-90.386841	-0.916194	-42.896718
00478	2227224	0.166905	-9.797202	-0.075705				-0.005358	-0.001045	-0.000978				-90.388378	-0.916467	-42.896412
00479	2227274	0.173925	-9.792304	-0.095751				-0.000405	0.001331	-0.004543				-90.386546	-0.917012	-42.896535
00480	2227324	0.160044	-9.779874	-0.113143				-0.007574	0.001179	-0.002180				-90.388702	-0.917633	-42.896868
00481	2227374	0.162468	-9.784395	-0.078659				-0.000771	0.001013	0.000016				-90.386995	-0.916869	-42.896930
00482	2227424	0.184145	-9.805383	-0.100830				0.000265	0.004513	-0.004206				-90.386886	-0.918083	-42.898210
00483	2227474	0.167558	-9.786777	-0.104867				-0.000919	-0.000280	0.002059				-90.385209	-0.916728	-42.897884
00484	2227524	0.155142	-9.802942	-0.082369				-0.006495	0.001456	-0.001572				-90.387067	-0.917183	-42.898305
00485	2227574	0.157526	-9.790164	-0.108872				-0.001711	-0.000722	-0.001018				-90.385583	-0.916698	-42.897822
00486	2227624	0.165100	-9.797356	-0.097762				0.004547	0.002910	-0.001817				-90.384269	-0.917223	-42.898652
00487	2227674	0.178240	-9.802627	-0.114982				-0.001214	0.001414	-0.004601				-90.382655	-0.917778	-42.898809
00488	2227724	0.179726	-9.793802	-0.116496				-0.004367	0.001077	-0.000875				-90.383899	-0.918029	-42.899112
00489	2227774	0.152455	-9.786690	-0.107472				-0.001436	0.001676	-0.000975				-90.382353	-0.917544	-42.899341
00490	2227824	0.150185	-9.785719	-0.095254				-0.003812	0.000796	-0.000040				-90.383445	-0.917551	-42.899571
00491	2227874	0.161400	-9.807466	-0.091200				-0.002630	0.001848	-0.001774				-90.382252	-0.917304	-42.899870
00492	2227924	0.146179	-9.782470	-0.109364				-0.004717	-0.003096	0.000133				-90.383613	-0.917258	-42.898985
00493	2227974	0.155877	-9.806010	-0.097905				-0.004449	0.002114	0.001184				-90.382918	-0.916158	-42.899338
00494	2228024	0.146691	-9.774721	-0.104081				-0.002450	0.002669	0.001089				-90.383611	-0.915851	-42.900114
00495	2228074	0.150671	-9.781374	-0.100036				-0.003977	0.001922	-0.002249				-90.382810	-0.915729	-42.900440
00496	2228124	0.187559	-9.817218	-0.099523				-0.004791	-0.001781	-0.001757				-90.384187	-0.916224	-42.899928
00497	2228174	0.182223	-9.789064	-0.098926				-0.002974	-0.000586	-0.002553				-90.383081	-0.916196	-42.899519
00498	2228224	0.177702	-9.797003	-0.111263				-0.006131	0.000875	-0.004014				-90.384827	-0.917344	-42.899757
00499	2228274	0.167554	-9.791005	-0.107834				-0.006986	0.001805	-0.002597				-90.384862	-0.917325	-42.900016
00500	2228324	0.177657	-9.803746	-0.104383				-0.001337	0.000448	-0.000726				-90.385242	-0.917535	-42.900147
00501	2228374	0.179666	-9.794238	-0.103504				-0.001915	-0.003567	-0.000972				-90.383864	-0.917035	-42.898880
00502	2228424	0.169245	-9.798018	-0.113575				-0.006753	0.001714	-0.000800				-90.385793	-0.917265	-42.899375
00503	2228474	0.158802	-9.784946	-0.107718				-0.004761	-0.000546	0.000886				-90.385200	-0.916239	-42.898964
00504	2228524	0.166709	-9.792143	-0.096434				-0.002177	-0.000276	-0.000793				-90.385833	-0.916464	-42.898887
00505	2228574	0.152598	-9.787686	-0.104885				-0.004961	-0.001094	0.002390				-90.385288	-0.915014	-42.898308
00506	2228624	0.182139	-9.801725	-0.093093				-0.006715	-0.000782	-0.002900				-90.387212	-0.915841	-42.898083
00507	2228674	0.170631	-9.808079	-0.090448				-0.002127	0.001444	0.000535				-90.385867	-0.914921	-42.898217
00508	2228724	0.156842	-9.798941	-0.109688				-0.007027	0.000258	0.000638				-90.387888	-0.914740	-42.898295
00509	2228774	0.160087	-9.791570	-0.093062				-0.002459	-0.000609	-0.002394				-90.386636	-0.914658	-42.897844
00510	2228824	0.166971	-9.799788	-0.092464				-0.004906	0.000135	0.000887				-90.388059	-0.914407	-42.897888
00511	2228874	0.159496	-9.797040	-0.107369				-0.007107	0.000610	-0.000967				-90.388132	-0.913917	-42.897779
00512	2228924	0.169465	-9.802706	-0.101599				-0.006294	0.001467	0.000513				-90.389930	-0.913770	-42.898206
00513	2228974	0.172417	-9.811104	-0.092871				-0.001672	-0.000274	-0.003361				-90.388451	-0.913965	-42.897892
00514	2229024	0.151346	-9.782497	-0.088294				-0.004654	0.000034	-0.002193				-90.389775	-0.914592	-42.897902
00515	2229074	0.144685	-9.779860	-0.095378				-0.003621	0.000768	-0.001547				-90.388862	-0.914267	-42.897881
00516	2229124	0.166329	-9.795979	-0.078540				-0.003166	-0.002225	0.001867				-90.389783	-0.913729	-42.897245
00517	2229174	0.183111	-9.797243	-0.106673				-0.003968	0.005802	-0.001942				-90.388957	-0.913530	-42.898672
00518	2229224	0.173972	-9.800587	-0.097041				-0.006226	0.001144	-0.001159				-90.390736	-0.913859	-42.899002
00519	2229274	0.168390	-9.799854	-0.118057				-0.001776	-0.002851	-0.000771				-90.389291	-0.913312	-42.897912
00520	2229324	0.163353	-9.804076	-0.109941				-0.005110	0.003392	-0.001115				-90.390737	-0.913638	-42.898872
00521	2229374	0.171916	-9.789412	-0.100047				-0.009208	-0.001818	0.000148				-90.391442	-0.912833	-42.898124
00522	2229424	0.188703	-9.801262	-0.102402				-0.003863	0.001606	0.002142				-90.392544	-0.912219	-42.898591
00523	2229474	0.168651	-9.797215	-0.088557				-0.001240	0.000352	-0.001500				-90.390930	-0.911875	-42.898427
00524	2229524	0.182046	-9.800368	-0.089130				-0.002014	-0.002766	-0.003727				-90.391516	-0.912932	-42.897623
00525	2229574	0.177795	-9.796321	-0.108830				-0.004564	0.000326	-0.001420				-90.390859	-0.912576	-42.897477
00526	2229624	0.182157	-9.788351	-0.099214				-0.003522	0.001869	-0.001610				-90.391855	-0.913039	-42.898005
00527	2229674	0.160231	-9.789598	-0.081830				-0.002006	0.001536	-0.001585				-90.390480	-0.912734	-42.898198
00528	2229724	0.169581	-9.806277	-0.100624				-0.005055	-0.000551	-0.001620				-90.391935	-0.913202	-42.898035
00529	2229774	0.160524	-9.786606	-0.122357				-0.004616	0.000075	0.001273				-90.391303	-0.912069	-42.897807
00530	2229824	0.141507	-9.789510	-0.102888				-0.005952	0.002698	-0.002203				-90.392991	-0.912707	-42.898569
00531	2229874	0.149135	-9.786775	-0.104496				-0.000034	0.004961	-0.002653				-90.391046	-0.912708	-42.899742
00532	2229924	0.164925	-9.792906	-0.079012				-0.004177	0.002338	-0.000630				-90.392233	-0.912890	-42.900414
00533	2229974	0.163917	-9.794050	-0.113212				-0.002553	0.000651	0.000735				-90.391014	-0.911918	-42.900330
00534	2230024	0.166484	-9.798321	-0.111595				-0.003278	-0.002245	-0.003642				-90.391961	-0.912958	-42.899680
00535	2230074	0.188885	-9.808881	-0.100487				-0.003745	0.000659	-0.002249				-90.391084	-0.912836	-42.899618
00536	2230124	0.186098	-9.787671	-0.109507				-0.002880	-0.001493	-0.002041				-90.391920	-0.913419	-42.899186
00537	2230174	0.159737	-9.773113	-0.089758				-0.002889	0.003234	0.000144				-90.390765	-0.912614	-42.899868
00538	2230224	0.180840	-9.792612	-0.100633				-0.003262	0.002573	-0.002402				-90.391701	-0.913309	-42.900606
00539	2230274	0.184621	-9.804983	-0.095645				-0.003909	-0.000482	-0.004340				-90.390854	-0.913782	-42.900206
00540	2230324	0.167677	-9.808948	-0.097802				-0.006155	0.002912	-0.002838				-90.392603	-0.914599	-42.901029
00541	2230374	0.170879	-9.795542	-0.103649				-0.003088	0.004456	-0.001235				-90.391525	-0.914198	-42.902048
00542	2230424	0.182104	-9.793200	-0.107685				-0.005100	0.000828	-0.001761				-90.392983	-0.914704	-42.902285
00543	2230474	0.164021	-9.809874	-0.087023				-0.008774	-0.002532	-0.001131				-90.393567	-0.914257	-42.901318
00544	2230524	0.168586	-9.790092	-0.104867				-0.001635	0.003189	0.000742				-90.394019	-0.914047	-42.902231
00545	2230574	0.159836	-9.795771	-0.097260				-0.006269	0.002721	0.000913				-90.393848	-0.913029	-42.902776
00546	2230624	0.157582	-9.780265	-0.105125				-0.006131	0.002398	-0.000274				-90.395594	-0.913112	-42.903467
00547	2230674	0.176972	-9.796534	-0.095429				-0.005674	0.002052	0.000075				-90.395274	-0.912333	-42.903812
00548	2230724	0.162445	-9.800324	-0.076869				-0.004416	0.002719	-0.000567				-90.396528	-0.912498	-42.904592
00549	2230774	0.160405	-9.800777	-0.095484				-0.002397	0.001652	-0.001861				-90.395258	-0.912272	-42.904822
00550	2230824	0.150875	-9.804928	-0.095528				-0.004524	0.002172	-0.000185				-90.396539	-0.912323	-42.905438
00551	2230874	0.173921	-9.796062	-0.098230				-0.004273	0.000363	0.000094				-90.395806	-0.911541	-42.905320
00552	2230924	0.164665	-9.802165	-0.094005				-0.008523	0.000904	-0.000626				-90.398231	-0.911725	-42.905563
00553	2230974	0.177011	-9.807395	-0.098434				-0.002500	0.000777	-0.001836				-90.397003	-0.911473	-42.905540
00554	2231024	0.172803	-9.815054	-0.097751				-0.004745	0.002707	-0.003229				-90.398350	-0.912402	-42.906303
00555	2231074	0.156284	-9.788960	-0.096033				-0.006168	0.000226	-0.002498				-90.398168	-0.912353	-42.906136
00556	2231124	0.169117	-9.785568	-0.105395				-0.004336	0.002331	-0.001532				-90.399395	-0.912796	-42.906805
00557	2231174	0.175871	-9.794394	-0.112373				-0.002954	-0.002106	-0.000982				-90.398295	-0.912310	-42.905955
00558	2231224	0.135816	-9.810109	-0.094435				-0.005011	0.001023	-0.003396				-90.399719	-0.913287	-42.906237
00559	2231274	0.138138	-9.805105	-0.094268				-0.004968	-0.000399	-0.003400				-90.399201	-0.913487	-42.905867
00560	2231324	0.158792	-9.815201	-0.083969				-0.002860	0.000165	0.001564				-90.400010	-0.913039	-42.905913
00561	2231374	0.158698	-9.795746	-0.099992				-0.001269	0.000416	-0.000588				-90.398427	-0.912445	-42.905773
00562	2231424	0.161002	-9.796781	-0.092140				-0.002586	-0.002189	0.003222				-90.399186	-0.911521	-42.905153
00563	2231474	0.156544	-9.800467	-0.087062				-0.002149	0.003050	-0.001404				-90.397815	-0.911157	-42.905776
00564	2231524	0.159303	-9.782157	-0.103846				-0.001927	0.001081	-0.000324				-90.398373	-0.911256	-42.906093
00565	2231574	0.184741	-9.797050	-0.102315				-0.002121	-0.002386	-0.002942				-90.397034	-0.911321	-42.905163
00566	2231624	0.186646	-9.802958	-0.116935				-0.000989	0.001977	0.003207				-90.397308	-0.910405	-42.905736
00567	2231674	0.169323	-9.787036	-0.102356				-0.004926	-0.000361	0.000927				-90.396769	-0.909376	-42.905372
00568	2231724	0.159983	-9.800995	-0.096685				-0.002527	0.001620	-0.001768				-90.397484	-0.909888	-42.905835
00569	2231774	0.166099	-9.792031	-0.103843				-0.000267	-0.002060	-0.002240				-90.395627	-0.909751	-42.904992
00570	2231824	0.144686	-9.775734	-0.101500				-0.006081	0.002653	-0.002614				-90.397357	-0.910501	-42.905754
00571	2231874	0.160402	-9.799970	-0.102034				-0.006155	-0.000965	0.000414				-90.397184	-0.909623	-42.905227
00572	2231924	0.146831	-9.798655	-0.105879				-0.008080	0.001237	-0.000146				-90.399502	-0.909664	-42.905585
00573	2231974	0.170688	-9.795671	-0.110670				-0.004542	-0.002651	-0.002039				-90.398866	-0.909474	-42.904576
00574	2232024	0.150419	-9.789580	-0.090804				-0.000848	-0.001739	-0.000182				-90.399126	-0.909528	-42.904080
00575	2232074	0.158015	-9.777924	-0.071307				-0.003659	-0.001017	-0.000462				-90.398191	-0.908888	-42.903553
00576	2232124	0.154132	-9.809696	-0.090925				-0.002097	-0.000960	-0.004060				-90.398808	-0.910049	-42.903277
00577	2232174	0.164773	-9.802251	-0.104153				-0.003403	-0.000076	-0.000492				-90.397832	-0.909418	-42.903020
00578	2232224	0.139991	-9.794023	-0.103548				-0.003831	0.002170	-0.005350				-90.398924	-0.910955	-42.903633
00579	2232274	0.167283	-9.805261	-0.106799				-0.004195	0.001420	-0.004230				-90.398151	-0.911393	-42.903787
00580	2232324	0.163860	-9.790551	-0.094404				-0.004756	0.002287	-0.002430				-90.399501	-0.912093	-42.904430
00581	2232374	0.174420	-9.810139	-0.107785				-0.003660	0.002117	-0.001277				-90.398608	-0.911706	-42.904789
00582	2232424	0.170849	-9.798141	-0.103721				-0.003528	-0.000917	0.001399				-90.399617	-0.911301	-42.904522
00583	2232474	0.187041	-9.794523	-0.110339				-0.004278	0.003530	-0.000881				-90.398878	-0.910792	-42.905289
00584	2232524	0.162970	-9.786417	-0.101733				-0.003291	0.000306	-0.004916				-90.399821	-0.912198	-42.905369
00585	2232574	0.172774	-9.789442	-0.113095				-0.005036	-0.000302	-0.002860				-90.399314	-0.912260	-42.905051
00586	2232624	0.157591	-9.785975	-0.088160				-0.005620	0.001042	-0.004806				-90.400918	-0.913637	-42.905337
00587	2232674	0.167880	-9.797670	-0.106298				-0.001506	0.003638	-0.004163				-90.399373	-0.914064	-42.906149
00588	2232724	0.172562	-9.787147	-0.107971				-0.002431	0.004654	-0.004732				-90.400043	-0.915428	-42.907476
00589	2232774	0.164003	-9.784639	-0.092935				-0.004955	-0.000592	-0.000871				-90.399527	-0.914905	-42.907049
00590	2232824	0.171040	-9.793848	-0.105835				-0.002594	0.001941	-0.000220				-90.400269	-0.914971	-42.907612
00591	2232874	0.176369	-9.787175	-0.087383				0.000386	0.002932	-0.000773				-90.398190	-0.914434	-42.908193
00592	2232924	0.185449	-9.805092	-0.102880				-0.003907	-0.002149	0.001297				-90.399324	-0.914059	-42.907590
00593	2232974	0.172265	-9.800528	-0.086507				-0.004617	-0.000162	-0.002411				-90.398688	-0.913982	-42.907319
00594	2233024	0.162944	-9.789845	-0.094829				-0.003271	-0.000339	-0.004082				-90.399626	-0.915151	-42.907204
00595	2233074	0.166552	-9.800829	-0.086954				-0.004990	0.000539	-0.001506				-90.399107	-0.914813	-42.907086
00596	2233124	0.168504	-9.822042	-0.093725				0.001901	0.001504	-0.000237				-90.398550	-0.914880	-42.907514
00597	2233174	0.156626	-9.798862	-0.099753				-0.001825	-0.001473	-0.002554				-90.397112	-0.914849	-42.906821
00598	2233224	0.149165	-9.798164	-0.089217				-0.002562	-0.002297	-0.001819				-90.397860	-0.915368	-42.906154
00599	2233274	0.161039	-9.795398	-0.090013				-0.004315	0.000516	-0.002987				-90.397152	-0.915460	-42.906058
00600	2233324	0.157512	-9.792578	-0.106704				-0.001877	0.002636	0.000100				-90.397685	-0.915435	-42.906825
00601	2233374	0.156745	-9.789376	-0.099433				-0.007509	0.002013	-0.003927				-90.397859	-0.915790	-42.907112
00602	2233424	0.148112	-9.784185	-0.120117				-0.002903	0.001585	0.000646				-90.398688	-0.915607	-42.907577
00603	2233474	0.176377	-9.806101	-0.091140				-0.006641	0.001290	-0.000827				-90.398649	-0.915090	-42.907696
00604	2233524	0.146003	-9.771822	-0.092535				-0.003824	-0.001962	-0.002710				-90.399752	-0.915863	-42.907124
00605	2233574	0.154564	-9.775720	-0.078608				0.000865	0.003808	-0.003879				-90.397535	-0.916216	-42.907967
00606	2233624	0.182859	-9.804570	-0.092728				-0.002334	0.000361	-0.002993				-90.398205	-0.917074	-42.908065
00607	2233674	0.162755	-9.796040	-0.092943				-0.005823	-0.000706	-0.003403				-90.397918	-0.917278	-42.907597
00608	2233724	0.163640	-9.803999	-0.114995				-0.005475	0.001730	-0.001241				-90.399473	-0.917639	-42.908094
00609	2233774	0.163599	-9.792194	-0.095351				-0.006654	0.000609	0.000489				-90.399432	-0.916730	-42.908022
00610	2233824	0.174417	-9.801675	-0.102319				-0.003784	0.001347	0.002826				-90.400507	-0.915919	-42.908417
00611	2233874	0.183412	-9.805045	-0.091845				-0.004502	0.000656	0.003685				-90.399837	-0.914092	-42.908388
00612	2233924	0.166239	-9.782793	-0.118329				-0.002930	-0.001489	0.001267				-90.400688	-0.913725	-42.907968
00613	2233974	0.176691	-9.805589	-0.093654				-0.002600	-0.000262	-0.003669				-90.399476	-0.914016	-42.907630
00614	2234024	0.159545	-9.787347	-0.105610				-0.003530	-0.002149	-0.000593				-90.400492	-0.914177	-42.907013
00615	2234074	0.176286	-9.803436	-0.094391				-0.003660	0.000281	0.002786				-90.399607	-0.912613	-42.906876
00616	2234124	0.129008	-9.779512	-0.114944				-0.002255	0.000238	-0.000288				-90.400239	-0.912698	-42.906927
00617	2234174	0.163169	-9.801853	-0.115738				-0.005473	-0.001341	0.000441				-90.399877	-0.911801	-42.906329
00618	2234224	0.175682	-9.810643	-0.088931				0.002167	0.000287	0.001071				-90.399254	-0.911499	-42.906408
00619	2234274	0.157452	-9.804778	-0.099797				-0.001565	0.002570	-0.003015				-90.397742	-0.911603	-42.906895
00620	2234324	0.164506	-9.777315	-0.105865				-0.004630	0.002224	-0.003135				-90.399050	-0.912505	-42.907524
00621	2234374	0.179787	-9.798679	-0.108067				-0.001296	0.002120	-0.005003				-90.397467	-0.913171	-42.907859
00622	2234424	0.158406	-9.771815	-0.129481				-0.002572	-0.001944	-0.002200				-90.398202	-0.913798	-42.907298
00623	2234474	0.168372	-9.796084	-0.085726				-0.003634	0.001181	-0.002211				-90.397289	-0.913675	-42.907377
00624	2234524	0.179757	-9.792835	-0.087076				-0.008127	0.001620	0.000302				-90.399612	-0.913592	-42.907842
00625	2234574	0.176222	-9.791366	-0.092676				-0.002185	-0.002123	-0.001501				-90.398302	-0.913244	-42.907006
00626	2234624	0.161794	-9.805953	-0.112603				-0.006079	-0.000677	-0.001961				-90.400051	-0.913809	-42.906808
00627	2234674	0.173440	-9.797329	-0.092934				-0.002216	0.000011	-0.001295				-90.398730	-0.913405	-42.906568
00628	2234724	0.170755	-9.788587	-0.108445				-0.001960	0.001082	0.000060				-90.399299	-0.913395	-42.906885
00629	2234774	0.179160	-9.806994	-0.107912				-0.006939	0.001346	-0.001791				-90.399314	-0.913136	-42.907033
00630	2234824	0.189013	-9.803325	-0.091346				-0.005323	0.000822	-0.002085				-90.400841	-0.913733	-42.907259
00631	2234874	0.163414	-9.784754	-0.116597				-0.002758	0.002107	0.000548				-90.399666	-0.912811	-42.907616
00632	2234924	0.160237	-9.791691	-0.099965				-0.009132	0.001121	0.001425				-90.402279	-0.912405	-42.907935
00633	2234974	0.160317	-9.791008	-0.098513				-0.006863	-0.003147	-0.002453				-90.402307	-0.912336	-42.906762
00634	2235024	0.186555	-9.800952	-0.093718				-0.003472	0.000149	0.000156				-90.403306	-0.912292	-42.906813
00635	2235074	0.147155	-9.782670	-0.095633				-0.002209	-0.000415	-0.002870				-90.401971	-0.912339	-42.906488
00636	2235124	0.164241	-9.796595	-0.102096				-0.007298	-0.000471	-0.002374				-90.404062	-0.913021	-42.906351
00637	2235174	0.160920	-9.783491	-0.108186				-0.002001	-0.000536	0.000340				-90.402693	-0.912156	-42.905921
00638	2235224	0.149760	-9.792280	-0.100955				-0.003628	0.001446	0.002697				-90.403738	-0.911390	-42.906353
00639	2235274	0.170126	-9.806289	-0.099383				-0.004219	0.002295	-0.004773				-90.402990	-0.911993	-42.906768
00640	2235324	0.178273	-9.801741	-0.095552				-0.001719	0.004608	-0.002296				-90.403457	-0.912664	-42.908084
00641	2235374	0.164350	-9.799211	-0.116814				-0.003105	0.001872	-0.000156				-90.402378	-0.911928	-42.908370
00642	2235424	0.167521	-9.789346	-0.107728				-0.002646	0.001360	-0.001413				-90.403112	-0.912334	-42.908755
00643	2235474	0.137227	-9.775908	-0.095845				-0.002481	-0.002844	-0.001655				-90.401900	-0.912043	-42.907691
00644	2235524	0.160606	-9.796319	-0.107792				-0.005341	-0.002530	0.000438				-90.403446	-0.911913	-42.906966
00645	2235574	0.148484	-9.779027	-0.115357				-0.002753	0.002072	0.001644				-90.402282	-0.910676	-42.907301
00646	2235624	0.154455	-9.785603	-0.099278				-0.001101	0.000453	0.000568				-90.402584	-0.910515	-42.907427
00647	2235674	0.168798	-9.798736	-0.112681				0.000592	0.001518	0.000508				-90.400458	-0.909603	-42.907621
00648	2235724	0.160511	-9.778913	-0.097493				-0.005593	0.001866	0.003506				-90.402046	-0.908602	-42.908160
00649	2235774	0.165365	-9.796093	-0.102741				-0.005097	-0.001108	-0.000201				-90.401562	-0.907891	-42.907599
00650	2235824	0.171556	-9.778939	-0.102791				-0.004111	0.002337	-0.000026				-90.402735	-0.907903	-42.908270
00651	2235874	0.170201	-9.788481	-0.100009				-0.008114	-0.002806	0.001274				-90.403108	-0.906761	-42.907235
00652	2235924	0.153868	-9.769381	-0.105709				-0.000040	0.003279	-0.000960				-90.403109	-0.907039	-42.908175
00653	2235974	0.167654	-9.787763	-0.103025				-0.004463	-0.000967	-0.000425				-90.402452	-0.906390	-42.907632
00654	2236024	0.174258	-9.791953	-0.118396				-0.005827	0.002755	-0.001464				-90.404112	-0.906818	-42.908422
00655	2236074	0.165073	-9.808337	-0.109654				-0.002721	0.001878	-0.000607				-90.402932	-0.906230	-42.908708
00656	2236124	0.171567	-9.797170	-0.104656				-0.002266	0.002663	-0.000156				-90.403576	-0.906283	-42.909474
00657	2236174	0.179370	-9.804683	-0.088266				0.000565	0.001827	-0.004888				-90.401433	-0.906907	-42.909750
00658	2236224	0.148899	-9.792435	-0.107540				-0.006581	0.000159	-0.001404				-90.403316	-0.907309	-42.909798
00659	2236274	0.160133	-9.792302	-0.106815				-0.004686	-0.001005	-0.000391				-90.402716	-0.906654	-42.909242
00660	2236324	0.157405	-9.781928	-0.120226				-0.006224	-0.000834	0.000995				-90.404501	-0.906368	-42.909004
00661	2236374	0.169015	-9.789257	-0.081664				-0.004655	0.003231	-0.000791				-90.403877	-0.905838	-42.909683
00662	2236424	0.173140	-9.808292	-0.089882				-0.003791	0.000849	-0.003786				-90.404956	-0.906922	-42.909926
00663	2236474	0.166109	-9.805949	-0.109482				-0.004400	0.001936	-0.003810				-90.404270	-0.907256	-42.910232
00664	2236524	0.175081	-9.791640	-0.106615				-0.004560	0.000355	0.000223				-90.405575	-0.907190	-42.910338
00665	2236574	0.163409	-9.784510	-0.102029				-0.004777	-0.000269	-0.004078				-90.404982	-0.907588	-42.909969
00666	2236624	0.173928	-9.795780	-0.100924				-0.004418	0.005949	-0.001546				-90.406216	-0.908044	-42.911671
00667	2236674	0.157597	-9.802595	-0.102972				-0.005139	0.004420	-0.001775				-90.405737	-0.907793	-42.912747
00668	2236724	0.157976	-9.795595	-0.095248				-0.002871	-0.000817	-0.002738				-90.406571	-0.908575	-42.912511
00669	2236774	0.165385	-9.801267	-0.105265				0.001020	0.000069	0.000369				-90.404306	-0.907704	-42.912275
00670	2236824	0.179001	-9.799110	-0.111884				-0.003684	0.000823	-0.001156				-90.405369	-0.908037	-42.912514
00671	2236874	0.185871	-9.793533	-0.113814				-0.002308	0.002046	0.000545				-90.404065	-0.907119	-42.912855
00672	2236924	0.162105	-9.785990	-0.099178				-0.005609	-0.001115	0.000183				-90.405678	-0.907063	-42.912540
00673	2236974	0.169927	-9.805306	-0.086046				-0.005456	-0.002053	-0.000847				-90.405311	-0.906538	-42.911707
00674	2237024	0.158758	-9.801978	-0.095564				-0.005960	0.000979	-0.000059				-90.407025	-0.906557	-42.911997
00675	2237074	0.164544	-9.780369	-0.108270				-0.005065	-0.004213	-0.000829				-90.406528	-0.906011	-42.910519
00676	2237124	0.182375	-9.801270	-0.092036				-0.002117	-0.001482	-0.004321				-90.407134	-0.907246	-42.910085
00677	2237174	0.147462	-9.798457	-0.102235				-0.006441	0.002006	-0.000274				-90.407026	-0.906568	-42.910422
00678	2237224	0.174246	-9.803421	-0.097451				-0.001848	0.000401	-0.001290				-90.407554	-0.906937	-42.910537
00679	2237274	0.159233	-9.783992	-0.092162				-0.004453	0.001744	-0.002816				-90.406870	-0.906977	-42.910812
00680	2237324	0.146676	-9.784246	-0.101196				-0.001987	-0.000183	-0.001968				-90.407442	-0.907539	-42.910757
00681	2237374	0.145319	-9.781992	-0.110204				-0.007736	0.003499	-0.001353				-90.407691	-0.907172	-42.911511
00682	2237424	0.154772	-9.793415	-0.100295				-0.005490	-0.000724	0.001507				-90.409265	-0.906738	-42.911308
00683	2237474	0.162038	-9.800879	-0.087339				-0.002649	0.003688	0.000363				-90.408060	-0.905868	-42.912125
00684	2237524	0.167113	-9.795514	-0.107977				-0.001604	0.000857	-0.002669				-90.408525	-0.906636	-42.912363
00685	2237574	0.157730	-9.788065	-0.090863				0.000218	-0.001814	0.002381				-90.406533	-0.905189	-42.911628
00686	2237624	0.174821	-9.791354	-0.109931				-0.000241	0.000464	0.000601				-90.406599	-0.905018	-42.911759
00687	2237674	0.166485	-9.796122	-0.084583				-0.005230	0.001989	-0.002848				-90.406140	-0.905068	-42.912057
00688	2237724	0.155922	-9.785021	-0.090255				-0.003687	0.000723	-0.002760				-90.407193	-0.905864	-42.912268
00689	2237774	0.165994	-9.786058	-0.107022				-0.005120	-0.000430	-0.002057				-90.406705	-0.905686	-42.911889
00690	2237824	0.166412	-9.783788	-0.099800				-0.003088	0.000384	-0.000099				-90.407578	-0.905712	-42.911998
00691	2237874	0.153904	-9.794168	-0.098370				-0.003864	0.001499	-0.001021				-90.406721	-0.905242	-42.912210
00692	2237924	0.167481	-9.794173	-0.087004				-0.006373	-0.001489	-0.003089				-90.408552	-0.906121	-42.911780
00693	2237974	0.153763	-9.804313	-0.102188				-0.002947	0.000905	0.000574				-90.407447	-0.905206	-42.911791
00694	2238024	0.178296	-9.801175	-0.101064				-0.002547	-0.000677	-0.001520				-90.408185	-0.905643	-42.911597
00695	2238074	0.186054	-9.792824	-0.097894				-0.005752	0.000399	-0.000512				-90.407865	-0.905013	-42.911448
00696	2238124	0.163974	-9.805345	-0.088116				-0.004576	0.000743	-0.000352				-90.409171	-0.905119	-42.911665
00697	2238174	0.148307	-9.778272	-0.087491				-0.001355	0.002487	0.001155				-90.407612	-0.904037	-42.912141
00698	2238224	0.166889	-9.802459	-0.088857				-0.005501	0.002337	-0.003038				-90.409183	-0.904913	-42.912806
00699	2238274	0.167429	-9.792889	-0.093374				-0.003032	0.001381	-0.001346				-90.408083	-0.904526	-42.912929
00700	2238324	0.174864	-9.795513	-0.102008				-0.002440	-0.000866	0.001010				-90.408792	-0.904239	-42.912681
00701	2238374	0.170339	-9.790043	-0.091449				-0.001530	-0.001797	-0.004289				-90.407280	-0.904695	-42.911923
00702	2238424	0.163518	-9.799985	-0.097848				-0.002097	0.001241	-0.001289				-90.407869	-0.905066	-42.912275
00703	2238474	0.152289	-9.794040	-0.092600				-0.003967	0.001530	-0.002752				-90.407041	-0.905091	-42.912494
00704	2238524	0.161250	-9.788084	-0.117787				-0.002190	-0.000501	0.001817				-90.407675	-0.904570	-42.912358
00705	2238574	0.181485	-9.802090	-0.100944				-0.006641	0.000927	-0.003974				-90.407624	-0.904947	-42.912339
00706	2238624	0.169079	-9.803492	-0.097030				-0.004471	-0.004043	-0.003875				-90.408922	-0.906055	-42.911172
00707	2238674	0.152209	-9.797009	-0.100373				-0.006358	0.000393	0.002086				-90.408803	-0.904685	-42.911041
00708	2238724	0.176638	-9.786583	-0.079823				-0.004859	-0.000950	-0.004276				-90.410197	-0.905910	-42.910759
00709	2238774	0.168950	-9.795210	-0.096059				-0.004707	0.001610	-0.001983				-90.409582	-0.905712	-42.910997
00710	2238824	0.163434	-9.792714	-0.092711				-0.007208	0.000892	-0.001692				-90.411649	-0.906200	-42.911249
00711	2238874	0.173288	-9.789128	-0.086448				-0.002886	0.001806	-0.002435				-90.410514	-0.906139	-42.911491
00712	2238924	0.180097	-9.798434	-0.093287				-0.005791	-0.000408	-0.000998				-90.412177	-0.906424	-42.911377
00713	2238974	0.156208	-9.789471	-0.093417				-0.007165	0.003575	-0.000460				-90.412267	-0.905791	-42.912128
00714	2239024	0.164235	-9.791897	-0.114675				-0.002369	0.000715	-0.001225				-90.412934	-0.906140	-42.912327
00715	2239074	0.168849	-9.789721	-0.098234				-0.005284	0.000696	-0.001700				-90.412509	-0.905871	-42.912301
00716	2239124	0.168338	-9.796940	-0.107217				-0.001270	0.000377	-0.002770				-90.412874	-0.906661	-42.912409
00717	2239174	0.168319	-9.795800	-0.119771				-0.005354	0.003091	0.000817				-90.412417	-0.905670	-42.913036
00718	2239224	0.164015	-9.795855	-0.104340				-0.008855	0.000117	-0.001626				-90.414960	-0.906137	-42.913074
00719	2239274	0.165209	-9.796818	-0.117598				-0.005822	0.001694	0.000810				-90.414670	-0.905139	-42.913299
00720	2239324	0.159210	-9.782578	-0.092134				-0.003168	-0.000362	-0.002063				-90.415580	-0.905730	-42.913189
00721	2239374	0.157670	-9.782456	-0.116779				-0.002659	-0.000160	-0.000266				-90.414388	-0.905040	-42.912886
00722	2239424	0.156092	-9.797541	-0.093390				-0.004227	0.001683	-0.001664				-90.415604	-0.905519	-42.913378
00723	2239474	0.167081	-9.791754	-0.090536				-0.004467	-0.001609	0.001368				-90.414928	-0.904351	-42.912689
00724	2239524	0.168749	-9.805753	-0.088784				-0.000889	0.001491	-0.001836				-90.415176	-0.904886	-42.913110
00725	2239574	0.176382	-9.801889	-0.102800				-0.004457	0.002139	-0.000541				-90.414505	-0.904281	-42.913493
00726	2239624	0.174700	-9.799196	-0.109453				-0.002439	0.003210	0.000682				-90.415195	-0.904092	-42.914411
00727	2239674	0.160498	-9.783934	-0.095801				-0.005297	0.001953	-0.005028				-90.414759	-0.904772	-42.914750
00728	2239724	0.161042	-9.797986	-0.106988				-0.003135	0.004040	0.001299				-90.415640	-0.904409	-42.915912
00729	2239774	0.162802	-9.803403	-0.092168				-0.003182	0.002288	-0.001954				-90.414582	-0.904205	-42.916316
00730	2239824	0.187594	-9.797466	-0.103473				-0.001824	0.001726	-0.001960				-90.415091	-0.904769	-42.916805
00731	2239874	0.171637	-9.790600	-0.115899				-0.002849	0.002614	-0.003883				-90.413951	-0.905121	-42.917292
00732	2239924	0.173982	-9.798585	-0.088222				-0.007169	0.001408	-0.004072				-90.416003	-0.906296	-42.917691
00733	2239974	0.193574	-9.789904	-0.096374				-0.002094	-0.000850	0.000488				-90.414649	-0.905383	-42.917214
00734	2240024	0.148314	-9.788557	-0.097375				-0.004237	0.000209	0.000439				-90.415861	-0.905260	-42.917270
00735	2240074	0.167279	-9.788420	-0.090896				-0.000499	0.000660	0.000941				-90.414045	-0.904221	-42.917233
00736	2240124	0.157410	-9.797326	-0.106248				-0.001654	0.000244	-0.002784				-90.414523	-0.905022	-42.917300
00737	2240174	0.169645	-9.787205	-0.091259				-0.004808	0.000005	0.000533				-90.413948	-0.904103	-42.917052
00738	2240224	0.160769	-9.801302	-0.107201				-0.000953	0.002555	-0.002959				-90.414205	-0.904956	-42.917774
00739	2240274	0.169635	-9.794209	-0.098158				-0.001881	0.002481	-0.001736				-90.412773	-0.904688	-42.918195
00740	2240324	0.157476	-9.784862	-0.099311				-0.002467	0.000588	-0.004188				-90.413484	-0.905892	-42.918366
00741	2240374	0.165384	-9.790686	-0.115207				-0.004960	-0.001387	0.000207				-90.412938	-0.905055	-42.917718
00742	2240424	0.161932	-9.777829	-0.105425				-0.007193	0.001246	-0.003816				-90.414991	-0.906148	-42.918069
00743	2240474	0.167177	-9.801784	-0.101596				-0.006178	-0.000606	-0.002320				-90.414831	-0.906049	-42.917670
00744	2240524	0.169673	-9.800371	-0.098472				-0.005482	0.004063	-0.001336				-90.416388	-0.906442	-42.918828
00745	2240574	0.133949	-9.770220	-0.113851				-0.004498	0.001141	-0.001193				-90.415722	-0.906013	-42.918944
00746	2240624	0.163961	-9.788479	-0.090254				-0.003155	0.002489	-0.000997				-90.416616	-0.906297	-42.919655
00747	2240674	0.171339	-9.794106	-0.103439				-0.001520	0.000089	-0.003192				-90.415091	-0.906450	-42.919441
00748	2240724	0.176234	-9.793921	-0.096310				-0.003025	0.000525	0.001717				-90.415957	-0.905958	-42.919598
00749	2240774	0.158023	-9.799960	-0.104151				-0.004524	-0.001122	-0.001078				-90.415317	-0.905500	-42.919026
00750	2240824	0.137365	-9.784056	-0.105979				-0.005047	0.000518	0.000411				-90.416778	-0.905388	-42.919178
00751	2240874	0.150022	-9.787186	-0.108451				-0.004864	0.003014	0.002635				-90.416189	-0.903880	-42.919802
00752	2240924	0.156168	-9.780293	-0.104570				-0.003293	0.000546	-0.002001				-90.417146	-0.904453	-42.919965
00753	2240974	0.156382	-9.792617	-0.104525				-0.000904	0.001878	-0.003249				-90.415443	-0.904621	-42.920267
00754	2241024	0.173931	-9.802745	-0.110950				-0.003232	0.000344	-0.004639				-90.416363	-0.905948	-42.920353
00755	2241074	0.170018	-9.803803	-0.106591				-0.003368	-0.000069	-0.001012				-90.415380	-0.905473	-42.920085
00756	2241124	0.179096	-9.810701	-0.098037				-0.005282	0.000706	-0.000297				-90.416893	-0.905564	-42.920281
00757	2241174	0.159018	-9.796134	-0.105062				-0.001228	-0.001232	-0.003813				-90.415308	-0.905878	-42.919707
00758	2241224	0.169867	-9.791968	-0.105109				-0.002076	-0.001504	-0.001539				-90.415912	-0.906314	-42.919282
00759	2241274	0.160961	-9.783731	-0.108318				-0.007679	-0.002436	0.001329				-90.416167	-0.905161	-42.918312
00760	2241324	0.162343	-9.796301	-0.091152				-0.000097	0.000627	-0.003932				-90.416196	-0.906287	-42.918481
00761	2241374	0.159538	-9.788628	-0.083837				-0.005660	-0.000726	-0.002999				-90.415863	-0.906389	-42.918049
00762	2241424	0.171136	-9.809607	-0.114328				-0.005566	-0.002792	-0.001696				-90.417465	-0.906870	-42.917237
00763	2241474	0.163441	-9.793372	-0.111893				-0.006805	0.002558	0.000938				-90.417475	-0.905832	-42.917758
00764	2241524	0.161249	-9.784254	-0.120034				-0.006658	-0.000318	0.000922				-90.419390	-0.905572	-42.917664
00765	2241574	0.178560	-9.811468	-0.095109				-0.004657	-0.000801	0.001395				-90.418773	-0.904402	-42.917198
00766	2241624	0.157757	-9.801061	-0.094294				-0.001763	-0.001201	-0.001053				-90.419284	-0.904703	-42.916857
00767	2241674	0.168775	-9.786138	-0.083998				-0.000903	0.000774	-0.004577				-90.417583	-0.905251	-42.916793
00768	2241724	0.157733	-9.786489	-0.085423				-0.001903	0.002513	0.000124				-90.418095	-0.905217	-42.917505
00769	2241774	0.155346	-9.789972	-0.092147				-0.003503	-0.002081	-0.004072				-90.417173	-0.905620	-42.916693
00770	2241824	0.166306	-9.802151	-0.093353				-0.001439	-0.001230	0.000679				-90.417586	-0.905424	-42.916346
00771	2241874	0.175116	-9.798594	-0.101531				-0.003470	0.000354	0.000274				-90.416638	-0.904582	-42.916202
00772	2241924	0.169378	-9.795191	-0.096682				-0.001612	-0.001884	-0.000610				-90.417106	-0.904749	-42.915662
00773	2241974	0.173588	-9.789916	-0.096986				-0.004327	-0.001187	-0.000469				-90.416400	-0.904114	-42.915066
00774	2242024	0.182278	-9.793731	-0.104030				-0.003605	0.003416	-0.000253				-90.417431	-0.904201	-42.916045
00775	2242074	0.159385	-9.779652	-0.096946				-0.002731	-0.000925	0.000395				-90.416258	-0.903311	-42.915530
00776	2242124	0.164422	-9.785882	-0.120051				-0.005510	-0.001243	-0.001495				-90.417839	-0.903734	-42.915169
00777	2242174	0.178385	-9.797963	-0.109928				-0.002100	-0.000022	-0.003806				-90.416504	-0.904068	-42.914904
00778	2242224	0.171147	-9.785731	-0.093720				-0.004286	-0.000407	-0.000466				-90.417734	-0.904203	-42.914787
00779	2242274	0.146733	-9.772242	-0.095465				-0.005300	0.000283	-0.002126				-90.417295	-0.904044	-42.914625
00780	2242324	0.159615	-9.786335	-0.109642				-0.004558	-0.000093	-0.002290				-90.418591	-0.904700	-42.914592
00781	2242374	0.171766	-9.806403	-0.105838				-0.003574	0.003348	-0.002888				-90.417653	-0.904761	-42.915316
00782	2242424	0.151929	-9.774428	-0.103045				-0.001718	-0.000193	0.002581				-90.418137	-0.904016	-42.915258
00783	2242474	0.160104	-9.801107	-0.105163				-0.005142	0.004093	-0.005861				-90.417655	-0.904945	-42.916186
00784	2242524	0.148484	-9.806419	-0.092289				-0.002467	0.003152	0.001186				-90.418347	-0.904610	-42.917091
00785	2242574	0.151919	-9.804313	-0.072201				-0.003051	-0.001938	0.000136				-90.417283	-0.903807	-42.916292
00786	2242624	0.155218	-9.795281	-0.102298				-0.006293	0.001909	-0.005259				-90.419083	-0.905321	-42.916827
00787	2242674	0.166068	-9.789690	-0.102292				-0.006200	0.002465	-0.001439				-90.418896	-0.904969	-42.917321
00788	2242724	0.158164	-9.780126	-0.114166				-0.003694	-0.001050	-0.002716				-90.419955	-0.905746	-42.917015
00789	2242774	0.155173	-9.798500	-0.093286				-0.002136	0.000405	-0.002483				-90.418605	-0.905688	-42.916863
00790	2242824	0.165696	-9.787681	-0.093784				0.000233	0.000574	-0.001049				-90.418532	-0.905990	-42.917028
00791	2242874	0.178056	-9.784021	-0.090459				0.001488	0.000369	-0.002306				-90.416172	-0.905882	-42.916905
00792	2242924	0.156821	-9.808610	-0.113383				-0.002788	0.001813	-0.002988				-90.416964	-0.906743	-42.917416
00793	2242974	0.157924	-9.797176	-0.115672				-0.003745	0.000633	-0.002516				-90.416082	-0.906692	-42.917357
00794	2243024	0.156324	-9.792168	-0.103108				-0.002974	0.000709	-0.002449				-90.416929	-0.907397	-42.917551
00795	2243074	0.148979	-9.777206	-0.094501				-0.002119	0.000855	-0.002258				-90.415578	-0.907279	-42.917536
00796	2243124	0.172468	-9.809557	-0.100414				-0.005861	0.000726	-0.000809				-90.417248	-0.907514	-42.917737
00797	2243174	0.158993	-9.783684	-0.097199				-0.004545	0.000688	0.000663				-90.416582	-0.906560	-42.917673
00798	2243224	0.169550	-9.793891	-0.087866				-0.002348	0.002246	-0.000489				-90.417247	-0.906708	-42.918313
00799	2243274	0.145333	-9.767871	-0.103040				0.000172	0.001412	-0.002327				-90.415250	-0.906603	-42.918467
00800	2243324	0.164895	-9.797549	-0.101199				-0.000481	-0.000183	-0.000251				-90.415388	-0.906673	-42.918412
00801	2243374	0.168883	-9.800982	-0.090011				-0.002063	-0.000595	0.001707				-90.414056	-0.905422	-42.917974
00802	2243424	0.160300	-9.795661	-0.104243				-0.007650	-0.001239	0.001399				-90.416245	-0.905019	-42.917614
00803	2243474	0.177720	-9.784716	-0.123156				-0.003108	-0.002167	0.000291				-90.415196	-0.904163	-42.916762
00804	2243524	0.170599	-9.805025	-0.088677				-0.006145	0.002925	0.002316				-90.416947	-0.903510	-42.917606
00805	2243574	0.156046	-9.820517	-0.095285				-0.003786	0.001188	0.000761				-90.416082	-0.902523	-42.917717
00806	2243624	0.149691	-9.802284	-0.098295				-0.003120	-0.001684	0.000393				-90.416973	-0.902399	-42.917232
00807	2243674	0.166722	-9.800059	-0.075154				-0.003950	0.002050	-0.003406				-90.416142	-0.902621	-42.917562
00808	2243724	0.159000	-9.794555	-0.100354				-0.005397	0.000952	-0.005490				-90.417687	-0.904197	-42.917825
00809	2243774	0.160378	-9.804456	-0.118788				-0.005418	0.001831	-0.003079				-90.417271	-0.904315	-42.918078
00810	2243824	0.157228	-9.775432	-0.095212				-0.002026	0.001182	0.000084				-90.417855	-0.904297	-42.918423
00811	2243874	0.179735	-9.801702	-0.111898				-0.001809	0.004486	-0.000190				-90.416403	-0.903592	-42.919460
00812	2243924	0.163351	-9.786509	-0.095545				-0.004188	0.000562	-0.001773				-90.417599	-0.904108	-42.919614
00813	2243974	0.178052	-9.794274	-0.102809				-0.004855	0.000127	-0.002994				-90.417039	-0.904196	-42.919407
00814	2244024	0.162866	-9.779262	-0.104237				-0.005610	-0.000174	-0.001327				-90.418650	-0.904575	-42.919356
00815	2244074	0.153812	-9.775507	-0.124040				-0.004072	0.000987	-0.000393				-90.417840	-0.903920	-42.919398
00816	2244124	0.170471	-9.780504	-0.109657				-0.001414	0.004166	-0.000837				-90.418234	-0.904170	-42.920596
00817	2244174	0.196334	-9.815179	-0.101698				-0.003707	0.000310	-0.002231				-90.417364	-0.904045	-42.920430
00818	2244224	0.166002	-9.773449	-0.093951				-0.005264	0.003225	-0.000601				-90.418863	-0.904228	-42.921351
00819	2244274	0.186659	-9.795013	-0.109203				-0.000471	-0.000668	-0.003141				-90.417044	-0.904359	-42.920892
00820	2244324	0.161583	-9.789758	-0.085696				-0.003278	0.003492	-0.000256				-90.417975	-0.904441	-42.921892
00821	2244374	0.184377	-9.808296	-0.111498				-0.006144	0.000855	0.000796				-90.417771	-0.903443	-42.921894
00822	2244424	0.165571	-9.789227	-0.101573				-0.004110	0.002047	-0.001669				-90.418935	-0.903925	-42.922480
00823	2244474	0.170957	-9.794838	-0.102995				-0.002578	0.000464	0.001173				-90.417723	-0.902822	-42.922381
00824	2244524	0.165233	-9.792591	-0.084086				-0.006110	0.002727	-0.000542				-90.419469	-0.902990	-42.923165
00825	2244574	0.159464	-9.781919	-0.103406				-0.003614	-0.000262	0.000656				-90.418546	-0.902022	-42.922831
00826	2244624	0.159510	-9.787277	-0.094629				-0.004862	0.000583	-0.000779				-90.419927	-0.902246	-42.922994
00827	2244674	0.159529	-9.772149	-0.091008				-0.005737	0.001086	-0.000387				-90.419644	-0.901604	-42.923087
00828	2244724	0.164873	-9.784008	-0.117814				-0.002642	0.001302	-0.000972				-90.420395	-0.901883	-42.923461
00829	2244774	0.161308	-9.789949	-0.104472				-0.006402	-0.000347	-0.000077				-90.420258	-0.901127	-42.923050
00830	2244824	0.149867	-9.783972	-0.101395				-0.001509	0.000571	-0.005279				-90.420696	-0.902645	-42.923194
00831	2244874	0.151188	-9.781467	-0.109291				-0.000548	-0.001114	-0.000061				-90.418906	-0.901889	-42.922652
00832	2244924	0.133490	-9.778283	-0.129793				0.000276	-0.000812	-0.002083				-90.418827	-0.902481	-42.922412
00833	2244974	0.180258	-9.800348	-0.107588				-0.002920	0.001810	-0.002317				-90.417731	-0.902384	-42.922713
00834	2245024	0.164317	-9.794090	-0.110682				-0.005312	-0.000970	0.003546				-90.419256	-0.901362	-42.922446
00835	2245074	0.170541	-9.792602	-0.094115				-0.003319	0.000513	-0.000079				-90.418237	-0.900619	-42.922346
00836	2245124	0.159917	-9.787793	-0.122601				-0.003888	0.001378	-0.000200				-90.419335	-0.900677	-42.922735
00837	2245174	0.164194	-9.793186	-0.108050				-0.007271	0.001962	-0.000572				-90.419473	-0.900078	-42.923044
00838	2245224	0.171261	-9.786676	-0.108996				-0.004764	-0.001582	-0.001271				-90.420850	-0.900442	-42.922588
00839	2245274	0.178840	-9.800266	-0.082498				0.002143	0.000122	-0.000479				-90.418283	-0.899808	-42.922398
00840	2245324	0.168622	-9.783545	-0.114035				-0.005022	0.002617	0.000096				-90.419706	-0.899783	-42.923151
00841	2245374	0.151097	-9.784274	-0.095949				-0.004118	0.000571	0.000855				-90.418949	-0.898782	-42.923058
00842	2245424	0.168235	-9.783665	-0.090740				-0.001532	0.001745	-0.000686				-90.419373	-0.898979	-42.923555
00843	2245474	0.166471	-9.784554	-0.112333				-0.003962	-0.000663	-0.001719				-90.418562	-0.898710	-42.923117
00844	2245524	0.157868	-9.804133	-0.110428				-0.006673	0.000167	0.000155				-90.420477	-0.898672	-42.923161
00845	2245574	0.144693	-9.786323	-0.122750				-0.003815	-0.000213	-0.001653				-90.419638	-0.898369	-42.922859
00846	2245624	0.156874	-9.770250	-0.124462				-0.001681	0.001317	-0.001362				-90.420106	-0.898760	-42.923234
00847	2245674	0.173996	-9.797873	-0.103425				-0.001270	0.000520	-0.001559				-90.418525	-0.898445	-42.923139
00848	2245724	0.168325	-9.806812	-0.097810				-0.006783	-0.000583	-0.001552				-90.420470	-0.898887	-42.922965
00849	2245774	0.149845	-9.787058	-0.101505				-0.007631	0.002118	-0.000729				-90.420699	-0.898331	-42.923335
00850	2245824	0.187239	-9.811730	-0.101636				-0.003204	0.000805	-0.000530				-90.421618	-0.898489	-42.923562
00851	2245874	0.143508	-9.788101	-0.115521				-0.001089	-0.003555	-0.002576				-90.419984	-0.898448	-42.922290
00852	2245924	0.158501	-9.788597	-0.102267				-0.006211	0.001260	-0.005839				-90.421753	-0.900124	-42.922637
00853	2245974	0.155654	-9.806386	-0.104377				-0.005683	0.001883	-0.005681				-90.421427	-0.900987	-42.922929
00854	2246024	0.168974	-9.791265	-0.105440				-0.006186	0.001653	-0.003655				-90.423203	-0.902040	-42.923397
00855	2246074	0.169988	-9.788183	-0.104478				-0.005946	0.001603	0.000736				-90.422940	-0.901058	-42.923621
00856	2246124	0.160156	-9.788931	-0.110495				-0.006384	0.002006	-0.002725				-90.424764	-0.901838	-42.924189
00857	2246174	0.174138	-9.791303	-0.098605				-0.000914	0.001364	-0.000662				-90.423084	-0.901271	-42.924347
00858	2246224	0.173130	-9.791389	-0.093925				-0.005018	0.000582	0.000630				-90.424523	-0.901091	-42.924514
00859	2246274	0.166968	-9.791411	-0.097494				-0.004003	-0.000436	-0.001172				-90.423692	-0.900654	-42.924156
00860	2246324	0.168611	-9.780849	-0.103957				-0.005028	0.002710	-0.003141				-90.425116	-0.901563	-42.924921
00861	2246374	0.174252	-9.797860	-0.104226				-0.003716	0.002900	-0.000772				-90.424228	-0.901024	-42.925523
00862	2246424	0.166817	-9.781942	-0.096305				-0.004838	-0.002260	-0.000152				-90.425636	-0.901061	-42.924874
00863	2246474	0.164051	-9.799433	-0.117759				-0.002223	-0.001759	0.001768				-90.424321	-0.899784	-42.924120
00864	2246524	0.151935	-9.796812	-0.097800				-0.000684	-0.000224	-0.006117				-90.424519	-0.901535	-42.924033
00865	2246574	0.179747	-9.783254	-0.093349				-0.007093	0.002188	-0.002626				-90.424603	-0.901528	-42.924412
00866	2246624	0.154572	-9.791754	-0.100543				-0.004060	-0.001403	0.000333				-90.425760	-0.901433	-42.924001
00867	2246674	0.171328	-9.787066	-0.129651				-0.005082	0.000612	0.000475				-90.425271	-0.900527	-42.923943
00868	2246724	0.164418	-9.796556	-0.088784				-0.003426	-0.000467	-0.003614				-90.426254	-0.901563	-42.923802
00869	2246774	0.177881	-9.801505	-0.110940				-0.004217	0.000498	-0.000365				-90.425506	-0.900898	-42.923674
00870	2246824	0.180594	-9.792412	-0.098956				-0.003593	-0.002440	-0.003429				-90.426539	-0.901872	-42.922974
00871	2246874	0.165178	-9.799044	-0.111783				-0.001193	-0.000966	0.001098				-90.424948	-0.900794	-42.922432
00872	2246924	0.186799	-9.817837	-0.105769				-0.005806	-0.003085	0.000452				-90.426621	-0.900657	-42.921549
00873	2246974	0.156773	-9.779034	-0.123994				-0.002800	-0.000098	-0.002101				-90.425474	-0.900492	-42.921277
00874	2247024	0.161825	-9.790273	-0.082742				-0.001697	0.002100	0.001562				-90.425942	-0.900044	-42.921871
00875	2247074	0.177681	-9.806144	-0.117888				-0.002375	-0.001019	0.001928				-90.424695	-0.898723	-42.921341
00876	2247124	0.167616	-9.787393	-0.095580				-0.005117	-0.000422	0.000182				-90.426157	-0.898668	-42.921217
00877	2247174	0.178223	-9.786140	-0.107348				-0.004058	0.000331	-0.003546				-90.425378	-0.898920	-42.921063
00878	2247224	0.156001	-9.787909	-0.102743				-0.005994	0.002854	-0.002431				-90.427074	-0.899619	-42.921876
00879	2247274	0.172650	-9.802800	-0.108288				-0.006072	-0.000829	-0.001167				-90.426872	-0.899188	-42.921382
00880	2247324	0.174410	-9.795948	-0.105367				-0.002438	-0.002023	0.000418				-90.427574	-0.899064	-42.920800
00881	2247374	0.174366	-9.794896	-0.127270				-0.004935	0.004946	-0.002006				-90.427023	-0.898885	-42.921978
00882	2247424	0.171014	-9.793304	-0.094067				-0.002237	-0.000374	-0.000855				-90.427661	-0.899125	-42.921869
00883	2247474	0.164664	-9.795479	-0.097083				-0.005852	0.000206	-0.003281				-90.427399	-0.899301	-42.921688
00884	2247524	0.160293	-9.773097	-0.106068				-0.003892	0.000508	0.001082				-90.428514	-0.898995	-42.921834
00885	2247574	0.164020	-9.794180	-0.104942				-0.006879	-0.001719	-0.003351				-90.428544	-0.899186	-42.921101
00886	2247624	0.163398	-9.790922	-0.101289				-0.002949	0.001844	-0.001704				-90.429377	-0.899675	-42.921628
00887	2247674	0.171093	-9.789062	-0.108301				-0.003092	0.002196	-0.004306				-90.428317	-0.900140	-42.922016
00888	2247724	0.160791	-9.798325	-0.100312				-0.003657	-0.002915	0.001800				-90.429390	-0.899619	-42.921192
00889	2247774	0.160682	-9.804543	-0.096622				0.000171	0.001646	-0.000658				-90.427357	-0.899043	-42.921374
00890	2247824	0.171404	-9.795269	-0.105081				-0.001845	0.002412	-0.001134				-90.427870	-0.899372	-42.922061
00891	2247874	0.167205	-9.800485	-0.108460				-0.002888	-0.003263	-0.001287				-90.426763	-0.898972	-42.920884
00892	2247924	0.166575	-9.787556	-0.116988				-0.007053	-0.000910	-0.000457				-90.428782	-0.899101	-42.920626
00893	2247974	0.165862	-9.801117	-0.115141				-0.003953	0.001048	-0.003345				-90.427956	-0.899288	-42.920675
00894	2248024	0.168769	-9.799099	-0.104902				-0.001641	0.001088	-0.000948				-90.428406	-0.899558	-42.920979
00895	2248074	0.168229	-9.806262	-0.087159				-0.004258	-0.000343	-0.001106				-90.427714	-0.899117	-42.920661
00896	2248124	0.145470	-9.769349	-0.099521				-0.003262	0.003976	0.000138				-90.428634	-0.899085	-42.921809
00897	2248174	0.176715	-9.777539	-0.127704				-0.003348	0.000189	-0.000397				-90.427645	-0.898435	-42.921626
00898	2248224	0.156776	-9.775449	-0.094431				0.000127	0.002797	-0.003090				-90.427601	-0.899328	-42.922423
00899	2248274	0.156360	-9.778849	-0.105268				-0.000121	0.000570	-0.000281				-90.425665	-0.898632	-42.922306
00900	2248324	0.166652	-9.774848	-0.110148				-0.003090	0.000222	-0.001238				-90.426540	-0.898988	-42.922362
00901	2248374	0.156209	-9.780916	-0.109688				-0.006085	-0.000378	-0.002481				-90.426368	-0.898935	-42.921986
00902	2248424	0.158680	-9.786342	-0.093760				-0.000171	-0.000559	0.001995				-90.426421	-0.898363	-42.921829
00903	2248474	0.166224	-9.791790	-0.104197				-0.004736	0.000912	0.001758				-90.425797	-0.897090	-42.921837
00904	2248524	0.175755	-9.806344	-0.091031				-0.004750	0.000903	-0.003795				-90.427159	-0.898177	-42.922092
00905	2248574	0.161808	-9.776802	-0.095066				-0.004805	0.003844	-0.003040				-90.426576	-0.898291	-42.922954
00906	2248624	0.165847	-9.799247	-0.097966				-0.003186	-0.001613	0.000872				-90.427498	-0.898041	-42.922498
00907	2248674	0.143246	-9.790254	-0.099234				-0.002728	0.000776	-0.004023				-90.426319	-0.898419	-42.922461
00908	2248724	0.152983	-9.795368	-0.113249				-0.006192	0.000209	0.000700				-90.428085	-0.898220	-42.922521
00909	2248774	0.182036	-9.795612	-0.105188				-0.003585	0.005102	0.001518				-90.427154	-0.897032	-42.923753
00910	2248824	0.154972	-9.784562	-0.089510				-0.003591	-0.001109	-0.001754				-90.428187	-0.897531	-42.923429
00911	2248874	0.161581	-9.776502	-0.099396				-0.003903	0.003668	-0.002819				-90.427341	-0.897580	-42.924236
00912	2248924	0.161276	-9.789952	-0.104285				-0.002205	-0.000370	-0.000533				-90.427972	-0.897732	-42.924130
00913	2248974	0.151814	-9.785291	-0.091108				-0.002262	-0.002604	-0.000832				-90.426681	-0.897194	-42.923146
00914	2249024	0.147567	-9.788666	-0.090328				-0.000966	0.000105	0.001067				-90.426966	-0.896889	-42.923180
00915	2249074	0.184492	-9.780025	-0.098564				-0.004999	-0.001265	-0.001916				-90.426447	-0.896660	-42.922561
00916	2249124	0.177040	-9.809177	-0.106102				-0.001465	0.004553	-0.003076				-90.426853	-0.897552	-42.923867
00917	2249174	0.174089	-9.808067	-0.088403				-0.004707	0.001682	-0.001993				-90.426250	-0.897363	-42.924091
00918	2249224	0.165297	-9.799717	-0.098404				-0.004167	0.000651	-0.004724				-90.427443	-0.898715	-42.924271
00919	2249274	0.154751	-9.807054	-0.092646				-0.005009	0.000996	-0.001832				-90.426918	-0.898473	-42.924300
00920	2249324	0.188819	-9.809377	-0.114580				-0.002724	0.002587	-0.004271				-90.427692	-0.899705	-42.925033
00921	2249374	0.160960	-9.778086	-0.089072				-0.005664	0.003142	-0.007916				-90.427359	-0.901212	-42.925709
00922	2249424	0.175307	-9.787602	-0.106939				-0.005043	0.002261	-0.001317				-90.428786	-0.901591	-42.926348
00923	2249474	0.156731	-9.788589	-0.103848				-0.003733	-0.000562	-0.000308				-90.427931	-0.900910	-42.925950
00924	2249524	0.172532	-9.806306	-0.111633				-0.003636	-0.003120	-0.003914				-90.428987	-0.902026	-42.925052
00925	2249574	0.154371	-9.785972	-0.106746				-0.003499	0.002897	-0.002438				-90.428020	-0.901968	-42.925616
00926	2249624	0.160743	-9.787458	-0.097234				0.002350	-0.000586	-0.001639				-90.427342	-0.902436	-42.925453
00927	2249674	0.179263	-9.804728	-0.085376				-0.004376	-0.000803	-0.003324				-90.426676	-0.902618	-42.924976
00928	2249724	0.171058	-9.788259	-0.098917				-0.002676	0.000035	-0.003162				-90.427429	-0.903521	-42.924970
00929	2249774	0.179943	-9.819556	-0.092483				-0.003970	0.000693	-0.002261				-90.426630	-0.903404	-42.924919
00930	2249824	0.168487	-9.795613	-0.100668				0.001875	-0.000688	-0.000802				-90.426085	-0.903631	-42.924706
00931	2249874	0.156277	-9.793738	-0.108639				-0.001923	0.002256	0.002914				-90.424693	-0.902032	-42.925136
00932	2249924	0.179157	-9.784447	-0.108830				-0.004936	-0.002369	-0.003105				-90.426127	-0.902915	-42.924459
00933	2249974	0.163298	-9.781077	-0.093658				-0.004100	-0.002614	-0.004228				-90.425356	-0.903353	-42.923431
00934	2250024	0.169050	-9.775211	-0.085045				-0.002959	-0.003140	-0.002600				-90.426216	-0.904091	-42.922519
00935	2250074	0.147545	-9.779494	-0.101431				-0.003549	0.000536	-0.000907				-90.425282	-0.903594	-42.922405
00936	2250124	0.175478	-9.801083	-0.108919				-0.000180	0.001466	-0.000914				-90.425318	-0.903859	-42.922825
00937	2250174	0.169492	-9.800730	-0.091071				-0.005733	0.002663	-0.002751				-90.425010	-0.903880	-42.923353
00938	2250224	0.157609	-9.789409	-0.096232				-0.003819	-0.001117	-0.001527				-90.426102	-0.904314	-42.923018
00939	2250274	0.152225	-9.783020	-0.084449				-0.004557	-0.000871	-0.000145				-90.425473	-0.903583	-42.922540
00940	2250324	0.170530	-9.772018	-0.090620				-0.005213	-0.001729	-0.003449				-90.426961	-0.904564	-42.922031
00941	2250374	0.177078	-9.781227	-0.103682				-0.001023	0.001913	0.000242				-90.425310	-0.903731	-42.922384
00942	2250424	0.166300	-9.792413	-0.110653				-0.005458	-0.002988	-0.000504				-90.426903	-0.903873	-42.921533
00943	2250474	0.187317	-9.798716	-0.099741				-0.003680	-0.002571	-0.002211				-90.425997	-0.903727	-42.920530
00944	2250524	0.162154	-9.798188	-0.108146				-0.000400	0.003205	-0.003853				-90.426100	-0.904838	-42.921438
00945	2250574	0.159501	-9.803390	-0.095267				-0.004842	0.002066	-0.001121				-90.425523	-0.904396	-42.921781
00946	2250624	0.157533	-9.787963	-0.113462				-0.003637	-0.002958	-0.002625				-90.426573	-0.905141	-42.920934
00947	2250674	0.167651	-9.790249	-0.095308				-0.002407	-0.002225	-0.001536				-90.425324	-0.904811	-42.920039
00948	2250724	0.159619	-9.784750	-0.089358				-0.005528	-0.001726	0.000273				-90.426914	-0.904724	-42.919550
00949	2250774	0.166434	-9.799520	-0.110634				-0.003093	-0.001886	-0.002369				-90.425854	-0.904643	-42.918769
00950	2250824	0.165772	-9.782949	-0.093400				-0.004488	-0.000957	0.002646				-90.427130	-0.903883	-42.918493
00951	2250874	0.158029	-9.780760	-0.103170				-0.002528	0.003012	0.000130				-90.425911	-0.903083	-42.919124
00952	2250924	0.163979	-9.789462	-0.102952				-0.003008	-0.001229	0.001553				-90.426789	-0.902631	-42.918776
00953	2250974	0.171913	-9.789115	-0.119598				-0.006215	0.000515	-0.004721				-90.426613	-0.903224	-42.918678
00954	2251024	0.147897	-9.799795	-0.107697				-0.004783	0.001031	-0.002182				-90.427978	-0.903853	-42.918968
00955	2251074	0.172358	-9.813894	-0.112039				-0.000860	0.002619	-0.001837				-90.426262	-0.903613	-42.919455
00956	2251124	0.167473	-9.804709	-0.080947				-0.006448	0.002169	0.000520				-90.428093	-0.903467	-42.920082
00957	2251174	0.152776	-9.776737	-0.106852				-0.007127	0.000343	0.000548				-90.428197	-0.902550	-42.919932
00958	2251224	0.155540	-9.785871	-0.112007				-0.002144	0.001757	-0.001130				-90.428788	-0.902875	-42.920419
00959	2251274	0.173888	-9.797735	-0.112647				-0.004297	-0.000288	-0.003125				-90.428074	-0.903008	-42.920115
00960	2251324	0.183607	-9.819786	-0.105313				0.000812	0.000221	-0.001696				-90.427842	-0.903495	-42.920184
00961	2251374	0.157820	-9.781217	-0.104663				-0.004520	0.001945	0.000289				-90.427182	-0.902648	-42.920489
00962	2251424	0.164789	-9.768331	-0.103616				0.000010	0.002535	-0.001840				-90.427178	-0.903182	-42.921210
00963	2251474	0.166065	-9.791394	-0.114980				-0.005589	0.001340	-0.000869				-90.426832	-0.902670	-42.921383
00964	2251524	0.169428	-9.779167	-0.089319				-0.003513	0.002279	-0.003111				-90.427835	-0.903565	-42.922036
00965	2251574	0.165993	-9.792650	-0.094761				-0.003194	0.001546	-0.000743				-90.426788	-0.903009	-42.922221
00966	2251624	0.176385	-9.799097	-0.114736				-0.003408	-0.001778	0.001357				-90.427777	-0.902614	-42.921717
00967	2251674	0.166210	-9.785628	-0.104049				-0.005959	0.001888	-0.000671				-90.427509	-0.902050	-42.921988
00968	2251724	0.165214	-9.773131	-0.084499				-0.004131	0.001888	-0.000899				-90.428694	-0.902314	-42.922528
00969	2251774	0.195065	-9.798999	-0.090249				-0.005157	0.003067	0.000969				-90.428211	-0.901273	-42.923187
00970	2251824	0.181003	-9.804896	-0.103998				-0.002860	-0.000000	-0.001654				-90.429025	-0.901745	-42.923179
00971	2251874	0.163128	-9.773406	-0.098907				-0.004058	0.001698	0.001282				-90.428233	-0.900613	-42.923435
00972	2251924	0.160562	-9.799276	-0.115868				-0.002786	0.001550	-0.002763				-90.429019	-0.901411	-42.923869
00973	2251974	0.165963	-9.773151	-0.097731				-0.004854	-0.002392	0.002161				-90.428487	-0.900021	-42.922954
00974	2252024	0.174246	-9.801294	-0.081202				-0.003043	0.001512	-0.003631				-90.429346	-0.901062	-42.923375
00975	2252074	0.162824	-9.799041	-0.098416				-0.004436	-0.001106	-0.004603				-90.428658	-0.901616	-42.922779
00976	2252124	0.156452	-9.793464	-0.095908				-0.002205	0.003264	-0.007152				-90.429284	-0.903675	-42.923697
00977	2252174	0.184664	-9.797429	-0.092994				-0.002936	0.003454	-0.003400				-90.428162	-0.903890	-42.924415
00978	2252224	0.161330	-9.781329	-0.094304				-0.003956	0.004473	-0.001656				-90.429267	-0.904372	-42.925689
00979	2252274	0.162018	-9.805042	-0.078750				-0.005530	0.000408	-0.001162				-90.428900	-0.903934	-42.925604
00980	2252324	0.160173	-9.784285	-0.088085				-0.003628	0.002089	-0.001092				-90.429918	-0.904248	-42.926201
00981	2252374	0.168798	-9.796861	-0.096224				-0.001256	0.001800	-0.003956				-90.428344	-0.904622	-42.926496
00982	2252424	0.190877	-9.808595	-0.117961				-0.001731	0.000700	-0.001975				-90.428834	-0.905188	-42.926690
00983	2252474	0.166267	-9.787609	-0.098672				-0.005794	0.003530	-0.003677				-90.428523	-0.905480	-42.927459
00984	2252524	0.182859	-9.796454	-0.095586				-0.001131	-0.000270	-0.005347				-90.428852	-0.907010	-42.927375
00985	2252574	0.169048	-9.793644	-0.105361				-0.003641	-0.002929	-0.003366				-90.427962	-0.907203	-42.926282
00986	2252624	0.163180	-9.790520	-0.112537				-0.003434	0.002193	0.000992				-90.428929	-0.906925	-42.926900
00987	2252674	0.168935	-9.790524	-0.107574				-0.004664	0.000190	-0.001964				-90.428329	-0.906719	-42.926731
00988	2252724	0.167317	-9.777616	-0.099576				-0.002985	0.000964	-0.001741				-90.429174	-0.907217	-42.927008
00989	2252774	0.159420	-9.800200	-0.102619				0.000029	0.003228	0.001119				-90.427190	-0.906136	-42.927694
00990	2252824	0.152679	-9.783408	-0.089240				-0.004123	0.000921	0.002850				-90.428358	-0.905318	-42.927958
00991	2252874	0.158231	-9.790230	-0.104048				-0.002020	-0.000280	-0.003515				-90.427005	-0.905561	-42.927650
00992	2252924	0.155495	-9.804647	-0.094310				-0.003373	-0.000175	-0.003316				-90.427968	-0.906509	-42.927594
00993	2252974	0.173017	-9.795656	-0.094613				-0.002633	0.001774	-0.003918				-90.426771	-0.906868	-42.927855
00994	2253024	0.176745	-9.793181	-0.097996				-0.003536	0.003318	-0.001697				-90.427773	-0.907367	-42.928803
00995	2253074	0.163035	-9.804781	-0.095326				-0.006532	0.002846	0.000205				-90.427680	-0.906538	-42.929358
00996	2253124	0.170445	-9.798785	-0.093515				-0.006843	0.000248	-0.002345				-90.429643	-0.907214	-42.929422
00997	2253174	0.188713	-9.799544	-0.090614				-0.000835	-0.004397	-0.001620				-90.427933	-0.906891	-42.927898
00998	2253224	0.154615	-9.786262	-0.102931				-0.005384	-0.000438	-0.003697				-90.429470	-0.907947	-42.927762
00999	2253274	0.163040	-9.795787	-0.108872				0.000902	-0.000285	0.000264				-90.427267	-0.907102	-42.927438
01000	2253324	0.176561	-9.794656	-0.094876				-0.004210	0.001169	-0.001963				-90.428466	-0.907671	-42.927767
01001	2253374	0.173904	-9.788588	-0.074163				-0.000881	-0.000707	-0.000022				-90.426767	-0.906912	-42.927301
01002	2253424	0.171929	-9.792199	-0.088612				-0.002974	0.003781	-0.000861				-90.427595	-0.907172	-42.928372
01003	2253474	0.143109	-9.790610	-0.091633				-0.004611	0.000744	-0.000872				-90.426966	-0.906653	-42.928364
01004	2253524	0.180792	-9.795692	-0.085092				-0.002452	0.000264	-0.001878				-90.427670	-0.907191	-42.928438
01005	2253574	0.161317	-9.782676	-0.084022				-0.003745	-0.001342	-0.001462				-90.426807	-0.906834	-42.927802
01006	2253624	0.171922	-9.791359	-0.096754				-0.003581	-0.000105	0.001848				-90.427843	-0.906305	-42.927783
01007	2253674	0.159501	-9.770314	-0.087077				-0.001585	0.002414	-0.001321				-90.426315	-0.905921	-42.928221
01008	2253724	0.163476	-9.788849	-0.097153				-0.002034	-0.000060	-0.005729				-90.426885	-0.907569	-42.928180
01009	2253774	0.155978	-9.782743	-0.099372				-0.004914	0.001027	-0.002444				-90.426357	-0.907492	-42.928252
01010	2253824	0.170331	-9.788754	-0.113220				-0.009297	0.002058	0.000590				-90.429020	-0.907328	-42.928850
01011	2253874	0.176284	-9.797183	-0.100103				-0.001595	0.002903	0.001149				-90.427488	-0.906236	-42.929413
01012	2253924	0.175525	-9.785013	-0.105332				-0.001086	-0.000224	0.000010				-90.427803	-0.906236	-42.929350
01013	2253974	0.172494	-9.803239	-0.094880				-0.003551	-0.001106	0.002387				-90.426895	-0.904783	-42.928793
01014	2254024	0.164427	-9.791731	-0.109824				0.000329	-0.002627	-0.001284				-90.426812	-0.905144	-42.928043
01015	2254074	0.172018	-9.803022	-0.094435				-0.005350	0.001701	-0.000288				-90.426370	-0.904463	-42.928276
01016	2254124	0.186672	-9.807980	-0.099207				-0.003029	0.000513	0.000212				-90.427233	-0.904402	-42.928426
01017	2254174	0.162823	-9.803356	-0.095224				-0.002418	0.002270	-0.001613				-90.425960	-0.904102	-42.928842
01018	2254224	0.161736	-9.790753	-0.098021				-0.007048	-0.001238	-0.001294				-90.427978	-0.904465	-42.928480
01019	2254274	0.168536	-9.803072	-0.108960				-0.002214	-0.001017	0.000972				-90.426672	-0.903431	-42.927928
01020	2254324	0.153897	-9.776129	-0.083590				-0.006440	0.002680	-0.003967				-90.428504	-0.904567	-42.928692
01021	2254374	0.166761	-9.791938	-0.094159				-0.003590	-0.001307	-0.002454				-90.427587	-0.904499	-42.928082
01022	2254424	0.169700	-9.789220	-0.114702				-0.002589	0.000453	-0.001647				-90.428326	-0.904973	-42.928208
01023	2254474	0.166616	-9.801139	-0.097229				-0.003228	0.000478	-0.000462				-90.427290	-0.904340	-42.928098
01024	2254524	0.169235	-9.787403	-0.094184				-0.006670	0.001196	-0.000382				-90.429202	-0.904455	-42.928441
01025	2254574	0.167529	-9.814120	-0.101259				-0.004958	0.002483	-0.002342				-90.428669	-0.904364	-42.928896
01026	2254624	0.183811	-9.798093	-0.081091				-0.006532	0.002846	0.000107				-90.430538	-0.904343	-42.929715
01027	2254674	0.171923	-9.800814	-0.099365				-0.004113	-0.001095	-0.003931				-90.429750	-0.904695	-42.929184
01028	2254724	0.152819	-9.762795	-0.103395				-0.003019	0.001062	-0.000746				-90.430612	-0.904916	-42.929487
01029	2254774	0.184620	-9.807151	-0.108734				-0.000995	0.001808	-0.001488				-90.428918	-0.904571	-42.929765
01030	2254824	0.166179	-9.782647	-0.097472				-0.002748	0.003589	-0.002788				-90.429696	-0.905375	-42.930792
01031	2254874	0.169688	-9.801168	-0.093127				-0.003070	0.000610	-0.001708				-90.428622	-0.905099	-42.930706
01032	2254924	0.151819	-9.795259	-0.105696				-0.002559	0.000750	-0.000618				-90.429351	-0.905282	-42.930919
01033	2254974	0.179562	-9.806783	-0.105679				-0.005005	0.000061	0.000118				-90.428847	-0.904481	-42.930716
01034	2255024	0.153707	-9.775548	-0.106489				-0.002085	-0.000148	-0.000689				-90.429456	-0.904677	-42.930680
01035	2255074	0.160656	-9.782997	-0.094046				-0.001653	0.002277	-0.003725				-90.427980	-0.904980	-42.931111
01036	2255124	0.171977	-9.787652	-0.106639				-0.003696	0.002215	-0.001094				-90.429017	-0.905294	-42.931738
01037	2255174	0.176088	-9.793637	-0.099850				-0.003098	-0.001684	-0.001017				-90.427948	-0.904812	-42.931015
01038	2255224	0.168813	-9.781968	-0.108449				-0.002327	0.000430	-0.000879				-90.428595	-0.905060	-42.931131
01039	2255274	0.170626	-9.797976	-0.099664				-0.003520	-0.000273	-0.001077				-90.427672	-0.904609	-42.930825
01040	2255324	0.130522	-9.784872	-0.105232				-0.005268	0.000280	-0.000867				-90.429182	-0.904856	-42.930902
01041	2255374	0.164040	-9.787752	-0.090589				-0.006203	-0.001740	-0.000976				-90.429011	-0.904357	-42.930151
01042	2255424	0.163835	-9.798316	-0.113995				-0.003912	-0.000245	-0.001939				-90.430136	-0.904918	-42.930077
01043	2255474	0.166868	-9.795662	-0.099175				-0.004243	0.003041	-0.003235				-90.429366	-0.905075	-42.930684
01044	2255524	0.189578	-9.797408	-0.090071				-0.002515	0.002598	0.000189				-90.430069	-0.905028	-42.931431
01045	2255574	0.174057	-9.784203	-0.097702				-0.002613	0.001227	-0.003026				-90.428862	-0.905137	-42.931523
01046	2255624	0.185578	-9.789164	-0.104721				-0.002119	0.000787	-0.001585				-90.429457	-0.905595	-42.931734
01047	2255674	0.176516	-9.801365	-0.105630				-0.003473	0.000449	0.002364				-90.428510	-0.904150	-42.931643
01048	2255724	0.171362	-9.792297	-0.113284				-0.003864	0.004635	-0.000118				-90.429595	-0.904192	-42.932970
01049	2255774	0.170061	-9.789355	-0.105295				-0.007528	-0.000048	0.000349				-90.429799	-0.903327	-42.932705
01050	2255824	0.175423	-9.779269	-0.124110				-0.002226	0.003241	-0.002567				-90.430425	-0.904070	-42.933627
01051	2255874	0.171267	-9.790620	-0.099551				-0.009645	0.002917	-0.002453				-90.431205	-0.904012	-42.934205
01052	2255924	0.166488	-9.791522	-0.090689				-0.001790	-0.000532	-0.002876				-90.431729	-0.904839	-42.934053
01053	2255974	0.173443	-9.805047	-0.100606				-0.003390	0.001343	-0.003344				-90.430738	-0.905033	-42.934179
01054	2256024	0.153457	-9.779881	-0.087099				-0.003629	0.000082	-0.002292				-90.431786	-0.905692	-42.934203
01055	2256074	0.169806	-9.804873	-0.099006				-0.005557	0.002279	-0.002180				-90.431405	-0.905556	-42.934595
01056	2256124	0.155064	-9.771373	-0.114216				-0.003209	0.001095	0.000026				-90.432316	-0.905547	-42.934907
01057	2256174	0.164656	-9.775142	-0.108503				-0.005483	0.003089	0.000171				-90.431917	-0.904744	-42.935540
01058	2256224	0.154472	-9.799438	-0.095221				-0.002299	0.001459	-0.003444				-90.432574	-0.905736	-42.935952
01059	2256274	0.171453	-9.800258	-0.104852				-0.000987	0.003649	-0.002442				-90.430855	-0.905666	-42.936712
01060	2256324	0.188149	-9.806304	-0.099308				-0.004808	0.001840	-0.001669				-90.432234	-0.906150	-42.937249
01061	2256374	0.173806	-9.789256	-0.092990				-0.006220	-0.002029	-0.000209				-90.432066	-0.905436	-42.936414
01062	2256424	0.172752	-9.788699	-0.115032				-0.003234	-0.000331	-0.000565				-90.433006	-0.905601	-42.936322
01063	2256474	0.169484	-9.800109	-0.100929				-0.006122	0.000844	-0.002537				-90.432800	-0.905557	-42.936291
01064	2256524	0.158044	-9.801476	-0.098401				-0.004248	-0.000671	-0.002068				-90.434013	-0.906147	-42.936096
01065	2256574	0.175949	-9.812745	-0.106872				-0.003577	-0.001865	-0.003330				-90.433101	-0.906326	-42.935308
01066	2256624	0.197148	-9.809625	-0.091894				-0.004736	0.001683	0.000094				-90.434455	-0.906304	-42.935791
01067	2256674	0.166329	-9.776733	-0.096463				-0.004478	0.000449	-0.003667				-90.433781	-0.906585	-42.935698
01068	2256724	0.180137	-9.808451	-0.074120				-0.006997	0.000057	-0.001609				-90.435771	-0.907038	-42.935704
01069	2256774	0.172994	-9.794380	-0.100108				-0.002564	-0.001157	-0.000665				-90.434569	-0.906468	-42.935131
01070	2256824	0.171422	-9.800804	-0.099893				-0.004424	0.002651	-0.003462				-90.435830	-0.907466	-42.935883
01071	2256874	0.155925	-9.778008	-0.113982				-0.003384	0.000407	-0.001998				-90.434841	-0.907276	-42.935736
01072	2256924	0.173446	-9.799302	-0.103147				-0.001554	0.004781	0.001096				-90.435262	-0.906972	-42.937113
01073	2256974	0.169573	-9.795786	-0.103671				-0.003648	-0.001107	0.002100				-90.434349	-0.905596	-42.936589
01074	2257024	0.167122	-9.789853	-0.090266				-0.002168	0.000660	0.000949				-90.434977	-0.905333	-42.936784
01075	2257074	0.167922	-9.792490	-0.087762				0.000122	0.000989	-0.001239				-90.432981	-0.904913	-42.936832
01076	2257124	0.169380	-9.789312	-0.092680				-0.002225	-0.002255	-0.004745				-90.433634	-0.906275	-42.936179
01077	2257174	0.154257	-9.784237	-0.096113				-0.000706	-0.003196	-0.000264				-90.431881	-0.905567	-42.935024
01078	2257224	0.157813	-9.802797	-0.104713				-0.005239	-0.000588	0.000471				-90.433394	-0.905432	-42.934859
01079	2257274	0.160882	-9.798784	-0.101302				-0.006218	-0.000189	-0.000136				-90.433210	-0.904709	-42.934535
01080	2257324	0.142331	-9.781911	-0.102632				-0.004184	-0.001575	-0.000501				-90.434408	-0.904846	-42.934079
01081	2257374	0.162383	-9.803502	-0.102023				-0.004262	0.005150	0.000306				-90.433656	-0.904004	-42.935317
01082	2257424	0.157567	-9.799432	-0.107929				-0.003201	0.000806	0.000086				-90.434564	-0.903982	-42.935541
01083	2257474	0.169259	-9.794804	-0.106320				-0.001879	0.001174	-0.003859				-90.433167	-0.904312	-42.935647
01084	2257524	0.176592	-9.800229	-0.102728				-0.004262	0.001951	-0.000191				-90.434394	-0.904372	-42.936216
