// General information: 
//  MT Manager version: 2022.0.0 
//  XDA version: 2022.0.0 build 7085 rev 119802 built on 2022-11-08
// Device information: 
//  DeviceId: 037004D1
//  ProductCode: MTi-300-2A5G4
//  Firmware Version: 1.4.1
//  Hardware Version: 2.1.0
// Device settings: 
//  Filter Profile: general(39.16)
//  Option Flags: Orientation Smoother Disabled, Position/Velocity Smoother Disabled, Continuous Zero Rotation Update Disabled, AHS Disabled, ICC Disabled
// Coordinate system: ENU
PacketCounter	SampleTimeFine	Acc_X	Acc_Y	Acc_Z	AccHR_X	AccHR_Y	AccHR_Z	Gyr_X	Gyr_Y	Gyr_Z	GyrHR_X	GyrHR_Y	GyrHR_Z	Roll	Pitch	Yaw
00001	14917162	-9.795582	-0.164649	-0.250341				-0.002178	0.001196	0.000501				-148.930622	88.388560	-102.206615
00002	14917212	-9.804664	-0.164239	-0.245853				-0.003614	0.005107	-0.002330				-148.938153	88.386815	-102.213177
00003	14917262	-9.807088	-0.148039	-0.233542				-0.000378	0.002067	-0.001908				-148.938049	88.387094	-102.215044
00004	14917312	-9.818297	-0.150840	-0.224044				-0.006387	-0.002205	0.001843				-148.944191	88.388127	-102.219254
00005	14917362	-9.805247	-0.156579	-0.244372				-0.005305	0.003183	0.001320				-148.980307	88.387659	-102.256363
00006	14917412	-9.808929	-0.148399	-0.242509				-0.003802	-0.002361	-0.001758				-148.953658	88.388054	-102.228579
00007	14917462	-9.830899	-0.121960	-0.246568				-0.001433	-0.000923	0.000428				-148.959297	88.388864	-102.236146
00008	14917512	-9.800588	-0.137087	-0.227856				-0.002041	0.001001	-0.000338				-148.962218	88.388323	-102.238595
00009	14917562	-9.796268	-0.151502	-0.243451				-0.003830	0.001912	-0.000584				-148.974366	88.388891	-102.251709
00010	14917612	-9.809809	-0.150409	-0.250282				-0.005419	0.000266	-0.001519				-148.963878	88.388533	-102.239696
00011	14917662	-9.800361	-0.155068	-0.227835				-0.006717	0.001249	0.002917				-149.003565	88.389539	-102.279601
00012	14917712	-9.814531	-0.131880	-0.256206				-0.005209	-0.001318	-0.002008				-148.980644	88.389568	-102.255179
00013	14917762	-9.803978	-0.145260	-0.241868				-0.004334	-0.000461	-0.000720				-148.979903	88.389726	-102.255680
00014	14917812	-9.807268	-0.181642	-0.251502				-0.005289	0.000501	0.002043				-149.001898	88.390090	-102.276083
00015	14917862	-9.802311	-0.157954	-0.255057				-0.002033	-0.002786	-0.004268				-148.956817	88.390428	-102.232800
00016	14917912	-9.799564	-0.155770	-0.240462				-0.000474	-0.001570	-0.006449				-148.892297	88.389855	-102.168117
00017	14917962	-9.803744	-0.160626	-0.247059				-0.001799	-0.004072	-0.002643				-148.854187	88.391670	-102.131501
00018	14918012	-9.788868	-0.173333	-0.240135				-0.007073	0.002076	-0.000802				-148.860293	88.390983	-102.135609
00019	14918062	-9.805836	-0.155226	-0.229016				-0.000276	0.003006	-0.000841				-148.874527	88.391411	-102.151745
00020	14918112	-9.793525	-0.179909	-0.243985				-0.006202	0.003036	0.002055				-148.910359	88.391143	-102.185734
00021	14918162	-9.798266	-0.156796	-0.256726				-0.007935	-0.002173	-0.000142				-148.905918	88.391896	-102.181446
00022	14918212	-9.803703	-0.167919	-0.239202				-0.003441	-0.002676	-0.002342				-148.872468	88.392061	-102.147063
00023	14918262	-9.816982	-0.153475	-0.239026				-0.006308	0.002353	0.001577				-148.906693	88.392255	-102.181799
00024	14918312	-9.810153	-0.161403	-0.249576				-0.006620	0.000663	-0.002507				-148.890498	88.391728	-102.163690
00025	14918362	-9.794812	-0.154625	-0.240266				-0.005945	0.001001	0.000956				-148.911828	88.391991	-102.185702
00026	14918412	-9.802282	-0.154817	-0.264724				-0.002252	0.000580	0.000047				-148.915917	88.392036	-102.189070
00027	14918462	-9.797396	-0.160996	-0.234744				-0.006209	-0.000141	-0.003573				-148.892214	88.391630	-102.166091
00028	14918512	-9.812212	-0.127505	-0.253895				-0.003847	0.000624	0.003482				-148.926615	88.392262	-102.199280
00029	14918562	-9.814490	-0.136310	-0.253709				-0.004780	0.005037	0.003640				-148.992893	88.392188	-102.266487
00030	14918612	-9.808764	-0.142917	-0.242819				-0.004487	0.000121	-0.000881				-148.987076	88.392138	-102.259338
00031	14918662	-9.798482	-0.145766	-0.242309				-0.004750	0.005035	0.002933				-149.047310	88.391468	-102.320743
00032	14918712	-9.808895	-0.147271	-0.250807				-0.005788	0.003006	0.000583				-149.069825	88.390895	-102.341570
00033	14918762	-9.802943	-0.154546	-0.235456				-0.003339	0.000365	-0.001584				-149.064182	88.391536	-102.337081
00034	14918812	-9.807060	-0.150624	-0.231062				-0.006476	-0.002566	0.001036				-149.061529	88.392548	-102.332468
00035	14918862	-9.821567	-0.132383	-0.234469				-0.002105	0.001739	-0.004116				-149.041964	88.392054	-102.314613
00036	14918912	-9.816177	-0.147342	-0.266550				-0.007158	0.001818	0.000006				-149.053721	88.391489	-102.324378
00037	14918962	-9.802191	-0.168507	-0.251868				-0.005212	0.004219	0.002125				-149.102135	88.391288	-102.373653
00038	14919012	-9.814880	-0.146655	-0.246817				-0.004093	-0.003103	0.000772				-149.093496	88.392235	-102.363806
00039	14919062	-9.778193	-0.189814	-0.239210				-0.003222	0.001559	-0.003797				-149.075821	88.391932	-102.347482
00040	14919112	-9.806778	-0.159305	-0.221135				-0.006909	0.003213	0.001199				-149.105265	88.391209	-102.375008
00041	14919162	-9.812397	-0.154987	-0.246422				-0.003053	-0.001534	-0.000955				-149.096534	88.392222	-102.367598
00042	14919212	-9.814439	-0.151036	-0.232297				-0.005276	0.000714	-0.002924				-149.076207	88.391824	-102.345656
00043	14919262	-9.812629	-0.158144	-0.240459				-0.002813	0.000247	0.000754				-149.091085	88.392368	-102.362091
00044	14919312	-9.796390	-0.158680	-0.247936				-0.002442	-0.000081	-0.005475				-149.043272	88.391778	-102.313469
00045	14919362	-9.784898	-0.170523	-0.233552				-0.003821	-0.000709	-0.000473				-149.043388	88.391746	-102.315130
00046	14919412	-9.808773	-0.155341	-0.253418				-0.005476	0.001099	-0.001420				-149.038430	88.391147	-102.308653
00047	14919462	-9.797718	-0.148697	-0.245557				-0.006516	0.001436	-0.002505				-149.031837	88.391439	-102.302283
00048	14919512	-9.807732	-0.125512	-0.251703				-0.002981	-0.000023	-0.004826				-148.990365	88.390429	-102.260079
00049	14919562	-9.804880	-0.126642	-0.248649				-0.004995	0.001177	-0.000390				-149.000700	88.390737	-102.271222
00050	14919612	-9.811303	-0.141743	-0.258388				-0.002184	0.000223	-0.001943				-148.985436	88.390731	-102.255169
00051	14919662	-9.800553	-0.152828	-0.241158				-0.003032	-0.002346	-0.001695				-148.965434	88.391797	-102.236514
00052	14919712	-9.805964	-0.137882	-0.242416				-0.005173	0.000817	-0.001129				-148.961203	88.391427	-102.230797
00053	14919762	-9.801628	-0.132302	-0.262575				-0.003061	0.000920	0.000147				-148.974657	88.391585	-102.245779
00054	14919812	-9.810335	-0.147129	-0.249564				-0.004155	0.000799	-0.002091				-148.962170	88.390833	-102.232206
00055	14919862	-9.812680	-0.130505	-0.250671				-0.003931	-0.003202	-0.001091				-148.942717	88.392442	-102.213737
00056	14919912	-9.792600	-0.147917	-0.227103				-0.008959	-0.000994	-0.000173				-148.938642	88.392433	-102.207192
00057	14919962	-9.799854	-0.165990	-0.250077				-0.005530	-0.000327	-0.001974				-148.927430	88.392986	-102.196612
00058	14920012	-9.805006	-0.151966	-0.254341				-0.002401	-0.000915	-0.001825				-148.907368	88.392934	-102.175862
00059	14920062	-9.813421	-0.147203	-0.251493				-0.004132	-0.000083	-0.004954				-148.871121	88.393128	-102.140551
00060	14920112	-9.820092	-0.154825	-0.234459				-0.002471	0.001377	-0.002773				-148.854975	88.392455	-102.123659
00061	14920162	-9.789964	-0.168765	-0.226098				-0.001077	-0.002148	0.000605				-148.855305	88.393573	-102.125998
00062	14920212	-9.815585	-0.151121	-0.238802				-0.001976	0.003168	-0.000263				-148.870176	88.392778	-102.140296
00063	14920262	-9.832867	-0.139493	-0.240799				-0.000734	-0.001148	-0.003658				-148.838306	88.393609	-102.110279
00064	14920312	-9.817884	-0.144739	-0.227738				-0.003738	0.001707	-0.004594				-148.808053	88.392551	-102.078921
00065	14920362	-9.801695	-0.163583	-0.226179				-0.001682	0.001711	-0.002582				-148.801664	88.392069	-102.074445
00066	14920412	-9.804611	-0.159243	-0.226369				-0.001475	0.001492	-0.001304				-148.798674	88.391373	-102.071098
00067	14920462	-9.807748	-0.141753	-0.254863				-0.000897	0.000272	-0.001013				-148.797479	88.391940	-102.071846
00068	14920512	-9.815620	-0.142422	-0.251752				-0.006487	0.001792	-0.001605				-148.794951	88.391169	-102.067500
00069	14920562	-9.799063	-0.152697	-0.251503				-0.004753	-0.000643	-0.004448				-148.759948	88.391585	-102.033258
00070	14920612	-9.825647	-0.135036	-0.223373				-0.002910	0.001503	0.002368				-148.789442	88.391323	-102.062042
00071	14920662	-9.827224	-0.134656	-0.238489				-0.006357	0.000727	-0.000519				-148.796571	88.391514	-102.069698
00072	14920712	-9.793686	-0.150167	-0.240085				-0.001561	0.003232	-0.001870				-148.797638	88.390359	-102.070358
00073	14920762	-9.801641	-0.143962	-0.236617				-0.004150	-0.000600	-0.004541				-148.762236	88.390971	-102.035814
00074	14920812	-9.805454	-0.155465	-0.251343				-0.003093	0.003521	-0.006966				-148.720852	88.389429	-101.993371
00075	14920862	-9.818347	-0.139198	-0.240416				-0.002915	-0.000129	-0.006112				-148.674692	88.388722	-101.948827
00076	14920912	-9.793135	-0.129219	-0.255719				-0.005662	0.003229	-0.000060				-148.693018	88.387843	-101.965575
00077	14920962	-9.795187	-0.141141	-0.246786				-0.003746	0.001997	-0.004595				-148.670861	88.387249	-101.944634
00078	14921012	-9.816018	-0.138905	-0.232450				-0.003044	-0.002836	-0.001510				-148.643683	88.387798	-101.916533
00079	14921062	-9.813169	-0.132844	-0.243324				-0.001463	-0.000063	-0.002300				-148.629781	88.388215	-101.904430
00080	14921112	-9.810652	-0.161663	-0.246011				-0.004718	0.000529	-0.002065				-148.615784	88.387913	-101.889015
00081	14921162	-9.790851	-0.166715	-0.241521				-0.004700	0.000854	-0.002418				-148.607131	88.387568	-101.881477
00082	14921212	-9.799452	-0.162164	-0.207117				-0.004758	-0.001478	-0.003229				-148.572266	88.387313	-101.845301
00083	14921262	-9.797702	-0.168873	-0.245962				-0.003895	-0.002334	-0.002149				-148.548644	88.387900	-101.822967
00084	14921312	-9.806635	-0.153328	-0.258735				-0.002540	0.003640	-0.001123				-148.558871	88.386769	-101.832499
00085	14921362	-9.805000	-0.161013	-0.236725				-0.003430	0.003431	-0.001252				-148.573314	88.386434	-101.848237
00086	14921412	-9.821788	-0.163607	-0.251196				-0.005489	0.002585	-0.002241				-148.569179	88.385503	-101.842506
00087	14921462	-9.800843	-0.169787	-0.237729				-0.003917	-0.002886	-0.003978				-148.526027	88.386439	-101.800419
00088	14921512	-9.786614	-0.171151	-0.223255				-0.001619	-0.002389	-0.000645				-148.508029	88.387134	-101.781856
00089	14921562	-9.804662	-0.147349	-0.242220				-0.001132	0.001729	0.000336				-148.526830	88.386960	-101.802808
00090	14921612	-9.807971	-0.142683	-0.254612				-0.002780	0.000184	0.000205				-148.530569	88.386794	-101.805820
00091	14921662	-9.808131	-0.146723	-0.260001				-0.003486	0.004171	-0.001695				-148.544810	88.386665	-101.821100
00092	14921712	-9.803699	-0.153044	-0.232044				-0.000563	-0.001438	-0.003213				-148.509612	88.386449	-101.785769
00093	14921762	-9.801346	-0.145236	-0.243824				-0.006101	0.000531	-0.002510				-148.498009	88.386627	-101.774684
00094	14921812	-9.805830	-0.127829	-0.247139				-0.005430	-0.000062	0.000051				-148.499810	88.386547	-101.774978
00095	14921862	-9.802078	-0.146699	-0.236402				-0.004975	0.000690	0.000757				-148.517327	88.387390	-101.793212
00096	14921912	-9.821379	-0.141626	-0.245903				-0.005566	0.000194	0.000057				-148.520527	88.387073	-101.794940
00097	14921962	-9.805000	-0.153956	-0.250218				-0.002084	-0.001685	-0.000674				-148.512659	88.387659	-101.788914
00098	14922012	-9.795328	-0.150574	-0.241494				-0.004151	0.000994	-0.000047				-148.518741	88.387406	-101.793811
00099	14922062	-9.800753	-0.134926	-0.244378				-0.004704	0.001340	-0.000586				-148.527611	88.388288	-101.803343
00100	14922112	-9.822529	-0.140808	-0.253864				-0.004421	0.002215	-0.001061				-148.531616	88.387379	-101.806177
00101	14922162	-9.812292	-0.142201	-0.250701				-0.003918	-0.000788	-0.003774				-148.502140	88.387702	-101.777810
00102	14922212	-9.793409	-0.153388	-0.240324				-0.007514	0.000902	0.000124				-148.509836	88.387863	-101.783190
00103	14922262	-9.811011	-0.136668	-0.238057				-0.003194	0.000875	-0.003674				-148.489795	88.386954	-101.764881
00104	14922312	-9.815189	-0.168357	-0.230651				-0.000447	0.001217	-0.002430				-148.475468	88.386118	-101.750494
00105	14922362	-9.804087	-0.157065	-0.238077				-0.002395	0.000289	0.002291				-148.503013	88.387395	-101.779482
00106	14922412	-9.795945	-0.163113	-0.233103				-0.003741	0.000161	-0.000464				-148.500978	88.387010	-101.776499
00107	14922462	-9.795504	-0.159947	-0.233348				-0.006079	0.001191	-0.000099				-148.513827	88.387720	-101.789716
00108	14922512	-9.772685	-0.174297	-0.237184				-0.004157	-0.001818	0.001285				-148.516736	88.388393	-101.791412
00109	14922562	-9.819410	-0.147040	-0.244776				-0.001583	-0.000320	-0.000567				-148.516783	88.388979	-101.793294
00110	14922612	-9.809384	-0.152772	-0.238057				-0.004108	0.001414	-0.002286				-148.505657	88.388088	-101.781077
00111	14922662	-9.807974	-0.154667	-0.229265				-0.002579	0.002094	0.000663				-148.529279	88.388478	-101.806173
00112	14922712	-9.804959	-0.146355	-0.233499				-0.004160	-0.000142	-0.003386				-148.500240	88.388128	-101.775881
00113	14922762	-9.792422	-0.151100	-0.250043				-0.003748	-0.001648	0.000966				-148.507281	88.389073	-101.784229
00114	14922812	-9.807615	-0.124788	-0.233766				-0.002313	0.000376	-0.002005				-148.492390	88.388698	-101.768660
00115	14922862	-9.803024	-0.141565	-0.248398				-0.001550	-0.001285	-0.000062				-148.491451	88.389621	-101.769559
00116	14922912	-9.792677	-0.138675	-0.233112				-0.002590	-0.000016	-0.003330				-148.463311	88.389301	-101.740587
00117	14922962	-9.804834	-0.151398	-0.243602				-0.003836	0.001064	-0.001457				-148.463455	88.389495	-101.741872
00118	14923012	-9.819965	-0.143575	-0.239703				-0.002609	0.000926	-0.000501				-148.464719	88.389171	-101.742403
00119	14923062	-9.806758	-0.155642	-0.233079				-0.005130	0.000228	-0.003190				-148.445952	88.388435	-101.724817
00120	14923112	-9.822710	-0.144853	-0.255460				-0.004492	-0.000896	-0.003869				-148.408653	88.388521	-101.686019
00121	14923162	-9.807211	-0.143964	-0.221870				-0.005926	0.001284	-0.002381				-148.402957	88.388696	-101.680804
00122	14923212	-9.818287	-0.141387	-0.245951				-0.001576	0.000517	-0.001848				-148.390040	88.388357	-101.667401
00123	14923262	-9.801284	-0.170219	-0.240489				-0.003871	-0.000075	-0.003583				-148.365310	88.388401	-101.643837
00124	14923312	-9.795840	-0.165079	-0.247501				-0.000606	0.001016	-0.003362				-148.341715	88.387692	-101.620034
00125	14923362	-9.793648	-0.172183	-0.239859				-0.005978	0.001962	-0.001096				-148.350884	88.387758	-101.629743
00126	14923412	-9.789151	-0.186769	-0.246059				-0.000194	-0.000846	-0.002183				-148.327589	88.387443	-101.606465
00127	14923462	-9.796531	-0.188786	-0.241185				-0.002544	-0.000273	0.000615				-148.338181	88.388446	-101.618500
00128	14923512	-9.795341	-0.153282	-0.234732				-0.003642	-0.001065	-0.000764				-148.327238	88.388510	-101.606547
00129	14923562	-9.794145	-0.161323	-0.259020				-0.007272	0.000658	0.004900				-148.380924	88.389728	-101.660478
00130	14923612	-9.818046	-0.172889	-0.259485				-0.003017	-0.000340	0.001168				-148.390153	88.389796	-101.668930
00131	14923662	-9.813109	-0.141450	-0.234712				-0.003341	-0.000477	0.000299				-148.396825	88.390937	-101.676783
00132	14923712	-9.811223	-0.140722	-0.233093				-0.004756	0.003022	-0.000288				-148.411989	88.390106	-101.690609
00133	14923762	-9.806546	-0.147548	-0.244866				-0.003491	0.002497	0.000957				-148.440653	88.390371	-101.720515
00134	14923812	-9.817704	-0.149883	-0.244919				-0.001333	-0.002289	-0.001221				-148.418467	88.390744	-101.697940
00135	14923862	-9.779663	-0.162623	-0.248549				-0.001253	0.002534	0.000017				-148.438114	88.390438	-101.719643
00136	14923912	-9.792809	-0.158192	-0.250595				-0.006961	-0.000346	0.000373				-148.441392	88.390459	-101.720981
00137	14923962	-9.801088	-0.163670	-0.247229				-0.005100	-0.000806	-0.002105				-148.426602	88.390910	-101.707029
00138	14924012	-9.824065	-0.148057	-0.259837				-0.006815	0.002049	-0.000156				-148.438172	88.390425	-101.716633
00139	14924062	-9.793289	-0.143730	-0.240066				-0.003619	0.000159	-0.002135				-148.427109	88.391097	-101.706641
00140	14924112	-9.819171	-0.153094	-0.233029				-0.000836	0.001637	0.001553				-148.449542	88.390855	-101.728873
00141	14924162	-9.803372	-0.156951	-0.238617				-0.003278	0.002656	-0.002668				-148.448110	88.390438	-101.728763
00142	14924212	-9.782291	-0.153740	-0.226740				-0.005274	0.003075	-0.000351				-148.463225	88.389542	-101.742416
00143	14924262	-9.785784	-0.174372	-0.235995				-0.007644	-0.001270	-0.002714				-148.441032	88.390027	-101.720316
00144	14924312	-9.801288	-0.151188	-0.239951				-0.002306	-0.001787	-0.000802				-148.425274	88.390353	-101.703884
00145	14924362	-9.814921	-0.165272	-0.241356				-0.004343	-0.000107	-0.000239				-148.429647	88.391122	-101.709190
00146	14924412	-9.808797	-0.147851	-0.226076				-0.003237	0.000299	-0.001879				-148.415821	88.390700	-101.694461
00147	14924462	-9.811806	-0.165742	-0.243246				-0.002943	-0.001863	-0.000414				-148.409247	88.391411	-101.689460
00148	14924512	-9.811594	-0.161306	-0.248648				-0.003526	0.002658	0.000700				-148.430618	88.390765	-101.709878
00149	14924562	-9.807817	-0.167319	-0.231190				-0.001446	-0.003939	-0.002256				-148.396211	88.392448	-101.677118
00150	14924612	-9.807258	-0.172380	-0.233043				-0.003239	0.000595	0.001266				-148.411318	88.392750	-101.691183
00151	14924662	-9.809322	-0.155233	-0.242114				-0.002600	-0.000300	0.002160				-148.435608	88.393469	-101.717145
00152	14924712	-9.803432	-0.151638	-0.239462				-0.002372	-0.002721	-0.000163				-148.420498	88.393914	-101.701433
00153	14924762	-9.803079	-0.139468	-0.243681				-0.003675	0.002331	0.001597				-148.453477	88.394359	-101.735594
00154	14924812	-9.818673	-0.137223	-0.229880				-0.005247	0.000205	0.001014				-148.465154	88.394297	-101.745840
00155	14924862	-9.823376	-0.149536	-0.252412				-0.002690	0.001539	0.002044				-148.498254	88.394616	-101.780556
00156	14924912	-9.800221	-0.154526	-0.253435				-0.003117	0.000460	-0.001366				-148.489779	88.394174	-101.771243
00157	14924962	-9.808873	-0.143012	-0.262960				-0.002524	-0.000814	0.001130				-148.501986	88.395544	-101.784855
00158	14925012	-9.799123	-0.145006	-0.256618				0.000980	0.001568	-0.002202				-148.490577	88.394857	-101.773713
00159	14925062	-9.796696	-0.155108	-0.244108				-0.000508	0.000253	-0.000796				-148.491123	88.395895	-101.776114
00160	14925112	-9.803819	-0.152714	-0.251947				-0.002832	-0.001541	-0.002369				-148.462999	88.395805	-101.747218
00161	14925162	-9.788485	-0.165669	-0.240356				-0.002509	-0.000367	0.000423				-148.471650	88.396348	-101.757540
00162	14925212	-9.812458	-0.156380	-0.233253				-0.007243	0.001588	0.000867				-148.489991	88.396049	-101.773826
00163	14925262	-9.787934	-0.174113	-0.235590				0.000315	0.002465	-0.001494				-148.495815	88.395918	-101.781996
00164	14925312	-9.800026	-0.155871	-0.242229				-0.004385	0.002348	-0.000007				-148.509274	88.395531	-101.794124
00165	14925362	-9.812171	-0.147553	-0.220820				-0.003202	0.001235	-0.001358				-148.511342	88.395081	-101.797799
00166	14925412	-9.798412	-0.169591	-0.244384				-0.005783	0.000836	-0.000589				-148.512369	88.394906	-101.797117
00167	14925462	-9.808024	-0.168730	-0.232782				-0.002884	-0.001834	-0.002534				-148.487556	88.395626	-101.773752
00168	14925512	-9.791260	-0.179233	-0.226618				-0.002933	-0.000113	-0.000084				-148.486954	88.395616	-101.772322
00169	14925562	-9.814888	-0.154829	-0.228518				-0.003200	0.002272	-0.000488				-148.501545	88.395607	-101.788284
00170	14925612	-9.803122	-0.153707	-0.247038				0.001202	0.002995	-0.001042				-148.508132	88.394698	-101.795227
00171	14925662	-9.798279	-0.150335	-0.228834				-0.002408	0.001413	-0.000851				-148.515315	88.394931	-101.803954
00172	14925712	-9.810473	-0.142165	-0.237557				-0.007185	0.000385	-0.002798				-148.495313	88.394335	-101.781930
00173	14925762	-9.812301	-0.147547	-0.238037				-0.003880	0.000286	-0.001617				-148.489532	88.394718	-101.777273
00174	14925812	-9.795450	-0.163799	-0.234139				-0.003992	0.001866	-0.002994				-148.474758	88.393554	-101.761471
00175	14925862	-9.813144	-0.150425	-0.250212				-0.003767	-0.001131	0.000009				-148.476293	88.394655	-101.764087
00176	14925912	-9.815398	-0.149693	-0.233328				-0.003710	0.002429	0.000734				-148.496948	88.394151	-101.783693
00177	14925962	-9.816700	-0.151177	-0.251593				-0.001996	-0.003525	-0.000010				-148.484665	88.395464	-101.773183
00178	14926012	-9.821855	-0.137137	-0.254839				-0.004400	0.001834	0.001181				-148.506188	88.395097	-101.793494
00179	14926062	-9.810390	-0.139383	-0.256965				-0.005190	0.000326	-0.000847				-148.508116	88.395315	-101.796312
00180	14926112	-9.817030	-0.132186	-0.236352				-0.003385	0.001172	-0.000399				-148.512201	88.394704	-101.799545
00181	14926162	-9.800582	-0.143899	-0.254193				-0.003988	0.001407	-0.004179				-148.489949	88.394987	-101.778122
00182	14926212	-9.805142	-0.153085	-0.229665				-0.001362	-0.001480	-0.001994				-148.465185	88.394864	-101.753037
00183	14926262	-9.799149	-0.149445	-0.244439				-0.005223	0.003330	-0.002374				-148.469744	88.394653	-101.758208
00184	14926312	-9.800279	-0.154732	-0.243362				-0.000072	-0.000653	-0.002693				-148.442810	88.394589	-101.731162
00185	14926362	-9.801116	-0.150379	-0.232838				-0.005211	0.000777	-0.003573				-148.423473	88.394181	-101.712732
00186	14926412	-9.814353	-0.157465	-0.231511				-0.001919	-0.001543	0.003401				-148.445321	88.395245	-101.733961
00187	14926462	-9.796474	-0.167681	-0.254203				-0.003349	0.001042	0.001976				-148.475022	88.395594	-101.765146
00188	14926512	-9.796741	-0.166560	-0.252515				-0.003493	0.002427	-0.000679				-148.483369	88.394799	-101.772543
00189	14926562	-9.799702	-0.149572	-0.230475				-0.003947	0.001746	0.001916				-148.516071	88.395546	-101.806306
00190	14926612	-9.801391	-0.156725	-0.251498				-0.004863	-0.001091	-0.001466				-148.499021	88.395388	-101.787947
00191	14926662	-9.803652	-0.170173	-0.243869				-0.006868	0.001425	-0.003914				-148.480430	88.395601	-101.769397
00192	14926712	-9.819163	-0.154811	-0.230353				-0.007845	0.000380	0.001311				-148.496243	88.395677	-101.782976
00193	14926762	-9.800875	-0.162494	-0.246472				-0.004710	-0.000796	-0.001785				-148.483426	88.396658	-101.770896
00194	14926812	-9.810041	-0.152805	-0.246447				0.000641	0.000173	-0.001985				-148.467076	88.396343	-101.754712
00195	14926862	-9.808796	-0.144721	-0.232064				-0.002641	-0.000143	0.000973				-148.481396	88.396612	-101.770812
00196	14926912	-9.791389	-0.144866	-0.235339				-0.000767	0.003714	0.002879				-148.526598	88.396470	-101.815658
00197	14926962	-9.806054	-0.146951	-0.249344				0.000265	0.000808	-0.003809				-148.503400	88.396222	-101.794852
00198	14927012	-9.793092	-0.172231	-0.253021				-0.004423	0.001211	-0.001708				-148.496490	88.395760	-101.786631
00199	14927062	-9.798717	-0.151448	-0.232628				-0.005047	0.001752	-0.002699				-148.489646	88.395433	-101.780677
00200	14927112	-9.808998	-0.135105	-0.259324				-0.003451	-0.002100	-0.000544				-148.474468	88.395939	-101.764472
00201	14927162	-9.813478	-0.154095	-0.266887				-0.004200	0.003316	-0.003849				-148.466159	88.394752	-101.757421
00202	14927212	-9.811573	-0.143037	-0.249424				-0.000319	0.005525	-0.000126				-148.494652	88.393408	-101.785824
00203	14927262	-9.803293	-0.134928	-0.256539				-0.005449	-0.001010	-0.005472				-148.449190	88.393636	-101.740959
00204	14927312	-9.795644	-0.158805	-0.252804				-0.002382	0.002440	-0.004695				-148.422089	88.392341	-101.713167
00205	14927362	-9.806681	-0.156123	-0.244046				-0.008424	0.000110	-0.001320				-148.419921	88.392656	-101.710883
00206	14927412	-9.780016	-0.177000	-0.239215				-0.005370	0.003239	0.000802				-148.445977	88.391812	-101.735490
00207	14927462	-9.809996	-0.137641	-0.246722				-0.004447	0.002186	-0.000712				-148.458363	88.392112	-101.748719
00208	14927512	-9.814597	-0.151807	-0.243544				-0.005333	0.000615	-0.002799				-148.439202	88.391262	-101.728148
00209	14927562	-9.790291	-0.164468	-0.258586				-0.005223	0.001498	0.000054				-148.454670	88.391684	-101.744347
00210	14927612	-9.810841	-0.150180	-0.238023				-0.004920	-0.001190	-0.001721				-148.435253	88.391632	-101.723544
00211	14927662	-9.801177	-0.167102	-0.226145				-0.003518	0.000003	-0.001816				-148.426367	88.391937	-101.715941
00212	14927712	-9.815168	-0.164983	-0.240976				-0.002693	0.003082	-0.005168				-148.398681	88.390425	-101.687468
00213	14927762	-9.816977	-0.167326	-0.250727				-0.003368	0.000299	-0.001076				-148.397623	88.391038	-101.687640
00214	14927812	-9.811364	-0.161125	-0.246863				-0.001971	-0.002299	-0.000034				-148.385836	88.391485	-101.675331
00215	14927862	-9.822230	-0.168232	-0.246663				-0.004375	0.001629	-0.004465				-148.362712	88.391152	-101.653160
00216	14927912	-9.804847	-0.159260	-0.226119				-0.002599	0.001672	0.000053				-148.372857	88.390776	-101.662551
00217	14927962	-9.805347	-0.152195	-0.236615				-0.002927	0.000761	-0.000305				-148.381219	88.390767	-101.672537
00218	14928012	-9.825817	-0.152959	-0.236602				-0.003079	0.000465	-0.001427				-148.371986	88.390376	-101.662449
00219	14928062	-9.797085	-0.153145	-0.262848				-0.001665	0.002359	-0.002098				-148.373179	88.390131	-101.665424
00220	14928112	-9.811498	-0.149756	-0.248850				-0.002006	-0.000231	-0.001437				-148.360405	88.389622	-101.652228
00221	14928162	-9.792958	-0.151240	-0.238934				-0.004670	0.001411	0.002621				-148.397857	88.390985	-101.690325
00222	14928212	-9.813796	-0.142161	-0.238495				-0.000308	-0.000199	-0.002176				-148.378191	88.390652	-101.670587
00223	14928262	-9.808654	-0.143240	-0.259554				-0.006211	-0.002284	-0.005511				-148.325937	88.391105	-101.618751
00224	14928312	-9.814270	-0.127854	-0.228758				-0.005122	0.001068	-0.003923				-148.299157	88.390412	-101.590414
00225	14928362	-9.797959	-0.148762	-0.245323				-0.005896	0.000954	-0.005170				-148.266767	88.389969	-101.558662
00226	14928412	-9.830029	-0.137290	-0.242973				-0.001734	-0.000808	-0.002721				-148.239238	88.389813	-101.530602
00227	14928462	-9.804564	-0.151776	-0.249106				-0.006303	0.001054	-0.000454				-148.248945	88.389746	-101.540964
00228	14928512	-9.805200	-0.141999	-0.242830				-0.001763	-0.001044	-0.005133				-148.199633	88.389129	-101.491170
00229	14928562	-9.786377	-0.151656	-0.224061				-0.006092	-0.000153	-0.007714				-148.139240	88.388813	-101.431201
00230	14928612	-9.812360	-0.159101	-0.244231				-0.005241	-0.000485	-0.003672				-148.106870	88.387952	-101.397506
00231	14928662	-9.799458	-0.170831	-0.227339				-0.002045	-0.000038	-0.002015				-148.095375	88.388562	-101.387572
00232	14928712	-9.801356	-0.186966	-0.234916				-0.004671	-0.000754	0.002483				-148.113982	88.389139	-101.404835
00233	14928762	-9.828695	-0.163314	-0.250737				-0.001805	0.001582	-0.002611				-148.106402	88.389210	-101.398927
00234	14928812	-9.835318	-0.153466	-0.240397				-0.003405	0.003789	-0.000157				-148.126234	88.388233	-101.417807
00235	14928862	-9.812478	-0.170204	-0.240676				-0.006246	0.000608	0.002047				-148.154837	88.389179	-101.446827
00236	14928912	-9.795991	-0.153104	-0.246526				-0.001844	0.001041	0.001296				-148.171983	88.389112	-101.463457
00237	14928962	-9.792625	-0.159362	-0.238705				-0.006913	0.002272	-0.000353				-148.189579	88.389268	-101.481295
00238	14929012	-9.791461	-0.173100	-0.245342				-0.004083	0.001363	0.005186				-148.242980	88.389585	-101.533608
00239	14929062	-9.790621	-0.151343	-0.231934				-0.001640	0.000553	-0.000247				-148.250063	88.390244	-101.542433
00240	14929112	-9.802382	-0.174538	-0.247422				-0.004786	-0.000569	-0.001811				-148.232988	88.389879	-101.524079
00241	14929162	-9.821656	-0.137756	-0.246287				-0.005860	-0.003756	0.001060				-148.229698	88.391406	-101.521457
00242	14929212	-9.820588	-0.146538	-0.249076				-0.001571	0.001460	-0.000398				-148.234581	88.390904	-101.525924
00243	14929262	-9.805965	-0.134361	-0.248699				-0.002200	0.003297	0.000992				-148.267372	88.391034	-101.560316
00244	14929312	-9.807377	-0.134939	-0.251510				-0.006857	0.001463	0.000512				-148.281691	88.390835	-101.572640
00245	14929362	-9.803856	-0.150780	-0.249460				0.000570	0.003896	0.001981				-148.325564	88.390914	-101.618922
00246	14929412	-9.804043	-0.139295	-0.242410				-0.006147	0.001083	-0.002892				-148.307798	88.390352	-101.599331
00247	14929462	-9.783744	-0.131681	-0.228360				-0.003534	-0.000189	-0.000022				-148.313869	88.390788	-101.606752
00248	14929512	-9.781571	-0.150307	-0.234865				-0.000181	0.000998	-0.000890				-148.311882	88.390295	-101.604759
00249	14929562	-9.803362	-0.153453	-0.247213				-0.003132	0.001240	0.000246				-148.327535	88.390436	-101.621881
00250	14929612	-9.787882	-0.170037	-0.252580				-0.005722	-0.000132	-0.001174				-148.318269	88.390129	-101.611050
00251	14929662	-9.811803	-0.163284	-0.248335				-0.001233	-0.000217	-0.001727				-148.308481	88.390911	-101.603022
00252	14929712	-9.810167	-0.144306	-0.243901				-0.003254	0.003110	-0.000644				-148.320584	88.389939	-101.614250
00253	14929762	-9.814050	-0.171661	-0.214382				-0.003456	0.002334	0.000695				-148.345812	88.389995	-101.640843
00254	14929812	-9.796642	-0.182345	-0.235419				-0.004678	-0.002122	-0.003652				-148.303813	88.389918	-101.597505
00255	14929862	-9.800287	-0.158142	-0.234801				-0.005206	0.001816	-0.000808				-148.314216	88.390302	-101.608555
00256	14929912	-9.813425	-0.141387	-0.223711				-0.006890	0.001434	-0.001380				-148.311667	88.390009	-101.603912
00257	14929962	-9.806062	-0.155475	-0.230378				-0.001442	0.000200	-0.003033				-148.293485	88.389820	-101.587750
00258	14930012	-9.805838	-0.162174	-0.252743				-0.001868	0.002651	-0.000905				-148.300531	88.389297	-101.594149
00259	14930062	-9.812418	-0.156712	-0.240091				-0.003991	0.005274	0.001391				-148.347951	88.388514	-101.642868
00260	14930112	-9.803024	-0.153507	-0.264709				-0.001802	0.001231	-0.003546				-148.324655	88.387895	-101.618948
00261	14930162	-9.812015	-0.148912	-0.244487				-0.004372	0.001802	-0.001319				-148.329719	88.387514	-101.625208
00262	14930212	-9.799380	-0.143484	-0.257077				-0.006022	-0.000682	-0.000399				-148.324473	88.387541	-101.618269
00263	14930262	-9.804759	-0.146249	-0.229086				-0.002951	0.003375	-0.002791				-148.325172	88.386852	-101.620431
00264	14930312	-9.799719	-0.156585	-0.252277				-0.004482	0.001418	0.001342				-148.345796	88.386663	-101.639801
00265	14930362	-9.819496	-0.135746	-0.254535				-0.004102	-0.000714	-0.000601				-148.344204	88.387374	-101.639292
00266	14930412	-9.810182	-0.143848	-0.242479				-0.003512	0.002980	-0.001347				-148.349529	88.386444	-101.643614
00267	14930462	-9.818252	-0.141529	-0.251892				-0.006463	-0.000083	-0.002058				-148.338766	88.387013	-101.633159
00268	14930512	-9.832350	-0.139766	-0.247772				-0.001891	-0.000609	0.000653				-148.341864	88.387245	-101.635720
00269	14930562	-9.804233	-0.158208	-0.250560				-0.003368	0.000395	-0.001106				-148.341235	88.387663	-101.636380
00270	14930612	-9.805146	-0.146060	-0.244114				-0.003765	0.001978	0.001182				-148.363345	88.387332	-101.657430
00271	14930662	-9.797239	-0.164908	-0.253610				-0.001028	-0.001923	-0.000804				-148.352322	88.388096	-101.648474
00272	14930712	-9.787507	-0.179895	-0.254410				-0.000501	-0.001174	-0.001640				-148.332267	88.388075	-101.628291
00273	14930762	-9.801390	-0.163972	-0.236425				0.001912	-0.000185	0.000639				-148.342062	88.389196	-101.640742
00274	14930812	-9.810791	-0.159395	-0.227896				-0.005261	-0.003905	-0.003240				-148.294402	88.389617	-101.591578
00275	14930862	-9.788338	-0.182738	-0.229979				-0.002082	0.007300	-0.003382				-148.310603	88.388041	-101.609448
00276	14930912	-9.803552	-0.161753	-0.238321				-0.005627	0.001809	-0.003244				-148.293834	88.387186	-101.591024
00277	14930962	-9.794121	-0.166553	-0.251742				-0.003293	-0.002062	-0.000574				-148.284792	88.387956	-101.583445
00278	14931012	-9.822886	-0.135948	-0.244670				-0.002296	-0.001005	0.000427				-148.283307	88.388649	-101.581131
00279	14931062	-9.803476	-0.143298	-0.248470				-0.004308	0.002574	-0.002951				-148.279118	88.388181	-101.578006
00280	14931112	-9.820905	-0.159909	-0.248355				-0.004728	0.000757	-0.002638				-148.261765	88.387635	-101.559275
00281	14931162	-9.795785	-0.153736	-0.239775				-0.001027	-0.001864	-0.003016				-148.231782	88.387976	-101.531381
00282	14931212	-9.806774	-0.145147	-0.251259				-0.003210	0.001431	-0.001519				-148.227383	88.387580	-101.525978
00283	14931262	-9.809976	-0.144975	-0.234716				-0.003364	0.000431	-0.000366				-148.233316	88.388159	-101.533172
00284	14931312	-9.806175	-0.126553	-0.231663				-0.008368	0.002372	-0.003907				-148.214328	88.386925	-101.511810
00285	14931362	-9.825930	-0.137346	-0.250050				-0.005984	0.003198	-0.000601				-148.233902	88.386567	-101.532010
00286	14931412	-9.814149	-0.154499	-0.233736				-0.002982	0.000440	-0.000463				-148.232923	88.386471	-101.530143
00287	14931462	-9.820001	-0.134833	-0.251188				-0.003805	0.001166	-0.001127				-148.236877	88.386545	-101.535349
00288	14931512	-9.819035	-0.131664	-0.258523				-0.003462	-0.003806	-0.000871				-148.209768	88.387208	-101.507297
00289	14931562	-9.802535	-0.141556	-0.251743				-0.000861	0.000118	-0.002655				-148.193727	88.387465	-101.493254
00290	14931612	-9.803246	-0.146437	-0.241473				-0.002880	0.001213	-0.001267				-148.190096	88.387026	-101.488771
00291	14931662	-9.806386	-0.147046	-0.272380				-0.002416	0.000507	-0.003608				-148.168178	88.386773	-101.468529
00292	14931712	-9.795936	-0.179780	-0.239790				-0.004598	0.000729	-0.002351				-148.152984	88.386373	-101.451957
00293	14931762	-9.789414	-0.166053	-0.243678				-0.007276	0.001062	-0.005329				-148.120640	88.386053	-101.419702
00294	14931812	-9.800447	-0.155120	-0.253368				-0.006479	-0.002494	0.002351				-148.129276	88.387071	-101.426464
00295	14931862	-9.791680	-0.162803	-0.229607				-0.000521	0.002751	0.000854				-148.157865	88.386978	-101.457261
00296	14931912	-9.806516	-0.160291	-0.224668				0.000802	0.000343	-0.000440				-148.155619	88.387061	-101.455143
00297	14931962	-9.793973	-0.169713	-0.230921				-0.004250	-0.000001	0.000624				-148.168215	88.387569	-101.468911
00298	14932012	-9.793978	-0.167276	-0.235255				-0.005507	0.002330	-0.000609				-148.176885	88.387061	-101.475940
00299	14932062	-9.813203	-0.157611	-0.265073				-0.002889	-0.003862	-0.002668				-148.139748	88.388039	-101.440338
00300	14932112	-9.817194	-0.157560	-0.234389				-0.005209	-0.000828	0.002008				-148.154382	88.388509	-101.453498
00301	14932162	-9.816832	-0.167255	-0.236610				-0.005560	0.000914	0.001115				-148.176531	88.389384	-101.476189
00302	14932212	-9.808828	-0.162618	-0.230625				-0.002147	-0.000942	-0.003009				-148.146126	88.389016	-101.445221
00303	14932262	-9.797743	-0.150688	-0.236227				-0.004487	0.000344	-0.000528				-148.150821	88.389432	-101.450934
00304	14932312	-9.802655	-0.155408	-0.241930				-0.001986	0.000520	0.001201				-148.164805	88.389330	-101.464422
00305	14932362	-9.805948	-0.144459	-0.232580				-0.000647	0.001578	-0.001073				-148.169862	88.389449	-101.471544
00306	14932412	-9.797028	-0.159360	-0.258946				-0.005049	-0.000218	-0.000204				-148.168445	88.389570	-101.468633
00307	14932462	-9.787739	-0.169014	-0.238177				-0.004140	-0.000486	0.001295				-148.184092	88.390794	-101.485261
00308	14932512	-9.810783	-0.132934	-0.243362				-0.006250	0.000476	0.000923				-148.196368	88.390704	-101.495805
00309	14932562	-9.816496	-0.128177	-0.253597				-0.004298	-0.001690	-0.002366				-148.173916	88.391403	-101.474373
00310	14932612	-9.809326	-0.122253	-0.231105				-0.005240	-0.001287	-0.002295				-148.148566	88.391246	-101.447564
00311	14932662	-9.813968	-0.143861	-0.246473				-0.002898	0.000828	-0.000878				-148.152083	88.391741	-101.452454
00312	14932712	-9.795094	-0.153476	-0.236475				-0.001479	0.000624	0.000785				-148.162907	88.391615	-101.462899
00313	14932762	-9.787431	-0.152870	-0.245300				-0.001549	-0.000907	-0.005962				-148.112943	88.391422	-101.414803
00314	14932812	-9.809802	-0.140453	-0.232315				-0.001978	-0.000837	0.001448				-148.121596	88.391541	-101.423028
00315	14932862	-9.808103	-0.141749	-0.236148				-0.002213	0.000878	0.004318				-148.170024	88.392767	-101.473059
00316	14932912	-9.794435	-0.167952	-0.236194				-0.004152	-0.000036	0.000849				-148.178396	88.392820	-101.480287
00317	14932962	-9.812689	-0.148124	-0.251491				-0.003604	0.002782	-0.001893				-148.184220	88.392659	-101.487286
00318	14933012	-9.799351	-0.154916	-0.239110				-0.006528	0.001184	0.000286				-148.194838	88.392733	-101.495893
00319	14933062	-9.812596	-0.164760	-0.232586				-0.005990	0.003389	-0.001208				-148.209963	88.392334	-101.511578
00320	14933112	-9.803211	-0.167756	-0.241461				-0.001201	0.000990	0.001331				-148.227565	88.391935	-101.528998
00321	14933162	-9.802273	-0.142615	-0.252721				-0.001283	0.000601	0.001296				-148.248354	88.392768	-101.551600
00322	14933212	-9.798731	-0.154112	-0.223293				-0.005540	0.001661	0.004168				-148.295202	88.392820	-101.596956
00323	14933262	-9.812605	-0.142844	-0.236896				-0.005467	0.001846	-0.001796				-148.296534	88.393659	-101.598577
00324	14933312	-9.814312	-0.154776	-0.245174				-0.002477	-0.000168	0.001331				-148.307789	88.393880	-101.609140
00325	14933362	-9.814011	-0.156598	-0.251268				-0.002829	0.002738	-0.000228				-148.327415	88.393141	-101.630527
00326	14933412	-9.796142	-0.143778	-0.240347				-0.001895	0.002655	-0.000326				-148.339525	88.392288	-101.642167
00327	14933462	-9.822733	-0.107924	-0.248901				-0.004409	0.004996	-0.003001				-148.347501	88.391391	-101.651103
00328	14933512	-9.810209	-0.137105	-0.251251				-0.006228	0.002737	-0.001115				-148.354286	88.390485	-101.656136
00329	14933562	-9.805756	-0.147311	-0.219850				-0.000007	0.001455	-0.002616				-148.345671	88.390412	-101.649762
00330	14933612	-9.806226	-0.139656	-0.235405				-0.002998	-0.001046	0.000907				-148.348588	88.390859	-101.651800
00331	14933662	-9.805657	-0.140721	-0.248185				-0.006223	0.001343	-0.003532				-148.333133	88.390449	-101.636893
00332	14933712	-9.817283	-0.142618	-0.250965				-0.002474	0.000673	0.000310				-148.340144	88.390364	-101.643183
00333	14933762	-9.811469	-0.131248	-0.253031				-0.003653	-0.003140	-0.004943				-148.287424	88.391130	-101.591613
00334	14933812	-9.799462	-0.149926	-0.231217				-0.005549	0.001291	-0.003953				-148.261567	88.390327	-101.564109
00335	14933862	-9.798778	-0.140150	-0.245806				-0.006481	0.001437	-0.003079				-148.250736	88.389793	-101.553832
00336	14933912	-9.802566	-0.160085	-0.247657				-0.004046	0.000546	-0.000589				-148.249942	88.389431	-101.551937
00337	14933962	-9.813143	-0.128026	-0.257012				-0.006197	0.001836	-0.000478				-148.262870	88.389911	-101.565218
00338	14934012	-9.796090	-0.169010	-0.236456				-0.003098	-0.000185	-0.002458				-148.241654	88.389424	-101.543180
00339	14934062	-9.792427	-0.161615	-0.227598				-0.004667	0.000052	0.000307				-148.252104	88.390297	-101.554459
00340	14934112	-9.791615	-0.155963	-0.253458				-0.002348	-0.001231	0.002090				-148.264589	88.391082	-101.566199
00341	14934162	-9.820837	-0.148713	-0.242542				-0.000643	0.000450	0.000369				-148.276166	88.391614	-101.579901
00342	14934212	-9.813635	-0.151341	-0.245624				-0.004256	-0.003144	-0.002214				-148.241428	88.392180	-101.543872
00343	14934262	-9.786062	-0.154231	-0.232592				-0.005429	-0.002486	-0.002305				-148.214847	88.392826	-101.518140
00344	14934312	-9.816832	-0.141939	-0.247850				-0.003627	-0.000278	0.002358				-148.234868	88.393360	-101.537079
00345	14934362	-9.800773	-0.159360	-0.230360				-0.003128	-0.002117	-0.000122				-148.229079	88.394314	-101.532756
00346	14934412	-9.792974	-0.146800	-0.246766				-0.004484	0.000820	-0.005784				-148.184409	88.393335	-101.486746
00347	14934462	-9.805300	-0.151086	-0.246777				-0.004820	0.003928	-0.001051				-148.204365	88.392609	-101.507703
00348	14934512	-9.804775	-0.153693	-0.249805				-0.003292	0.000879	-0.002323				-148.189954	88.392247	-101.492257
00349	14934562	-9.796846	-0.157450	-0.252745				-0.005998	0.001912	0.003785				-148.240738	88.392850	-101.543679
00350	14934612	-9.792806	-0.143460	-0.242030				-0.003076	0.002374	-0.000425				-148.250735	88.392347	-101.552731
00351	14934662	-9.826500	-0.136326	-0.237087				-0.006586	0.001929	-0.000191				-148.267411	88.392545	-101.569769
00352	14934712	-9.802867	-0.154896	-0.246275				-0.004157	0.001193	0.000440				-148.278794	88.392364	-101.579943
00353	14934762	-9.788897	-0.153446	-0.237691				-0.003633	0.000453	-0.002357				-148.267669	88.392786	-101.569951
00354	14934812	-9.805771	-0.147960	-0.253704				-0.005072	0.001493	-0.003245				-148.248994	88.391660	-101.549934
00355	14934862	-9.783866	-0.175702	-0.235324				-0.003791	0.001684	-0.000715				-148.259179	88.391468	-101.561481
00356	14934912	-9.809305	-0.155971	-0.243984				-0.006171	-0.002401	-0.002620				-148.225458	88.391584	-101.526015
00357	14934962	-9.808293	-0.144479	-0.238535				-0.002435	0.001120	-0.004119				-148.202376	88.391312	-101.504500
00358	14935012	-9.807292	-0.146713	-0.240792				-0.004014	0.003747	-0.000479				-148.219274	88.390577	-101.520144
00359	14935062	-9.810515	-0.149866	-0.253153				-0.003906	0.001454	0.000925				-148.242657	88.390615	-101.544863
00360	14935112	-9.805980	-0.150507	-0.253414				-0.005285	0.000233	-0.001229				-148.234946	88.390264	-101.535681
00361	14935162	-9.790568	-0.169204	-0.243649				-0.007404	-0.001611	-0.000276				-148.231950	88.391615	-101.532676
00362	14935212	-9.799704	-0.179582	-0.247216				-0.000288	-0.001842	-0.002318				-148.201913	88.391786	-101.502513
00363	14935262	-9.820539	-0.154978	-0.239246				-0.003840	0.001393	0.000151				-148.217401	88.392364	-101.519074
00364	14935312	-9.802510	-0.144167	-0.249701				-0.005764	0.003261	-0.001118				-148.226705	88.391360	-101.526750
00365	14935362	-9.802401	-0.156938	-0.241453				-0.005630	-0.000293	-0.003672				-148.201551	88.391189	-101.502387
00366	14935412	-9.793192	-0.151472	-0.239892				-0.001614	0.001855	0.001367				-148.223744	88.390928	-101.524133
00367	14935462	-9.812997	-0.129999	-0.237734				-0.002123	-0.000292	-0.000246				-148.226649	88.391472	-101.528755
00368	14935512	-9.800694	-0.158378	-0.244433				-0.005452	-0.003710	0.000259				-148.210523	88.392307	-101.511109
00369	14935562	-9.805422	-0.142412	-0.243792				-0.003522	-0.001966	-0.001952				-148.189889	88.393231	-101.491686
00370	14935612	-9.785576	-0.144388	-0.253807				-0.000749	0.003675	-0.001769				-148.194602	88.391993	-101.496221
00371	14935662	-9.813416	-0.135867	-0.236187				-0.002943	0.002416	0.001565				-148.228171	88.392175	-101.531278
00372	14935712	-9.798096	-0.155502	-0.246936				-0.004067	-0.001780	0.000040				-148.219902	88.392719	-101.521795
00373	14935762	-9.797787	-0.142662	-0.246941				-0.005623	-0.000899	0.002965				-148.248447	88.394005	-101.551010
00374	14935812	-9.798921	-0.148304	-0.244428				-0.002617	0.003860	-0.003691				-148.237822	88.392673	-101.539558
00375	14935862	-9.805199	-0.142923	-0.240230				-0.000501	-0.001170	-0.001123				-148.228009	88.393298	-101.531927
00376	14935912	-9.803453	-0.150525	-0.238103				-0.002052	0.000261	-0.000595				-148.225041	88.392961	-101.528451
00377	14935962	-9.821967	-0.134363	-0.242339				-0.006635	0.002438	-0.002818				-148.221509	88.393114	-101.525037
00378	14936012	-9.800748	-0.159785	-0.234046				-0.002263	0.002037	-0.000137				-148.232016	88.392731	-101.534843
00379	14936062	-9.798413	-0.162063	-0.220534				-0.002280	-0.002652	0.000221				-148.226243	88.394086	-101.530650
00380	14936112	-9.805078	-0.151464	-0.242658				-0.001767	0.001261	-0.003769				-148.200797	88.393344	-101.504625
00381	14936162	-9.814409	-0.162715	-0.252021				0.000346	0.002567	-0.000238				-148.218503	88.392849	-101.524940
00382	14936212	-9.805837	-0.173251	-0.229953				-0.007007	-0.000055	-0.001355				-148.208522	88.392578	-101.512983
00383	14936262	-9.801087	-0.158194	-0.257973				-0.003078	-0.000369	0.002005				-148.230610	88.393866	-101.536339
00384	14936312	-9.802973	-0.148554	-0.242762				-0.005253	0.004435	-0.001562				-148.242417	88.392542	-101.546643
00385	14936362	-9.799584	-0.164109	-0.257548				-0.003941	0.000425	0.001910				-148.268443	88.393172	-101.573924
00386	14936412	-9.793224	-0.166494	-0.241927				-0.005804	-0.001682	-0.001113				-148.251296	88.393424	-101.555105
00387	14936462	-9.796402	-0.160031	-0.243014				-0.004505	0.004198	0.001612				-148.294494	88.393822	-101.599060
00388	14936512	-9.798052	-0.140534	-0.245111				-0.001203	0.002154	0.002076				-148.324543	88.393430	-101.628855
00389	14936562	-9.786258	-0.149956	-0.247959				-0.003161	-0.002190	-0.001860				-148.303848	88.393813	-101.609744
00390	14936612	-9.803531	-0.159389	-0.246228				-0.001042	0.000055	0.000492				-148.308631	88.394064	-101.614147
00391	14936662	-9.819268	-0.140437	-0.243284				-0.007363	0.000297	-0.000166				-148.316711	88.394623	-101.622381
00392	14936712	-9.794533	-0.152357	-0.252737				-0.003828	0.000583	-0.001974				-148.303748	88.394224	-101.608290
00393	14936762	-9.797919	-0.147139	-0.254623				-0.001922	-0.001809	-0.001314				-148.289245	88.395248	-101.595435
00394	14936812	-9.822591	-0.139413	-0.246612				-0.004042	0.000484	-0.000137				-148.291646	88.395174	-101.596650
00395	14936862	-9.810459	-0.153395	-0.255152				-0.003942	0.004657	-0.000086				-148.323645	88.394220	-101.630003
00396	14936912	-9.815894	-0.146551	-0.237344				-0.001442	0.001703	0.003900				-148.367284	88.394331	-101.673277
00397	14936962	-9.837064	-0.147957	-0.238127				-0.003083	-0.000867	-0.004926				-148.326411	88.394989	-101.633511
00398	14937012	-9.823253	-0.158351	-0.255477				-0.007284	0.000522	-0.001799				-148.315904	88.394405	-101.620992
00399	14937062	-9.806171	-0.164635	-0.231590				-0.004648	0.000176	-0.002742				-148.300325	88.394564	-101.606380
00400	14937112	-9.803590	-0.155123	-0.245566				-0.002528	0.003354	-0.000355				-148.316096	88.393696	-101.621434
00401	14937162	-9.810671	-0.156927	-0.252430				-0.005092	0.000536	0.003360				-148.355703	88.394390	-101.662007
00402	14937212	-9.796349	-0.159782	-0.251574				-0.002760	0.000370	-0.001463				-148.345961	88.393788	-101.651597
00403	14937262	-9.791000	-0.172351	-0.244843				-0.004053	0.000510	-0.002994				-148.329403	88.393856	-101.636133
00404	14937312	-9.812442	-0.153124	-0.242278				-0.006138	-0.001974	0.001874				-148.336998	88.394646	-101.641956
00405	14937362	-9.821062	-0.148052	-0.245645				-0.001448	-0.000539	-0.001663				-148.326237	88.395353	-101.632967
00406	14937412	-9.798892	-0.157963	-0.228977				-0.001576	-0.001843	-0.002947				-148.291386	88.395191	-101.597724
00407	14937462	-9.794785	-0.150492	-0.252494				-0.003926	0.001303	0.004420				-148.343819	88.396308	-101.651272
00408	14937512	-9.798787	-0.145566	-0.232309				-0.004897	-0.001058	-0.002169				-148.320532	88.396414	-101.626493
00409	14937562	-9.798970	-0.153483	-0.224705				-0.002579	-0.000300	0.000425				-148.329514	88.397304	-101.636962
00410	14937612	-9.813230	-0.144083	-0.248452				-0.005222	-0.002869	-0.001115				-148.305897	88.397709	-101.611894
00411	14937662	-9.805089	-0.150402	-0.243623				-0.004700	0.000086	-0.000270				-148.311041	88.398304	-101.617970
00412	14937712	-9.786396	-0.146611	-0.232661				-0.002724	0.000374	-0.001109				-148.304333	88.398031	-101.610485
00413	14937762	-9.820085	-0.142824	-0.260522				-0.001722	-0.000195	-0.002491				-148.287769	88.398725	-101.595514
00414	14937812	-9.818997	-0.142767	-0.243619				-0.006197	0.003937	-0.001305				-148.299532	88.397923	-101.605351
00415	14937862	-9.820848	-0.150290	-0.236550				-0.002879	0.000375	0.000560				-148.313704	88.397837	-101.621281
00416	14937912	-9.814151	-0.127464	-0.249349				-0.004248	-0.000237	-0.002453				-148.292331	88.397421	-101.598729
00417	14937962	-9.816077	-0.135708	-0.228977				-0.003190	0.001785	-0.003021				-148.282390	88.397244	-101.590132
00418	14938012	-9.809111	-0.133926	-0.242668				-0.003842	0.001062	-0.002931				-148.263755	88.396679	-101.570328
00419	14938062	-9.808168	-0.146871	-0.253929				-0.004518	0.002216	-0.003853				-148.249290	88.396311	-101.556767
00420	14938112	-9.808352	-0.150074	-0.255846				-0.000660	0.002998	-0.001547				-148.251989	88.395461	-101.559230
00421	14938162	-9.778306	-0.154715	-0.253290				-0.004905	0.000269	-0.001810				-148.245544	88.395414	-101.553805
00422	14938212	-9.807547	-0.146111	-0.239972				-0.003764	0.000447	-0.004855				-148.206729	88.394574	-101.513896
00423	14938262	-9.797406	-0.156049	-0.242250				-0.004923	0.003119	0.000194				-148.232310	88.394449	-101.540337
00424	14938312	-9.813011	-0.145884	-0.243304				-0.002939	0.000852	-0.003187				-148.210048	88.393584	-101.517299
00425	14938362	-9.807457	-0.168265	-0.248651				-0.005687	0.002711	-0.002946				-148.207494	88.393242	-101.515325
00426	14938412	-9.800898	-0.159928	-0.247894				-0.004437	-0.001570	-0.004034				-148.165110	88.392864	-101.471724
00427	14938462	-9.789047	-0.176797	-0.242548				-0.002234	0.002199	0.000502				-148.188222	88.393247	-101.496388
00428	14938512	-9.819500	-0.142625	-0.239884				-0.006533	-0.000790	-0.000750				-148.179423	88.393233	-101.485757
00429	14938562	-9.804181	-0.168127	-0.238312				-0.002423	0.000833	-0.001846				-148.174134	88.393271	-101.482100
00430	14938612	-9.807298	-0.161006	-0.250763				-0.005908	0.000711	-0.000742				-148.173164	88.393059	-101.479408
00431	14938662	-9.809585	-0.140271	-0.229705				-0.004114	0.000902	0.000215				-148.187424	88.393565	-101.494744
00432	14938712	-9.809603	-0.149275	-0.247908				-0.006209	0.001024	-0.002251				-148.174940	88.393161	-101.480390
00433	14938762	-9.805718	-0.147573	-0.262808				0.000671	0.001241	-0.002072				-148.169782	88.392863	-101.477817
00434	14938812	-9.805037	-0.146919	-0.220832				-0.002456	0.000096	0.001423				-148.182945	88.393219	-101.490210
00435	14938862	-9.793831	-0.154159	-0.247474				-0.003115	-0.000796	-0.003619				-148.154729	88.393279	-101.463493
00436	14938912	-9.809568	-0.140213	-0.232789				-0.004308	-0.000167	-0.000337				-148.152289	88.393341	-101.459784
00437	14938962	-9.809690	-0.136349	-0.260626				-0.006150	0.001992	-0.004808				-148.128741	88.393089	-101.436589
00438	14939012	-9.798745	-0.140006	-0.250345				-0.001530	-0.000990	0.000356				-148.127018	88.393276	-101.434472
00439	14939062	-9.792773	-0.144657	-0.244821				-0.005661	-0.001365	-0.003866				-148.093745	88.393826	-101.401784
00440	14939112	-9.815732	-0.148539	-0.220363				-0.007208	0.002368	-0.000953				-148.100293	88.393338	-101.406163
00441	14939162	-9.800720	-0.152904	-0.252189				-0.003527	0.000293	-0.001843				-148.093231	88.393499	-101.400396
00442	14939212	-9.808465	-0.166408	-0.243129				-0.006949	0.001272	-0.000416				-148.098436	88.393267	-101.403551
00443	14939262	-9.804353	-0.154865	-0.238597				-0.005069	0.001268	-0.003952				-148.078452	88.392481	-101.384611
00444	14939312	-9.797775	-0.150099	-0.233864				-0.003651	0.001165	-0.002576				-148.063390	88.391938	-101.368445
00445	14939362	-9.809752	-0.155510	-0.250248				-0.003608	0.000449	-0.005405				-148.025736	88.392002	-101.331870
00446	14939412	-9.801110	-0.163961	-0.243165				-0.004841	0.001341	-0.002251				-148.014881	88.391377	-101.319599
00447	14939462	-9.817095	-0.181898	-0.241649				-0.004420	0.001416	0.000989				-148.038853	88.391529	-101.344706
00448	14939512	-9.807534	-0.154926	-0.263550				0.000940	0.003023	-0.002032				-148.037011	88.390781	-101.343003
00449	14939562	-9.806476	-0.165280	-0.259585				-0.003377	-0.001677	-0.004870				-147.993080	88.390727	-101.300532
00450	14939612	-9.794905	-0.179156	-0.254372				-0.003032	-0.002378	-0.001217				-147.970472	88.391130	-101.277043
00451	14939662	-9.812043	-0.158074	-0.258290				-0.003535	0.004989	0.000429				-148.008233	88.390745	-101.316049
00452	14939712	-9.810061	-0.150900	-0.247638				-0.000288	0.000256	-0.000087				-148.009224	88.390591	-101.316998
00453	14939762	-9.810293	-0.150753	-0.249584				-0.002959	-0.000798	-0.004259				-147.974938	88.390707	-101.284137
00454	14939812	-9.805305	-0.151769	-0.245228				-0.005210	-0.000150	-0.000364				-147.972631	88.390754	-101.280308
00455	14939862	-9.819913	-0.132917	-0.229123				-0.005232	-0.001015	0.004187				-148.010250	88.392470	-101.318644
00456	14939912	-9.806783	-0.161898	-0.253226				-0.004939	0.000826	0.000736				-148.022518	88.392442	-101.329469
00457	14939962	-9.803501	-0.146464	-0.239824				-0.005690	0.003037	-0.001721				-148.031518	88.391895	-101.339196
00458	14940012	-9.802655	-0.144347	-0.226105				-0.004692	-0.000246	-0.003187				-148.003883	88.391638	-101.310137
00459	14940062	-9.809403	-0.139266	-0.261558				-0.005887	0.001385	0.000685				-148.025258	88.391593	-101.332302
00460	14940112	-9.805882	-0.148654	-0.234264				-0.004189	0.001292	0.000606				-148.038669	88.391512	-101.344452
00461	14940162	-9.794588	-0.142126	-0.226423				-0.002260	0.001932	-0.002218				-148.036254	88.391366	-101.343649
00462	14940212	-9.800545	-0.136808	-0.235355				-0.003319	-0.002420	-0.004257				-147.986985	88.391404	-101.293371
00463	14940262	-9.798228	-0.150750	-0.235289				-0.004252	0.003358	0.000396				-148.016449	88.390894	-101.324074
00464	14940312	-9.805473	-0.154070	-0.250217				-0.003782	-0.003388	0.002569				-148.021748	88.391994	-101.328342
00465	14940362	-9.804680	-0.146692	-0.240723				-0.005927	0.001352	-0.002818				-148.011830	88.391880	-101.319011
00466	14940412	-9.796432	-0.156695	-0.244151				-0.005680	0.001876	-0.000284				-148.021180	88.391273	-101.326788
00467	14940462	-9.791559	-0.161338	-0.253685				-0.002748	-0.001018	-0.002301				-148.002718	88.392145	-101.309668
00468	14940512	-9.803757	-0.169414	-0.227640				-0.003863	0.003401	0.001710				-148.037071	88.391443	-101.342988
00469	14940562	-9.811271	-0.155711	-0.234964				-0.000329	0.001642	-0.002254				-148.032064	88.391184	-101.340254
00470	14940612	-9.812201	-0.162659	-0.223617				-0.002722	-0.001856	-0.002138				-148.004318	88.391239	-101.311747
00471	14940662	-9.800487	-0.162428	-0.231252				-0.000440	0.004495	0.000715				-148.040744	88.391233	-101.350181
00472	14940712	-9.801873	-0.160362	-0.242682				-0.002910	0.001544	0.001441				-148.062177	88.391467	-101.370613
00473	14940762	-9.796408	-0.161117	-0.239280				-0.001885	-0.000903	-0.001818				-148.048513	88.391394	-101.358986
00474	14940812	-9.813411	-0.134288	-0.240193				-0.007378	0.001583	-0.002041				-148.041846	88.390493	-101.350288
00475	14940862	-9.804548	-0.131022	-0.254688				-0.005060	0.001600	-0.000060				-148.056841	88.391293	-101.365850
00476	14940912	-9.804653	-0.153062	-0.230937				-0.002909	0.001045	-0.003663				-148.031575	88.390391	-101.339782
00477	14940962	-9.812559	-0.138076	-0.253689				-0.003152	0.001889	-0.001509				-148.036049	88.389886	-101.345815
00478	14941012	-9.819925	-0.127689	-0.238138				-0.006007	0.006269	-0.000256				-148.069319	88.388258	-101.377403
00479	14941062	-9.790523	-0.160023	-0.230024				-0.002810	0.001990	-0.002696				-148.063430	88.388268	-101.372848
00480	14941112	-9.789274	-0.163401	-0.272466				-0.001858	0.002161	-0.004495				-148.036508	88.387357	-101.345255
00481	14941162	-9.801004	-0.154926	-0.240005				-0.003383	-0.002088	0.000074				-148.032835	88.388518	-101.342888
00482	14941212	-9.808709	-0.154054	-0.227700				-0.003231	-0.001962	-0.001851				-148.007239	88.388782	-101.316325
00483	14941262	-9.818463	-0.137170	-0.263408				-0.001130	-0.001112	0.001679				-148.022490	88.389624	-101.333637
00484	14941312	-9.812309	-0.163571	-0.244041				-0.003820	0.001780	0.000770				-148.040177	88.388980	-101.350384
00485	14941362	-9.824156	-0.145124	-0.250880				-0.004615	-0.001663	-0.001552				-148.024501	88.390162	-101.335485
00486	14941412	-9.797816	-0.141396	-0.243388				0.000642	-0.000793	-0.002655				-147.997073	88.390019	-101.308200
00487	14941462	-9.804370	-0.155460	-0.233304				-0.004086	0.001802	-0.003234				-147.985728	88.389975	-101.297831
00488	14941512	-9.804571	-0.170650	-0.248117				-0.005068	0.000459	-0.003116				-147.962818	88.389206	-101.273535
00489	14941562	-9.804484	-0.183320	-0.236212				-0.004878	0.002600	-0.001886				-147.968101	88.389282	-101.279551
00490	14941612	-9.792997	-0.166955	-0.240015				-0.005180	-0.002088	-0.000724				-147.951686	88.389946	-101.261539
00491	14941662	-9.820066	-0.154038	-0.239932				-0.004720	-0.000304	-0.000490				-147.953248	88.390055	-101.264253
00492	14941712	-9.799039	-0.160085	-0.239287				-0.006512	0.000928	0.000518				-147.964839	88.389687	-101.274084
00493	14941762	-9.800020	-0.146566	-0.261312				-0.002371	-0.002652	0.000295				-147.959678	88.391422	-101.270311
00494	14941812	-9.801921	-0.160783	-0.234268				-0.003437	0.000555	-0.002190				-147.944464	88.391018	-101.254080
00495	14941862	-9.801779	-0.139352	-0.263296				-0.003293	0.003539	0.000814				-147.977076	88.391033	-101.287981
00496	14941912	-9.811852	-0.152624	-0.262303				-0.005332	0.001620	-0.002561				-147.965111	88.390387	-101.274426
00497	14941962	-9.813036	-0.142399	-0.245661				-0.005246	-0.000700	0.000697				-147.975638	88.391051	-101.285799
00498	14942012	-9.814567	-0.134397	-0.245539				-0.001549	0.003052	-0.000930				-147.984096	88.390393	-101.293723
00499	14942062	-9.799355	-0.149052	-0.248964				-0.002702	0.001998	0.002114				-148.020343	88.389741	-101.331991
00500	14942112	-9.803923	-0.130025	-0.242427				-0.005011	0.001886	-0.000701				-148.025891	88.389295	-101.336058
00501	14942162	-9.787195	-0.162428	-0.263790				-0.002324	-0.002071	0.000584				-148.026345	88.390681	-101.338039
00502	14942212	-9.796345	-0.154035	-0.225485				-0.005361	0.001682	-0.002822				-148.012030	88.389833	-101.322191
00503	14942262	-9.823917	-0.131304	-0.242023				0.000712	0.000046	-0.001947				-148.001682	88.390238	-101.314270
00504	14942312	-9.810538	-0.154568	-0.240029				-0.004980	0.001955	-0.000539				-148.009132	88.389469	-101.320399
00505	14942362	-9.804570	-0.159453	-0.231530				0.001819	-0.001749	-0.003339				-147.976080	88.390269	-101.290013
00506	14942412	-9.803472	-0.148630	-0.238904				-0.000889	0.003185	-0.001638				-147.979435	88.389049	-101.293200
00507	14942462	-9.802394	-0.150175	-0.254606				-0.003062	0.001152	0.000896				-148.000205	88.389843	-101.315260
00508	14942512	-9.808276	-0.167570	-0.232862				-0.002314	0.001413	-0.004531				-147.969489	88.388697	-101.283914
00509	14942562	-9.801003	-0.152732	-0.245077				-0.007359	0.000295	0.001188				-147.989348	88.389672	-101.303835
00510	14942612	-9.794727	-0.160223	-0.242938				-0.001597	0.001497	0.000668				-148.003627	88.389402	-101.317664
00511	14942662	-9.812153	-0.161374	-0.234451				-0.004803	-0.000731	-0.002000				-147.989614	88.389709	-101.304652
00512	14942712	-9.812718	-0.148108	-0.246278				-0.005466	0.003143	-0.000692				-148.002093	88.389075	-101.315464
00513	14942762	-9.803320	-0.161167	-0.238282				-0.003709	0.000298	0.000504				-148.014815	88.389659	-101.329439
00514	14942812	-9.811318	-0.160303	-0.256611				0.003013	0.004611	-0.001513				-148.026051	88.388183	-101.341599
00515	14942862	-9.804810	-0.146162	-0.259225				-0.004531	0.002027	-0.000350				-148.041145	88.388522	-101.357573
00516	14942912	-9.795460	-0.152949	-0.255714				0.000381	0.003864	0.000863				-148.069322	88.387464	-101.385977
00517	14942962	-9.804896	-0.138953	-0.220317				-0.004123	-0.001069	-0.000495				-148.066754	88.388226	-101.384533
00518	14943012	-9.796850	-0.161897	-0.243451				-0.005437	0.002470	0.002670				-148.104426	88.388163	-101.420607
00519	14943062	-9.804082	-0.153259	-0.246433				-0.005190	-0.000606	-0.001100				-148.099148	88.388962	-101.416028
00520	14943112	-9.812197	-0.137196	-0.237788				-0.007626	-0.000751	-0.003371				-148.067874	88.388826	-101.382473
00521	14943162	-9.810175	-0.127334	-0.237468				-0.004029	0.003492	-0.000147				-148.093047	88.388373	-101.408864
00522	14943212	-9.799118	-0.145651	-0.256114				-0.002126	0.000875	0.000887				-148.106128	88.388432	-101.421279
00523	14943262	-9.800143	-0.131720	-0.273109				-0.002769	-0.000179	-0.002066				-148.093962	88.388257	-101.410830
00524	14943312	-9.821610	-0.142616	-0.244661				-0.004655	-0.000335	-0.001160				-148.083684	88.388022	-101.399272
00525	14943362	-9.799528	-0.162719	-0.232081				-0.002183	-0.001590	-0.002302				-148.061676	88.388612	-101.378947
00526	14943412	-9.802732	-0.172712	-0.233286				-0.003791	0.000481	-0.004113				-148.029961	88.387728	-101.346193
00527	14943462	-9.811187	-0.153003	-0.254162				-0.002285	0.001746	-0.001318				-148.034403	88.388010	-101.352132
00528	14943512	-9.823407	-0.158020	-0.230298				-0.005557	0.000937	-0.001890				-148.024733	88.387240	-101.340975
00529	14943562	-9.807585	-0.162977	-0.238285				-0.001246	0.000074	-0.003608				-147.999905	88.387780	-101.317839
00530	14943612	-9.810136	-0.169763	-0.235478				-0.004778	0.002801	0.000813				-148.023391	88.387205	-101.339975
00531	14943662	-9.786931	-0.169978	-0.251099				-0.007315	0.000009	0.001799				-148.047120	88.388068	-101.363888
00532	14943712	-9.798255	-0.157883	-0.255662				-0.002702	0.001564	-0.004049				-148.021321	88.387269	-101.337217
00533	14943762	-9.814237	-0.155398	-0.256473				-0.002936	-0.000152	-0.003445				-147.997145	88.387503	-101.314448
00534	14943812	-9.797225	-0.149342	-0.246325				-0.004286	0.003521	0.001167				-148.027500	88.386766	-101.343613
00535	14943862	-9.797424	-0.166875	-0.256163				-0.003043	0.003839	0.003281				-148.083096	88.387499	-101.400397
00536	14943912	-9.794658	-0.165939	-0.242968				-0.003129	0.000145	0.000696				-148.090801	88.387434	-101.407268
00537	14943962	-9.815322	-0.132972	-0.241392				-0.005990	0.001778	0.001676				-148.122899	88.387800	-101.439953
00538	14944012	-9.806479	-0.184412	-0.258449				-0.004733	0.001314	0.000288				-148.133877	88.387489	-101.449592
00539	14944062	-9.800042	-0.168995	-0.252497				-0.004974	0.001627	-0.001890				-148.133895	88.386841	-101.450704
00540	14944112	-9.803680	-0.147010	-0.247405				-0.002845	-0.000556	0.001336				-148.143376	88.386923	-101.459489
00541	14944162	-9.797001	-0.144030	-0.256051				-0.006633	-0.001536	-0.000203				-148.141284	88.388163	-101.457652
00542	14944212	-9.819458	-0.121268	-0.250388				-0.002968	-0.003022	0.000874				-148.133454	88.388845	-101.449051
00543	14944262	-9.812960	-0.135738	-0.232521				0.001051	0.000732	-0.000115				-148.141948	88.389800	-101.459905
00544	14944312	-9.805948	-0.145920	-0.228212				-0.004110	-0.000229	-0.000136				-148.140516	88.389924	-101.457258
00545	14944362	-9.800595	-0.157711	-0.263208				-0.002537	-0.002594	-0.001275				-148.121727	88.391295	-101.439864
00546	14944412	-9.814223	-0.144849	-0.241423				-0.000179	0.000098	-0.000273				-148.120042	88.391311	-101.438089
00547	14944462	-9.783939	-0.155850	-0.264566				-0.003554	0.001135	-0.002410				-148.112411	88.391004	-101.431844
00548	14944512	-9.807191	-0.151350	-0.247684				-0.006767	0.002696	-0.002424				-148.107831	88.389988	-101.425320
00549	14944562	-9.805776	-0.153287	-0.242064				-0.002501	-0.003333	0.001606				-148.110651	88.391426	-101.429796
00550	14944612	-9.814070	-0.150876	-0.253336				-0.002524	-0.000851	-0.000656				-148.101486	88.391285	-101.420013
00551	14944662	-9.814236	-0.139277	-0.250900				-0.005342	-0.000931	-0.000489				-148.099420	88.392019	-101.418716
00552	14944712	-9.813820	-0.161844	-0.232538				-0.006279	-0.002491	0.001203				-148.098173	88.392888	-101.415633
00553	14944762	-9.812449	-0.140297	-0.228951				0.000284	0.000758	0.000820				-148.114883	88.393781	-101.434576
00554	14944812	-9.794247	-0.147639	-0.231418				-0.003950	-0.000323	-0.001328				-148.102586	88.393875	-101.421048
00555	14944862	-9.804546	-0.139553	-0.237420				-0.004853	0.002251	0.001897				-148.139355	88.394194	-101.458731
00556	14944912	-9.801320	-0.165990	-0.243907				-0.002012	0.003497	0.000646				-148.164203	88.393530	-101.482974
00557	14944962	-9.809731	-0.148322	-0.228518				-0.003876	0.002588	-0.000508				-148.180869	88.393073	-101.500986
00558	14945012	-9.789165	-0.143455	-0.253052				-0.004157	0.001255	-0.000548				-148.183924	88.392837	-101.502781
00559	14945062	-9.796474	-0.147733	-0.255148				-0.004502	0.000092	0.001661				-148.206585	88.393526	-101.526511
00560	14945112	-9.804970	-0.155756	-0.251966				-0.006223	-0.000269	0.000603				-148.211938	88.393773	-101.530044
00561	14945162	-9.806405	-0.142235	-0.239766				-0.002191	0.001004	0.000437				-148.227362	88.394241	-101.547119
00562	14945212	-9.811762	-0.136510	-0.231315				-0.006931	-0.001285	-0.002157				-148.203708	88.394352	-101.521412
00563	14945262	-9.804317	-0.134483	-0.246725				-0.002211	0.000481	-0.000202				-148.211595	88.394352	-101.531147
00564	14945312	-9.801581	-0.149351	-0.234787				-0.003969	0.001355	-0.001508				-148.206897	88.393755	-101.525329
00565	14945362	-9.799847	-0.145201	-0.254908				-0.003491	-0.000673	-0.000656				-148.204954	88.394686	-101.524566
00566	14945412	-9.815830	-0.143802	-0.253652				-0.003786	0.001585	-0.001125				-148.204879	88.394073	-101.523428
00567	14945462	-9.808521	-0.156793	-0.253408				-0.002180	0.000352	-0.001423				-148.200577	88.394570	-101.520714
00568	14945512	-9.793970	-0.146333	-0.239999				-0.005198	-0.001541	-0.001264				-148.182846	88.394499	-101.501597
00569	14945562	-9.808696	-0.146710	-0.244768				-0.003733	-0.002263	-0.002462				-148.156675	88.395636	-101.476487
00570	14945612	-9.831126	-0.142449	-0.246593				-0.005460	0.000910	-0.000864				-148.155585	88.395204	-101.473867
00571	14945662	-9.813361	-0.159407	-0.235096				-0.006766	-0.001373	0.000541				-148.160332	88.396570	-101.478831
00572	14945712	-9.796637	-0.163073	-0.237619				-0.002815	-0.001024	-0.003579				-148.124589	88.396370	-101.442232
00573	14945762	-9.809294	-0.138416	-0.243094				-0.004958	-0.000858	-0.001389				-148.115378	88.396523	-101.434078
00574	14945812	-9.805655	-0.159706	-0.249009				-0.007804	-0.001236	-0.003309				-148.081992	88.396341	-101.398436
00575	14945862	-9.806941	-0.157171	-0.238094				-0.001542	0.000631	0.000244				-148.094776	88.396753	-101.413111
00576	14945912	-9.811621	-0.155842	-0.254466				-0.004459	0.003577	-0.002588				-148.093177	88.395523	-101.410221
00577	14945962	-9.794484	-0.151928	-0.260914				-0.005257	0.000592	0.000095				-148.104527	88.395986	-101.422365
00578	14946012	-9.797667	-0.150197	-0.250627				-0.005379	0.001661	0.003050				-148.141472	88.396039	-101.457788
00579	14946062	-9.804152	-0.135750	-0.231677				-0.002997	0.002890	-0.002497				-148.142040	88.395576	-101.459781
00580	14946112	-9.798968	-0.142198	-0.249093				-0.006425	-0.001340	-0.003119				-148.109628	88.395394	-101.425525
00581	14946162	-9.808273	-0.153741	-0.261279				-0.002773	0.000058	0.000824				-148.123869	88.396346	-101.441170
00582	14946212	-9.811090	-0.155252	-0.264403				-0.004391	0.000244	-0.002859				-148.101620	88.395874	-101.417647
00583	14946262	-9.819417	-0.130102	-0.239049				-0.005919	0.002322	-0.001881				-148.105686	88.395567	-101.422328
00584	14946312	-9.810545	-0.154376	-0.239972				-0.004143	0.001738	-0.001989				-148.099087	88.394871	-101.414532
00585	14946362	-9.810161	-0.159158	-0.253143				-0.002555	0.000024	-0.001647				-148.091738	88.395213	-101.408733
00586	14946412	-9.797024	-0.147256	-0.244611				-0.001720	0.000202	-0.001328				-148.081984	88.395213	-101.398372
00587	14946462	-9.809233	-0.149503	-0.230856				-0.003397	0.000558	-0.000807				-148.084873	88.395704	-101.402493
00588	14946512	-9.819597	-0.153351	-0.240927				-0.005556	0.001747	-0.002367				-148.075451	88.395272	-101.391317
00589	14946562	-9.806771	-0.155885	-0.229933				-0.001353	0.001990	0.000472				-148.096509	88.395047	-101.414466
00590	14946612	-9.813725	-0.146365	-0.242020				-0.002810	-0.001184	-0.002550				-148.068702	88.395015	-101.385812
00591	14946662	-9.819424	-0.152956	-0.230613				-0.006862	0.002728	-0.001554				-148.078141	88.394716	-101.395565
00592	14946712	-9.812735	-0.152583	-0.234872				-0.008258	-0.002052	-0.001898				-148.052700	88.394833	-101.367792
00593	14946762	-9.812074	-0.164289	-0.241651				-0.000206	0.000974	0.000147				-148.065446	88.395303	-101.382737
00594	14946812	-9.795705	-0.159168	-0.240773				-0.003815	-0.000613	-0.001169				-148.053330	88.395125	-101.369588
00595	14946862	-9.830354	-0.146434	-0.247772				-0.004730	-0.000048	-0.001637				-148.045850	88.395759	-101.362892
00596	14946912	-9.811221	-0.153526	-0.246637				-0.001721	-0.000704	0.000273				-148.044970	88.395831	-101.361579
00597	14946962	-9.800811	-0.172333	-0.237548				-0.003953	-0.001395	-0.002135				-148.026165	88.396697	-101.343808
00598	14947012	-9.789736	-0.176521	-0.247235				-0.003480	-0.000993	0.000269				-148.024075	88.396871	-101.340766
00599	14947062	-9.810027	-0.161311	-0.230435				-0.007775	0.001425	0.002608				-148.062536	88.397466	-101.379333
00600	14947112	-9.823777	-0.156798	-0.251873				-0.003541	-0.001325	-0.003641				-148.024808	88.397285	-101.340552
00601	14947162	-9.795704	-0.156182	-0.247728				-0.004601	0.001021	-0.000069				-148.037218	88.397545	-101.353972
00602	14947212	-9.800037	-0.147981	-0.256608				-0.004086	0.001167	0.001858				-148.061007	88.397411	-101.376660
00603	14947262	-9.801484	-0.140179	-0.232299				-0.004227	-0.000845	-0.002226				-148.044051	88.397951	-101.360752
00604	14947312	-9.820357	-0.129501	-0.242508				-0.001335	-0.000662	0.001524				-148.054113	88.398545	-101.370345
00605	14947362	-9.797820	-0.160311	-0.243788				-0.001017	-0.004055	-0.000747				-148.031843	88.399940	-101.350095
00606	14947412	-9.788456	-0.144084	-0.250884				-0.006086	0.001812	0.002477				-148.065021	88.399744	-101.381599
00607	14947462	-9.796634	-0.162009	-0.239504				-0.006622	-0.000755	0.000860				-148.075812	88.400996	-101.392621
00608	14947512	-9.824265	-0.143847	-0.237162				-0.003868	-0.001807	-0.000433				-148.063110	88.401580	-101.378716
00609	14947562	-9.797782	-0.146617	-0.239382				-0.001302	0.001114	-0.001229				-148.065442	88.401289	-101.383143
00610	14947612	-9.796347	-0.157794	-0.255811				-0.004920	-0.001511	-0.004216				-148.021993	88.400951	-101.338299
00611	14947662	-9.814458	-0.136460	-0.219387				-0.003497	0.001628	-0.000161				-148.036488	88.401320	-101.353987
00612	14947712	-9.794987	-0.161964	-0.236357				-0.002758	-0.001334	0.001618				-148.043788	88.402039	-101.360436
00613	14947762	-9.783297	-0.149548	-0.227425				-0.003903	0.000060	-0.002579				-148.029188	88.401838	-101.347161
00614	14947812	-9.801746	-0.148643	-0.249323				-0.004786	-0.000206	-0.000648				-148.023689	88.402073	-101.340164
00615	14947862	-9.798291	-0.151146	-0.223952				-0.005959	-0.000525	-0.000618				-148.023136	88.402845	-101.340147
00616	14947912	-9.790848	-0.165881	-0.242968				-0.006333	0.001254	0.000453				-148.035618	88.402604	-101.350821
00617	14947962	-9.806374	-0.149073	-0.230976				-0.001989	0.003358	-0.003557				-148.029325	88.401891	-101.346235
00618	14948012	-9.809264	-0.141517	-0.241251				-0.001299	0.002954	-0.001986				-148.028182	88.401097	-101.344620
00619	14948062	-9.825132	-0.147364	-0.243424				-0.004122	-0.000874	0.000471				-148.035148	88.401684	-101.352835
00620	14948112	-9.802187	-0.148798	-0.254296				-0.005401	0.005308	0.000279				-148.068028	88.400285	-101.384245
00621	14948162	-9.786060	-0.148276	-0.243693				-0.001628	0.000235	-0.000209				-148.073893	88.400969	-101.391867
00622	14948212	-9.825450	-0.141247	-0.241189				0.000403	0.002088	0.001437				-148.097629	88.400609	-101.415758
00623	14948262	-9.806690	-0.159836	-0.234538				-0.003745	0.003628	0.001036				-148.133582	88.400409	-101.452990
00624	14948312	-9.785043	-0.154820	-0.242059				-0.004511	0.001955	-0.004328				-148.107576	88.399427	-101.425617
00625	14948362	-9.804291	-0.155600	-0.245124				-0.004689	0.002059	0.001319				-148.137726	88.399663	-101.456764
00626	14948412	-9.811934	-0.136018	-0.245297				-0.002347	0.001738	-0.000450				-148.143777	88.399163	-101.462158
00627	14948462	-9.812255	-0.128911	-0.244822				-0.003786	0.002752	0.000168				-148.167718	88.399061	-101.487340
00628	14948512	-9.805743	-0.144408	-0.264495				-0.002548	0.003292	0.001641				-148.200598	88.398541	-101.519489
00629	14948562	-9.801445	-0.153394	-0.250113				-0.004333	0.001707	-0.001506				-148.203891	88.398675	-101.523746
00630	14948612	-9.811308	-0.136462	-0.228014				-0.004235	0.000741	0.000577				-148.214179	88.398634	-101.532804
00631	14948662	-9.814823	-0.151414	-0.245457				-0.005133	0.000957	0.002533				-148.249059	88.399168	-101.568616
00632	14948712	-9.804594	-0.147936	-0.251482				-0.004504	-0.000173	-0.000998				-148.240630	88.399104	-101.558876
00633	14948762	-9.805936	-0.140526	-0.242400				-0.003266	0.000303	-0.000522				-148.245020	88.399443	-101.564627
00634	14948812	-9.810177	-0.144158	-0.242789				-0.006151	-0.001787	-0.002256				-148.217274	88.399401	-101.535171
00635	14948862	-9.812156	-0.139469	-0.238932				-0.004202	-0.003593	-0.000863				-148.197632	88.401345	-101.516336
00636	14948912	-9.784594	-0.161582	-0.262655				-0.004093	0.002062	-0.001603				-148.196289	88.400497	-101.513862
00637	14948962	-9.795469	-0.147541	-0.225699				-0.005148	0.002010	-0.002174				-148.195751	88.400155	-101.514195
00638	14949012	-9.792000	-0.168792	-0.243888				-0.005624	-0.001164	-0.002385				-148.170463	88.400225	-101.487223
00639	14949062	-9.792577	-0.172969	-0.219744				-0.006583	0.002925	-0.002777				-148.169890	88.399604	-101.487099
00640	14949112	-9.800133	-0.167480	-0.240492				-0.003640	0.000034	-0.000206				-148.169267	88.399691	-101.485378
00641	14949162	-9.791637	-0.173682	-0.254483				-0.003962	0.001902	-0.002858				-148.162308	88.399299	-101.479576
00642	14949212	-9.802411	-0.167782	-0.255851				-0.003172	0.000366	-0.001004				-148.156693	88.398963	-101.473089
00643	14949262	-9.808262	-0.141863	-0.247704				-0.000158	0.001555	-0.000232				-148.168945	88.399148	-101.487584
00644	14949312	-9.799691	-0.140472	-0.251074				-0.005754	0.001199	0.000485				-148.181172	88.399107	-101.498095
00645	14949362	-9.821823	-0.143968	-0.246047				-0.000824	-0.004115	-0.001031				-148.156628	88.400021	-101.475794
00646	14949412	-9.789619	-0.148603	-0.245378				-0.000808	0.000405	-0.003996				-148.124378	88.399014	-101.443435
00647	14949462	-9.787098	-0.156482	-0.253046				-0.001331	0.000949	-0.001298				-148.124663	88.399982	-101.445242
00648	14949512	-9.821406	-0.147768	-0.228411				-0.003397	-0.000438	0.001976				-148.140640	88.400474	-101.460210
00649	14949562	-9.811054	-0.143435	-0.256048				-0.003541	0.002111	-0.000510				-148.154323	88.400570	-101.475136
00650	14949612	-9.815509	-0.131915	-0.251098				-0.004952	0.004315	0.000723				-148.185229	88.399937	-101.504497
00651	14949662	-9.819939	-0.150852	-0.228713				-0.002474	0.001902	0.000448				-148.206476	88.400031	-101.527371
00652	14949712	-9.803409	-0.148231	-0.250581				0.000678	0.001145	-0.002068				-148.194120	88.399778	-101.515056
00653	14949762	-9.799892	-0.152197	-0.232091				-0.004032	-0.001781	0.000300				-148.194984	88.400088	-101.517409
00654	14949812	-9.812795	-0.138812	-0.253376				-0.004096	0.001156	-0.002728				-148.178694	88.399242	-101.500000
00655	14949862	-9.811085	-0.142322	-0.252941				-0.005573	0.001324	-0.000836				-148.186024	88.399736	-101.507852
00656	14949912	-9.811386	-0.144412	-0.239449				-0.004757	-0.000405	-0.000561				-148.180310	88.399808	-101.500742
00657	14949962	-9.814546	-0.134185	-0.249072				-0.000945	0.001434	-0.004124				-148.158539	88.399748	-101.480839
00658	14950012	-9.812740	-0.146460	-0.246027				-0.006027	0.001448	-0.000229				-148.166291	88.399317	-101.486880
00659	14950062	-9.799864	-0.150470	-0.241765				-0.001257	0.002428	-0.001905				-148.169058	88.398960	-101.491616
00660	14950112	-9.799411	-0.171374	-0.232848				-0.002903	-0.000472	-0.000954				-148.159041	88.399042	-101.480714
00661	14950162	-9.811225	-0.135476	-0.244340				-0.002114	0.000322	0.001008				-148.176276	88.399989	-101.499537
00662	14950212	-9.785082	-0.159033	-0.226432				-0.001121	0.001305	0.000170				-148.185269	88.399629	-101.508243
00663	14950262	-9.809822	-0.153399	-0.242417				-0.003594	0.000195	-0.001656				-148.179038	88.399639	-101.503407
00664	14950312	-9.821724	-0.140597	-0.230303				-0.001495	-0.001058	0.001317				-148.185118	88.400051	-101.509080
00665	14950362	-9.809116	-0.155585	-0.236402				-0.003869	0.002196	0.000829				-148.211257	88.400519	-101.536284
00666	14950412	-9.805349	-0.143332	-0.254589				-0.004265	-0.000487	0.002355				-148.230667	88.400860	-101.554539
00667	14950462	-9.799097	-0.145614	-0.258011				-0.003888	-0.000385	0.000846				-148.243284	88.401663	-101.568363
00668	14950512	-9.811934	-0.155233	-0.243806				-0.004626	0.002895	0.001382				-148.272486	88.401040	-101.596305
00669	14950562	-9.803134	-0.159576	-0.271471				-0.002781	0.000657	-0.003196				-148.254646	88.401331	-101.579800
00670	14950612	-9.822803	-0.165071	-0.238250				-0.006081	-0.000340	-0.004470				-148.215553	88.400858	-101.538896
00671	14950662	-9.806987	-0.151200	-0.242940				-0.002851	0.003345	-0.000804				-148.234044	88.400158	-101.559041
00672	14950712	-9.801928	-0.133786	-0.249628				-0.001905	0.000316	-0.004610				-148.195958	88.399731	-101.520242
00673	14950762	-9.799931	-0.160790	-0.248222				-0.003452	0.001007	-0.000209				-148.206330	88.400086	-101.531913
00674	14950812	-9.794959	-0.145188	-0.236666				-0.001112	0.000852	-0.000475				-148.206983	88.399927	-101.532195
00675	14950862	-9.805525	-0.153778	-0.242362				-0.001541	-0.000674	0.000680				-148.216221	88.400582	-101.543371
00676	14950912	-9.805529	-0.149161	-0.252721				-0.004081	0.001445	-0.002225				-148.206172	88.399637	-101.532259
00677	14950962	-9.808867	-0.143691	-0.262984				-0.001510	0.000868	-0.006115				-148.163203	88.399618	-101.490914
00678	14951012	-9.810294	-0.153684	-0.242563				-0.003094	-0.001511	-0.003110				-148.128717	88.399688	-101.455451
00679	14951062	-9.798460	-0.155510	-0.228089				-0.006530	0.002117	-0.000770				-148.142281	88.399039	-101.469715
00680	14951112	-9.819672	-0.130788	-0.235693				-0.003934	0.004430	0.002285				-148.187307	88.398451	-101.513569
00681	14951162	-9.818057	-0.138162	-0.249348				-0.005580	0.001486	0.000348				-148.205693	88.398895	-101.532577
00682	14951212	-9.802591	-0.159984	-0.243569				-0.006115	-0.000245	-0.002804				-148.181751	88.398727	-101.506789
00683	14951262	-9.805415	-0.140258	-0.249710				-0.003619	0.004970	-0.004803				-148.173899	88.397226	-101.500257
00684	14951312	-9.806002	-0.150068	-0.249867				-0.004371	-0.000233	0.001778				-148.189448	88.397395	-101.514633
00685	14951362	-9.782616	-0.161924	-0.235137				-0.004150	0.003970	0.000291				-148.220937	88.397244	-101.547169
00686	14951412	-9.816625	-0.160513	-0.244439				-0.004106	-0.000649	0.000109				-148.219440	88.397431	-101.544487
00687	14951462	-9.804591	-0.154067	-0.239515				-0.001077	0.000760	0.000006				-148.229947	88.397806	-101.557023
00688	14951512	-9.807944	-0.148564	-0.247154				-0.002535	-0.000892	-0.002789				-148.201531	88.397576	-101.527883
00689	14951562	-9.803484	-0.143463	-0.247091				-0.003950	-0.002457	0.001447				-148.208269	88.398984	-101.535804
00690	14951612	-9.800071	-0.131214	-0.246984				0.000639	0.000845	-0.003874				-148.178952	88.398073	-101.506707
00691	14951662	-9.807374	-0.139815	-0.242168				-0.003800	0.001741	-0.001164				-148.185469	88.398593	-101.514195
00692	14951712	-9.820852	-0.135313	-0.227448				-0.003991	0.000407	-0.004086				-148.153041	88.398151	-101.480489
00693	14951762	-9.811078	-0.133145	-0.233731				-0.004821	-0.000541	-0.001913				-148.140715	88.398479	-101.469121
00694	14951812	-9.800057	-0.142316	-0.225105				-0.003655	-0.001712	0.000902				-148.140723	88.398730	-101.468216
00695	14951862	-9.803771	-0.141666	-0.243124				-0.003483	-0.000192	-0.001850				-148.130548	88.399364	-101.459224
00696	14951912	-9.799206	-0.141206	-0.250822				-0.002725	0.000338	0.000042				-148.133209	88.399336	-101.461082
00697	14951962	-9.805318	-0.139197	-0.267540				-0.005985	-0.000238	-0.002258				-148.120713	88.399382	-101.449292
00698	14952012	-9.832336	-0.148506	-0.231478				-0.005481	0.000930	-0.003472				-148.096808	88.398950	-101.423662
00699	14952062	-9.790578	-0.149689	-0.242179				-0.002102	-0.001595	-0.004525				-148.055731	88.398930	-101.384417
00700	14952112	-9.802004	-0.150895	-0.240734				-0.004587	0.000469	0.000791				-148.066791	88.398930	-101.394174
00701	14952162	-9.817275	-0.157421	-0.261466				-0.003659	-0.000547	0.000717				-148.076342	88.400083	-101.404838
00702	14952212	-9.801600	-0.143795	-0.243893				-0.004204	0.001348	-0.001708				-148.069889	88.399597	-101.397131
00703	14952262	-9.808083	-0.155846	-0.248901				-0.003516	0.001910	-0.000716				-148.081565	88.399396	-101.410212
00704	14952312	-9.809719	-0.155288	-0.255570				-0.003642	0.000744	-0.000686				-148.080565	88.399198	-101.408130
00705	14952362	-9.814605	-0.155794	-0.234165				-0.005195	-0.001874	-0.002304				-148.057569	88.400339	-101.385716
00706	14952412	-9.818470	-0.142481	-0.252840				-0.003107	0.000012	-0.002523				-148.036553	88.400074	-101.363748
00707	14952462	-9.812716	-0.151741	-0.240092				-0.003135	-0.001992	0.000356				-148.036161	88.400894	-101.364915
00708	14952512	-9.821941	-0.154817	-0.244265				-0.005417	0.001626	0.002981				-148.072206	88.401113	-101.399351
00709	14952562	-9.793692	-0.166440	-0.245331				-0.002741	0.001434	-0.002132				-148.068946	88.400795	-101.397700
00710	14952612	-9.820126	-0.150433	-0.238807				-0.008501	0.003732	-0.000177				-148.090253	88.399797	-101.416605
00711	14952662	-9.816103	-0.145875	-0.243869				-0.002305	0.003155	-0.002797				-148.088942	88.399404	-101.416852
00712	14952712	-9.816447	-0.136126	-0.245856				-0.001227	-0.002740	-0.002088				-148.056110	88.399964	-101.383561
00713	14952762	-9.811678	-0.137005	-0.244544				-0.005580	0.001422	0.000088				-148.072717	88.399886	-101.401012
00714	14952812	-9.805264	-0.134851	-0.285877				-0.004113	0.003842	0.000386				-148.098393	88.398709	-101.425652
00715	14952862	-9.797020	-0.148916	-0.241983				-0.002909	0.002181	0.000249				-148.118812	88.399317	-101.447317
00716	14952912	-9.799407	-0.144118	-0.250156				-0.005407	0.000941	-0.000203				-148.123656	88.399002	-101.450636
00717	14952962	-9.809516	-0.139898	-0.241461				-0.000145	0.001544	-0.002778				-148.114135	88.398493	-101.443496
00718	14953012	-9.799669	-0.145898	-0.243427				-0.000522	0.001279	-0.003133				-148.093771	88.397673	-101.422994
00719	14953062	-9.809559	-0.154320	-0.245354				-0.004057	0.004773	-0.003775				-148.094145	88.396532	-101.424474
00720	14953112	-9.811969	-0.135738	-0.238146				-0.006561	0.004052	-0.001432				-148.105368	88.395355	-101.433809
00721	14953162	-9.808331	-0.150701	-0.258455				-0.004245	0.001675	0.000087				-148.122689	88.395804	-101.452100
00722	14953212	-9.805477	-0.169491	-0.257258				0.001153	0.002289	0.000011				-148.135016	88.395146	-101.464802
00723	14953262	-9.782185	-0.166060	-0.258112				-0.004502	0.001830	0.001082				-148.161776	88.395275	-101.492656
00724	14953312	-9.817534	-0.162868	-0.246485				-0.008748	0.002371	0.000074				-148.177747	88.394695	-101.506128
00725	14953362	-9.804209	-0.156577	-0.219195				-0.003326	0.000843	-0.003291				-148.160453	88.394863	-101.490054
00726	14953412	-9.800635	-0.153739	-0.225041				-0.005000	0.005571	-0.000853				-148.184721	88.393020	-101.513055
00727	14953462	-9.802538	-0.167356	-0.236430				-0.003778	0.000159	0.001039				-148.201512	88.394008	-101.530946
00728	14953512	-9.807887	-0.162096	-0.228954				-0.002879	0.000046	0.000428				-148.206287	88.394270	-101.534801
00729	14953562	-9.804769	-0.153695	-0.250527				-0.000349	-0.000073	-0.001821				-148.196228	88.394528	-101.526980
00730	14953612	-9.803400	-0.144018	-0.260635				-0.003438	0.001425	-0.001645				-148.190798	88.393736	-101.520646
00731	14953662	-9.801278	-0.148448	-0.247404				-0.002592	0.000117	-0.000855				-148.190194	88.394844	-101.521302
00732	14953712	-9.786013	-0.133064	-0.244022				-0.001866	0.003753	0.000345				-148.214052	88.394082	-101.544584
00733	14953762	-9.803926	-0.147319	-0.244880				-0.001727	0.001107	-0.000174				-148.224829	88.393656	-101.557485
00734	14953812	-9.805576	-0.137149	-0.229634				-0.001157	0.000335	-0.000087				-148.226341	88.393605	-101.558651
00735	14953862	-9.797386	-0.157256	-0.244156				0.000717	0.001859	-0.000851				-148.234945	88.393880	-101.569631
00736	14953912	-9.816684	-0.136189	-0.244794				-0.003644	0.001903	-0.002156				-148.227710	88.393164	-101.561321
00737	14953962	-9.814948	-0.156593	-0.253943				-0.007358	0.001744	-0.001989				-148.227912	88.392961	-101.561746
00738	14954012	-9.812548	-0.157216	-0.256293				-0.004095	0.002999	-0.001891				-148.228770	88.392064	-101.561380
00739	14954062	-9.792443	-0.152177	-0.244153				-0.003260	-0.000030	-0.001111				-148.226821	88.392367	-101.560843
00740	14954112	-9.795545	-0.166333	-0.253951				-0.004507	0.000823	-0.002031				-148.214892	88.391816	-101.547636
00741	14954162	-9.800924	-0.121797	-0.243126				-0.003623	0.000027	-0.002937				-148.196341	88.391993	-101.530322
00742	14954212	-9.804585	-0.151165	-0.247489				-0.000118	0.001643	-0.004094				-148.169778	88.390856	-101.503769
00743	14954262	-9.800896	-0.158581	-0.251561				-0.001354	0.001203	-0.001846				-148.166363	88.391427	-101.501999
00744	14954312	-9.794841	-0.148915	-0.248450				-0.004894	0.000487	-0.004824				-148.128427	88.390468	-101.462699
00745	14954362	-9.806476	-0.162610	-0.225186				-0.003995	0.000869	-0.000913				-148.132482	88.390803	-101.467844
00746	14954412	-9.816775	-0.148611	-0.244740				-0.002790	0.000341	-0.000498				-148.130862	88.390564	-101.465452
00747	14954462	-9.803310	-0.158710	-0.245264				-0.005519	0.000552	0.000341				-148.144560	88.391075	-101.479860
00748	14954512	-9.803801	-0.140573	-0.240032				-0.004166	0.003188	-0.002628				-148.140344	88.389617	-101.474573
00749	14954562	-9.811035	-0.133018	-0.240620				-0.005058	-0.002254	-0.001598				-148.121902	88.390708	-101.456889
00750	14954612	-9.821915	-0.155397	-0.246824				-0.005808	-0.001591	-0.001018				-148.106291	88.390940	-101.439612
00751	14954662	-9.818267	-0.136425	-0.259381				0.001610	0.000802	-0.003297				-148.087234	88.391159	-101.423158
00752	14954712	-9.792724	-0.158436	-0.224561				-0.005147	0.003819	-0.002213				-148.090188	88.389983	-101.424595
00753	14954762	-9.800813	-0.148292	-0.246511				-0.003328	-0.000194	-0.003710				-148.064208	88.389925	-101.399998
00754	14954812	-9.808245	-0.152631	-0.229249				-0.000475	0.003033	-0.001068				-148.071312	88.389216	-101.406887
00755	14954862	-9.813511	-0.142475	-0.246262				-0.003580	0.002909	-0.002667				-148.071222	88.388655	-101.408069
00756	14954912	-9.800993	-0.142833	-0.228752				-0.005495	-0.000452	-0.001942				-148.053475	88.388627	-101.388676
00757	14954962	-9.797350	-0.142795	-0.240019				-0.003305	-0.000769	-0.001341				-148.044461	88.389223	-101.380983
00758	14955012	-9.802208	-0.156883	-0.234236				-0.004891	0.001081	0.000955				-148.059709	88.389021	-101.394877
00759	14955062	-9.806657	-0.157816	-0.243976				-0.003885	-0.003691	-0.000197				-148.045669	88.390503	-101.381996
00760	14955112	-9.809559	-0.141192	-0.232103				-0.003150	0.000554	0.000014				-148.049774	88.390239	-101.385257
00761	14955162	-9.801328	-0.166091	-0.242969				-0.003406	0.002396	-0.001037				-148.060580	88.390262	-101.397308
00762	14955212	-9.798640	-0.155986	-0.235975				-0.001522	0.002487	-0.004149				-148.038200	88.389366	-101.374331
00763	14955262	-9.786828	-0.142275	-0.248040				-0.003044	0.001308	0.000305				-148.055303	88.389286	-101.393055
00764	14955312	-9.813368	-0.138796	-0.237087				-0.003774	-0.001004	0.000295				-148.053423	88.389721	-101.390027
00765	14955362	-9.822421	-0.149528	-0.253833				-0.004286	0.001995	-0.000197				-148.070060	88.389522	-101.407846
00766	14955412	-9.802931	-0.150864	-0.245066				-0.005420	0.000487	-0.000075				-148.073480	88.389371	-101.409720
00767	14955462	-9.817593	-0.154661	-0.254775				-0.004397	0.000440	-0.000302				-148.080856	88.389777	-101.418171
00768	14955512	-9.806339	-0.166435	-0.240014				-0.003240	0.000231	-0.002615				-148.060525	88.389168	-101.396974
00769	14955562	-9.784824	-0.175961	-0.234693				-0.005728	-0.002140	-0.000057				-148.055838	88.390490	-101.392869
00770	14955612	-9.797366	-0.167260	-0.265514				-0.002690	0.002482	0.001979				-148.087514	88.389880	-101.423918
00771	14955662	-9.810690	-0.159812	-0.243332				-0.005422	0.001426	-0.001286				-148.091417	88.390422	-101.428344
00772	14955712	-9.791400	-0.145479	-0.234122				-0.005592	0.001876	0.000280				-148.105416	88.390043	-101.440729
00773	14955762	-9.798594	-0.161878	-0.231130				-0.005163	0.000267	0.000147				-148.115850	88.390153	-101.452151
00774	14955812	-9.797743	-0.165541	-0.245138				-0.005846	0.001740	-0.000904				-148.118968	88.389515	-101.453632
00775	14955862	-9.798039	-0.157532	-0.251506				-0.001904	-0.000287	0.002126				-148.142484	88.390672	-101.478826
00776	14955912	-9.792250	-0.150380	-0.240553				-0.005602	0.001965	-0.003054				-148.128403	88.390041	-101.462993
00777	14955962	-9.799356	-0.152054	-0.242553				-0.005084	-0.003389	-0.001349				-148.105038	88.391225	-101.440494
00778	14956012	-9.802925	-0.148952	-0.249160				-0.004963	0.001013	-0.001743				-148.096786	88.390604	-101.430865
00779	14956062	-9.825490	-0.145195	-0.229093				-0.004099	-0.000975	-0.000405				-148.095842	88.391354	-101.431057
00780	14956112	-9.792053	-0.142995	-0.247190				-0.000142	-0.003095	0.004573				-148.118477	88.392780	-101.453668
00781	14956162	-9.801006	-0.151848	-0.247326				-0.003701	-0.001787	-0.004232				-148.079810	88.393446	-101.416093
00782	14956212	-9.792842	-0.138929	-0.245280				-0.000103	-0.001943	-0.002771				-148.045642	88.393509	-101.381880
00783	14956262	-9.804186	-0.152188	-0.231650				-0.004888	0.001051	0.002430				-148.079369	88.394403	-101.416415
00784	14956312	-9.814860	-0.134134	-0.236498				-0.002682	0.004891	-0.004100				-148.070940	88.392478	-101.407264
00785	14956362	-9.799363	-0.164097	-0.217261				-0.003958	0.000641	-0.001942				-148.064777	88.392648	-101.402238
00786	14956412	-9.817155	-0.160708	-0.236723				-0.007498	-0.002072	-0.002038				-148.038296	88.392722	-101.373656
00787	14956462	-9.810231	-0.158588	-0.243583				-0.004932	0.000008	-0.001588				-148.031760	88.393205	-101.367909
00788	14956512	-9.792148	-0.141601	-0.235494				-0.000726	-0.002144	0.000315				-148.023313	88.393722	-101.359275
00789	14956562	-9.818716	-0.140031	-0.255008				-0.002234	-0.000301	-0.002172				-148.009486	88.394117	-101.347075
00790	14956612	-9.811049	-0.150121	-0.242649				-0.002127	0.001507	-0.003094				-147.991551	88.393196	-101.328565
00791	14956662	-9.805325	-0.149761	-0.245821				-0.000500	0.002769	-0.000621				-148.006843	88.393781	-101.345676
00792	14956712	-9.790610	-0.168924	-0.235958				0.000802	-0.001054	-0.000999				-147.992337	88.393940	-101.331372
00793	14956762	-9.803569	-0.139979	-0.240243				-0.006728	-0.000729	0.001302				-148.007911	88.394192	-101.347621
00794	14956812	-9.805385	-0.156371	-0.260446				-0.005310	0.002941	-0.001219				-148.014888	88.393236	-101.353110
00795	14956862	-9.807179	-0.151645	-0.249789				-0.004315	-0.001374	-0.001918				-147.997945	88.393925	-101.337195
00796	14956912	-9.809342	-0.141301	-0.228943				-0.006454	0.001432	-0.003882				-147.973777	88.393020	-101.311148
00797	14956962	-9.809281	-0.139961	-0.241229				-0.004391	0.003051	-0.003785				-147.965304	88.392562	-101.303569
00798	14957012	-9.803855	-0.141147	-0.230680				-0.004520	0.001217	-0.000650				-147.967590	88.392065	-101.304603
00799	14957062	-9.821761	-0.129774	-0.245911				-0.004835	0.001077	-0.001867				-147.964507	88.391953	-101.302493
00800	14957112	-9.793889	-0.149115	-0.247937				-0.005808	-0.001720	-0.002144				-147.938719	88.391829	-101.275127
00801	14957162	-9.802854	-0.148591	-0.223469				-0.000707	0.000112	-0.001304				-147.933504	88.393007	-101.271641
00802	14957212	-9.798250	-0.140701	-0.252258				-0.006816	-0.001088	0.000013				-147.929537	88.393337	-101.265694
00803	14957262	-9.784543	-0.145361	-0.264382				-0.001272	0.002954	-0.000202				-147.950204	88.393651	-101.288095
00804	14957312	-9.807375	-0.163060	-0.232821				-0.001511	0.001132	-0.004161				-147.920680	88.392412	-101.258274
00805	14957362	-9.798627	-0.155237	-0.239817				-0.008561	0.002234	-0.003779				-147.908885	88.391494	-101.246511
00806	14957412	-9.821110	-0.142815	-0.248292				-0.002935	-0.000376	-0.002109				-147.889479	88.391257	-101.226263
00807	14957462	-9.795618	-0.147798	-0.239904				-0.006015	0.003998	-0.000571				-147.913736	88.391114	-101.250925
00808	14957512	-9.819571	-0.139180	-0.235120				-0.003053	-0.000801	-0.003266				-147.882224	88.390945	-101.218463
00809	14957562	-9.808116	-0.159836	-0.235634				-0.003548	-0.000162	-0.001400				-147.876144	88.391110	-101.213768
00810	14957612	-9.810603	-0.164996	-0.247504				-0.005095	0.004174	-0.002912				-147.875107	88.389722	-101.211242
00811	14957662	-9.799656	-0.152871	-0.231928				-0.003887	0.002878	0.002304				-147.917406	88.390153	-101.254654
00812	14957712	-9.789820	-0.166207	-0.254890				-0.002492	-0.002109	0.000384				-147.909840	88.390803	-101.246334
00813	14957762	-9.808610	-0.145942	-0.261496				-0.003760	-0.000709	-0.001400				-147.901286	88.391284	-101.239013
00814	14957812	-9.821941	-0.152507	-0.249466				-0.004666	0.000595	-0.001743				-147.890584	88.391199	-101.226826
00815	14957862	-9.790668	-0.154879	-0.256230				-0.003497	0.003263	-0.003982				-147.881035	88.390143	-101.218665
00816	14957912	-9.804462	-0.151168	-0.226354				-0.004154	-0.000203	-0.000118				-147.880154	88.389761	-101.216776
00817	14957962	-9.783675	-0.145529	-0.250587				-0.000566	-0.000133	0.001123				-147.895150	88.390853	-101.233773
00818	14958012	-9.786701	-0.158800	-0.234289				-0.004341	-0.001266	0.002219				-147.908482	88.391583	-101.245834
00819	14958062	-9.809489	-0.135817	-0.255368				-0.004466	0.001769	-0.000360				-147.922708	88.391669	-101.261091
00820	14958112	-9.792633	-0.148068	-0.261125				-0.006497	0.000016	0.001399				-147.936706	88.391744	-101.273296
00821	14958162	-9.817846	-0.138702	-0.245762				-0.005334	0.003784	-0.001083				-147.955211	88.391586	-101.292413
00822	14958212	-9.801507	-0.151846	-0.241906				-0.000120	-0.001264	-0.001474				-147.935592	88.391644	-101.272756
00823	14958262	-9.799036	-0.146090	-0.230899				-0.002363	-0.000271	-0.002685				-147.917286	88.391746	-101.256106
00824	14958312	-9.821045	-0.141011	-0.223636				-0.003655	0.001162	-0.001292				-147.913535	88.391006	-101.251419
00825	14958362	-9.803813	-0.152524	-0.253176				-0.005692	0.000669	-0.003346				-147.896500	88.390864	-101.235057
00826	14958412	-9.803414	-0.142566	-0.261051				-0.003754	-0.000514	0.000621				-147.900287	88.391194	-101.237716
00827	14958462	-9.796210	-0.152415	-0.250397				-0.003752	0.003228	-0.002664				-147.901421	88.390613	-101.240074
00828	14958512	-9.788704	-0.146923	-0.243944				-0.005967	0.001448	-0.001322				-147.899598	88.390049	-101.236543
00829	14958562	-9.809262	-0.139306	-0.245934				-0.008116	-0.001498	-0.000081				-147.899241	88.390976	-101.236161
00830	14958612	-9.814973	-0.140706	-0.244470				-0.006672	-0.000768	-0.003221				-147.869188	88.390646	-101.204193
00831	14958662	-9.800743	-0.167701	-0.256952				-0.002006	-0.001365	-0.000864				-147.860589	88.391818	-101.197140
00832	14958712	-9.796652	-0.158670	-0.243681				-0.004317	0.002960	-0.001380				-147.865924	88.390712	-101.201317
00833	14958762	-9.821316	-0.150230	-0.238708				-0.006720	-0.000183	-0.001358				-147.860866	88.391601	-101.196437
00834	14958812	-9.802048	-0.150623	-0.235198				-0.005352	-0.001236	-0.004352				-147.818128	88.391422	-101.152065
00835	14958862	-9.801315	-0.133669	-0.232273				-0.004689	-0.002279	0.000968				-147.821604	88.392253	-101.156712
00836	14958912	-9.809595	-0.152979	-0.241865				-0.004053	-0.000628	-0.004673				-147.778932	88.391654	-101.112885
00837	14958962	-9.803714	-0.157096	-0.220981				-0.002803	-0.002241	0.001863				-147.789597	88.393192	-101.124990
00838	14959012	-9.815458	-0.146616	-0.229395				-0.004814	-0.001936	-0.003779				-147.747991	88.393023	-101.082012
00839	14959062	-9.810985	-0.145392	-0.263281				-0.003985	0.004011	0.002024				-147.794314	88.393020	-101.129460
00840	14959112	-9.794312	-0.166776	-0.219437				-0.003412	-0.000352	-0.001720				-147.778746	88.392528	-101.113048
00841	14959162	-9.802976	-0.167289	-0.243049				-0.004503	-0.002309	0.000002				-147.773118	88.394574	-101.108008
00842	14959212	-9.798290	-0.143098	-0.241498				-0.001034	0.002237	-0.003832				-147.752744	88.393245	-101.087421
00843	14959262	-9.801266	-0.146214	-0.254080				-0.002711	-0.000437	-0.001242				-147.745810	88.393522	-101.082085
00844	14959312	-9.799908	-0.139260	-0.257305				-0.003951	0.001416	-0.001292				-147.743354	88.393178	-101.078414
00845	14959362	-9.801945	-0.130605	-0.253656				0.002211	0.000038	-0.001476				-147.736434	88.393331	-101.074512
00846	14959412	-9.817612	-0.145954	-0.269188				-0.003830	0.001676	-0.001132				-147.736701	88.392715	-101.073696
00847	14959462	-9.778788	-0.157199	-0.248262				-0.002290	0.000605	-0.000309				-147.744601	88.392625	-101.083442
00848	14959512	-9.794929	-0.149813	-0.232174				-0.000907	0.001503	-0.000469				-147.748890	88.392077	-101.087520
00849	14959562	-9.809706	-0.166105	-0.235892				-0.002426	0.000664	-0.002326				-147.738608	88.393367	-101.078283
00850	14959612	-9.809954	-0.141511	-0.244987				0.000616	-0.001121	-0.000901				-147.724719	88.393431	-101.064597
00851	14959662	-9.783953	-0.178197	-0.255687				-0.008432	0.001504	0.000449				-147.745463	88.393210	-101.085437
00852	14959712	-9.807362	-0.155396	-0.251109				0.000120	0.003497	-0.000938				-147.756489	88.392172	-101.096523
00853	14959762	-9.820351	-0.142334	-0.256783				-0.000050	0.002974	0.000183				-147.780025	88.392443	-101.122184
00854	14959812	-9.812804	-0.139503	-0.250182				-0.004413	-0.000949	0.001041				-147.785284	88.392559	-101.126302
00855	14959862	-9.801455	-0.141281	-0.232884				-0.005417	0.002716	-0.000158				-147.805972	88.393228	-101.147396
00856	14959912	-9.799417	-0.149793	-0.237833				-0.003456	-0.000679	-0.002196				-147.784511	88.392974	-101.124971
00857	14959962	-9.815283	-0.147279	-0.258487				-0.004783	0.003149	-0.001370				-147.797562	88.392269	-101.139087
00858	14960012	-9.799689	-0.163721	-0.242202				-0.006893	0.000779	-0.001156				-147.794177	88.391536	-101.133891
00859	14960062	-9.803617	-0.155455	-0.239577				-0.004283	0.002544	0.000902				-147.822529	88.391745	-101.163300
00860	14960112	-9.804570	-0.152046	-0.247632				-0.002237	-0.001693	-0.000989				-147.805552	88.391915	-101.145713
00861	14960162	-9.810391	-0.159332	-0.253603				-0.002874	0.001502	0.000412				-147.823732	88.392836	-101.165097
00862	14960212	-9.811441	-0.142091	-0.233459				-0.005804	-0.001007	0.000727				-147.826277	88.393095	-101.166022
00863	14960262	-9.803759	-0.163257	-0.240523				-0.005075	0.002371	0.001705				-147.861602	88.393151	-101.202313
00864	14960312	-9.787618	-0.152714	-0.253176				-0.005382	-0.001618	-0.002325				-147.834182	88.393239	-101.173316
00865	14960362	-9.810402	-0.156016	-0.258186				-0.003419	-0.000516	-0.000143				-147.836938	88.394140	-101.177298
00866	14960412	-9.809610	-0.141855	-0.261853				-0.002586	0.003772	0.000843				-147.865405	88.393478	-101.204982
00867	14960462	-9.797733	-0.140436	-0.221851				-0.000468	0.001479	0.000981				-147.888316	88.393542	-101.230203
00868	14960512	-9.786922	-0.154965	-0.244862				-0.001907	-0.000782	-0.001211				-147.874379	88.393393	-101.215780
00869	14960562	-9.797066	-0.140793	-0.251277				-0.000092	0.000220	-0.002749				-147.857652	88.393850	-101.201195
00870	14960612	-9.818092	-0.133869	-0.254378				-0.002194	0.001121	-0.002446				-147.843099	88.393139	-101.186039
00871	14960662	-9.822042	-0.153996	-0.229419				-0.006351	0.002956	-0.000918				-147.859191	88.392925	-101.202574
00872	14960712	-9.801127	-0.164263	-0.240672				-0.004508	-0.000992	-0.003254				-147.827232	88.392406	-101.169430
00873	14960762	-9.809278	-0.152726	-0.254636				-0.002400	0.001508	-0.002382				-147.820728	88.393080	-101.164184
00874	14960812	-9.803635	-0.148610	-0.251025				-0.008687	0.000785	-0.000378				-147.824407	88.392605	-101.165476
00875	14960862	-9.807704	-0.169724	-0.244562				0.001932	0.001390	-0.001878				-147.821386	88.392508	-101.165343
00876	14960912	-9.794639	-0.152874	-0.235220				-0.004446	0.001206	-0.003277				-147.801099	88.391728	-101.143769
00877	14960962	-9.788917	-0.162908	-0.253249				-0.005504	0.000450	-0.000329				-147.807918	88.392639	-101.151113
00878	14961012	-9.817022	-0.149279	-0.241880				-0.001827	0.001510	-0.003504				-147.786244	88.391701	-101.128927
00879	14961062	-9.816529	-0.144475	-0.253832				-0.004691	0.000109	-0.001224				-147.784330	88.391993	-101.127989
00880	14961112	-9.809601	-0.149056	-0.247708				-0.004820	0.002210	-0.000573				-147.792983	88.391261	-101.135316
00881	14961162	-9.801941	-0.151209	-0.248248				-0.001947	0.001848	0.004321				-147.846315	88.392305	-101.190304
00882	14961212	-9.816397	-0.144491	-0.237452				-0.004078	-0.001883	0.001102				-147.847270	88.392730	-101.190178
00883	14961262	-9.802851	-0.144404	-0.232354				-0.007062	0.001265	0.000066				-147.862456	88.393292	-101.205498
00884	14961312	-9.800991	-0.140551	-0.232999				-0.005870	-0.002135	0.000529				-147.857037	88.393942	-101.198375
00885	14961362	-9.815599	-0.138873	-0.261777				-0.003653	0.000875	0.000666				-147.875042	88.394312	-101.217690
00886	14961412	-9.808854	-0.136379	-0.239711				-0.001295	-0.000219	-0.003320				-147.845293	88.394005	-101.187492
00887	14961462	-9.819915	-0.142437	-0.250402				-0.007432	-0.002424	-0.000239				-147.838649	88.394845	-101.181144
00888	14961512	-9.804146	-0.163598	-0.254227				-0.003240	0.001748	-0.003147				-147.821770	88.393972	-101.163316
00889	14961562	-9.792912	-0.165596	-0.256834				-0.004342	0.000787	-0.004816				-147.791611	88.393917	-101.134073
00890	14961612	-9.806190	-0.139552	-0.241656				-0.002482	0.000180	-0.000815				-147.786444	88.393745	-101.128195
00891	14961662	-9.803396	-0.151359	-0.245740				-0.005142	-0.001968	-0.001655				-147.768682	88.394172	-101.111412
00892	14961712	-9.812180	-0.158988	-0.234442				-0.005162	-0.001225	-0.000014				-147.763588	88.394099	-101.104995
00893	14961762	-9.822926	-0.155731	-0.236855				-0.004436	0.003219	-0.000345				-147.785426	88.394496	-101.127598
00894	14961812	-9.803510	-0.145780	-0.239037				-0.005111	-0.000837	-0.001455				-147.769872	88.394255	-101.110670
00895	14961862	-9.808087	-0.150758	-0.258382				-0.002117	-0.001331	-0.001592				-147.755166	88.395185	-101.097531
00896	14961912	-9.810688	-0.143369	-0.237773				-0.000953	-0.001065	-0.004546				-147.710501	88.394572	-101.052654
00897	14961962	-9.793338	-0.154099	-0.248975				-0.003871	0.003386	-0.003137				-147.709139	88.393568	-101.052623
00898	14962012	-9.800003	-0.164513	-0.228999				-0.001232	0.001471	0.001784				-147.733185	88.393178	-101.076460
00899	14962062	-9.801023	-0.165850	-0.253442				-0.002822	-0.000273	0.000592				-147.743370	88.394639	-101.087794
00900	14962112	-9.799799	-0.155348	-0.242507				-0.006234	0.003346	-0.000951				-147.755267	88.393647	-101.097920
00901	14962162	-9.804201	-0.150971	-0.231413				-0.002535	0.002389	0.003944				-147.809033	88.394806	-101.153023
00902	14962212	-9.810313	-0.145394	-0.256458				-0.002731	-0.001413	-0.003551				-147.771278	88.394535	-101.114509
00903	14962262	-9.786502	-0.156745	-0.232746				-0.004984	0.003501	0.001389				-147.809542	88.394163	-101.153770
00904	14962312	-9.805933	-0.137087	-0.249894				-0.002433	0.002801	-0.000222				-147.823728	88.393093	-101.167417
00905	14962362	-9.804071	-0.123380	-0.232558				-0.003992	0.001281	-0.002279				-147.818321	88.393354	-101.163013
00906	14962412	-9.809611	-0.132531	-0.241718				-0.003166	0.001588	-0.000712				-147.821510	88.392909	-101.165279
00907	14962462	-9.818008	-0.146786	-0.240763				-0.002693	-0.003178	0.001349				-147.822554	88.394546	-101.167834
00908	14962512	-9.812317	-0.149511	-0.231616				-0.008237	0.002923	-0.001327				-147.829228	88.393773	-101.172089
00909	14962562	-9.811041	-0.143716	-0.257459				-0.002827	0.000654	-0.003606				-147.808512	88.393898	-101.152760
00910	14962612	-9.802710	-0.155095	-0.234184				0.002591	-0.003386	-0.001650				-147.775194	88.394576	-101.120125
00911	14962662	-9.806432	-0.154200	-0.250065				-0.001819	0.001351	-0.002833				-147.764683	88.394243	-101.111448
00912	14962712	-9.822690	-0.143288	-0.261550				-0.004139	0.002899	-0.001019				-147.772703	88.393308	-101.118314
00913	14962762	-9.807570	-0.161197	-0.243853				-0.003897	0.003321	-0.001948				-147.781791	88.392847	-101.128549
00914	14962812	-9.801114	-0.146441	-0.240287				-0.006991	0.001582	-0.004262				-147.755736	88.391776	-101.100495
00915	14962862	-9.811607	-0.144862	-0.240161				-0.004134	-0.001436	-0.001430				-147.742644	88.392238	-101.088613
00916	14962912	-9.804487	-0.156979	-0.249641				-0.001607	0.001946	0.000183				-147.755425	88.391872	-101.100905
00917	14962962	-9.817336	-0.135733	-0.256313				-0.003043	0.002722	-0.001246				-147.766397	88.391684	-101.113258
00918	14963012	-9.798498	-0.139712	-0.252558				-0.006999	0.001238	0.000773				-147.782035	88.391536	-101.126883
00919	14963062	-9.813938	-0.146475	-0.245524				0.001442	0.002838	0.000340				-147.806307	88.391379	-101.153920
00920	14963112	-9.801826	-0.146416	-0.240758				-0.008180	0.000081	0.000028				-147.809540	88.391422	-101.154781
00921	14963162	-9.816935	-0.141906	-0.232026				-0.004157	-0.000133	0.003491				-147.845875	88.392650	-101.192201
00922	14963212	-9.823235	-0.140960	-0.255273				-0.003155	0.001208	-0.000197				-147.851663	88.392481	-101.197017
00923	14963262	-9.810190	-0.142626	-0.242673				-0.000711	0.002122	0.001820				-147.885043	88.393410	-101.232223
00924	14963312	-9.804214	-0.160007	-0.250255				-0.000463	-0.000788	0.000682				-147.886960	88.393837	-101.233950
00925	14963362	-9.811285	-0.149555	-0.244919				-0.000539	0.005675	-0.000760				-147.917399	88.392781	-101.266596
00926	14963412	-9.806143	-0.143814	-0.240936				0.000846	0.001564	0.001172				-147.935842	88.392727	-101.285225
00927	14963462	-9.789909	-0.155874	-0.262036				-0.002323	0.004420	-0.000505				-147.963114	88.391268	-101.314522
00928	14963512	-9.805292	-0.149940	-0.249664				-0.005593	0.004426	-0.001106				-147.978937	88.390085	-101.328722
00929	14963562	-9.808512	-0.144831	-0.240417				-0.002744	-0.002766	0.000068				-147.971324	88.391543	-101.322532
00930	14963612	-9.812251	-0.134577	-0.233735				-0.002316	0.000018	-0.000976				-147.963548	88.391396	-101.314088
00931	14963662	-9.800626	-0.147153	-0.240767				-0.006191	0.000824	-0.002315				-147.956249	88.391544	-101.307252
00932	14963712	-9.811876	-0.153458	-0.257936				-0.004382	0.000205	-0.003633				-147.927264	88.391419	-101.276782
00933	14963762	-9.803535	-0.153931	-0.256026				-0.006098	-0.000554	0.004036				-147.966884	88.392469	-101.317095
00934	14963812	-9.801386	-0.145122	-0.237389				-0.003586	0.000284	-0.004180				-147.933100	88.391860	-101.282223
00935	14963862	-9.815517	-0.150431	-0.252979				-0.004173	-0.005373	-0.000806				-147.904244	88.393571	-101.254463
00936	14963912	-9.797736	-0.150973	-0.237254				-0.001497	-0.002677	-0.000256				-147.887925	88.394000	-101.237789
00937	14963962	-9.794416	-0.149009	-0.240527				-0.003497	-0.002523	-0.002977				-147.855947	88.395213	-101.206848
00938	14964012	-9.808671	-0.144933	-0.252878				-0.003111	-0.002487	-0.003235				-147.815398	88.395359	-101.165371
00939	14964062	-9.816972	-0.160801	-0.225666				-0.004441	0.002642	0.001672				-147.851510	88.395467	-101.202553
00940	14964112	-9.813600	-0.158863	-0.236987				-0.003912	-0.001068	0.001172				-147.857231	88.395975	-101.207123
00941	14964162	-9.816143	-0.166679	-0.233080				-0.005179	0.003233	-0.003515				-147.851731	88.395016	-101.202515
00942	14964212	-9.793368	-0.172166	-0.247038				-0.003527	0.000479	-0.003672				-147.823511	88.394305	-101.173285
00943	14964262	-9.804268	-0.139492	-0.243410				-0.002601	0.002023	0.000765				-147.848242	88.394611	-101.199536
00944	14964312	-9.797194	-0.148463	-0.253738				-0.002614	0.002408	0.000095				-147.862965	88.394013	-101.213525
00945	14964362	-9.803388	-0.149862	-0.250608				-0.001710	0.002099	-0.000841				-147.873807	88.394039	-101.226143
00946	14964412	-9.801022	-0.159755	-0.265957				-0.000901	0.001992	0.001469				-147.897832	88.393602	-101.250001
00947	14964462	-9.806339	-0.148878	-0.236677				-0.004882	0.000012	-0.000490				-147.901529	88.394240	-101.254527
00948	14964512	-9.804935	-0.150340	-0.229730				-0.005230	0.003207	0.001422				-147.932889	88.393578	-101.284444
00949	14964562	-9.796016	-0.168500	-0.248628				-0.002623	-0.002569	0.000609				-147.930639	88.395040	-101.283680
00950	14964612	-9.796912	-0.161678	-0.234826				0.000360	0.003426	-0.003248				-147.921068	88.393837	-101.274149
00951	14964662	-9.803168	-0.148799	-0.249603				-0.002725	0.002155	0.003177				-147.967185	88.394310	-101.321820
00952	14964712	-9.808722	-0.153782	-0.264406				-0.001348	-0.001319	-0.001336				-147.948384	88.394774	-101.302472
00953	14964762	-9.801553	-0.162585	-0.252044				-0.000549	0.001863	0.000215				-147.967604	88.394842	-101.323897
00954	14964812	-9.814462	-0.149361	-0.232729				-0.005090	0.000387	-0.003437				-147.941611	88.393912	-101.296573
00955	14964862	-9.805205	-0.163364	-0.236907				-0.005487	0.000969	-0.001509				-147.941409	88.394261	-101.296994
00956	14964912	-9.804745	-0.139683	-0.243397				-0.001726	-0.000288	0.001841				-147.955985	88.394835	-101.310979
00957	14964962	-9.795875	-0.166794	-0.237231				-0.001333	0.001170	-0.001936				-147.952222	88.394972	-101.309068
00958	14965012	-9.815256	-0.154364	-0.248364				-0.001083	0.000460	-0.001975				-147.937987	88.394745	-101.294435
00959	14965062	-9.808725	-0.167262	-0.237508				-0.000026	-0.002979	-0.003956				-147.893670	88.395171	-101.252525
00960	14965112	-9.830010	-0.143626	-0.232700				-0.001625	0.001422	-0.001770				-147.886609	88.394257	-101.245128
00961	14965162	-9.797784	-0.162958	-0.244564				-0.006511	-0.000152	-0.000869				-147.886194	88.394833	-101.245114
00962	14965212	-9.813456	-0.148727	-0.242374				-0.000598	0.001213	-0.001553				-147.879532	88.394218	-101.238317
00963	14965262	-9.797819	-0.163495	-0.237912				-0.002982	0.001819	-0.001705				-147.881481	88.394228	-101.241647
00964	14965312	-9.815166	-0.149610	-0.232759				-0.005706	-0.000167	-0.000038				-147.881817	88.394133	-101.240403
00965	14965362	-9.805204	-0.155801	-0.252984				-0.002993	0.003111	-0.001921				-147.889120	88.394163	-101.248922
00966	14965412	-9.791913	-0.150068	-0.257862				-0.004770	0.002664	-0.001085				-147.895483	88.393509	-101.253851
00967	14965462	-9.820479	-0.153312	-0.251917				-0.003342	0.001240	0.001952				-147.926388	88.393757	-101.286249
00968	14965512	-9.823916	-0.145027	-0.252890				-0.005940	0.003320	-0.000177				-147.944678	88.392643	-101.302965
00969	14965562	-9.815549	-0.137852	-0.234281				-0.009233	0.003235	0.001080				-147.979655	88.393269	-101.337326
00970	14965612	-9.813234	-0.148950	-0.238496				-0.003540	0.000196	0.000025				-147.981686	88.393372	-101.338286
00971	14965662	-9.810339	-0.132309	-0.240006				0.000022	0.001064	-0.000752				-147.988198	88.392815	-101.347438
00972	14965712	-9.807463	-0.147266	-0.251812				-0.004165	0.002706	-0.001020				-147.995178	88.392003	-101.353225
00973	14965762	-9.792800	-0.147125	-0.234973				-0.003693	-0.001233	-0.001527				-147.982545	88.393339	-101.341502
00974	14965812	-9.822316	-0.132491	-0.227458				-0.005729	0.002284	-0.003711				-147.964481	88.392259	-101.321768
00975	14965862	-9.802126	-0.145619	-0.229359				-0.001669	0.002043	0.000797				-147.988783	88.392366	-101.347960
00976	14965912	-9.808604	-0.172534	-0.245806				-0.005195	0.000907	-0.001124				-147.985587	88.392204	-101.343170
00977	14965962	-9.806149	-0.145107	-0.236649				-0.004853	0.000139	-0.000263				-147.991617	88.392840	-101.350050
00978	14966012	-9.808545	-0.156763	-0.249352				-0.002293	0.001288	-0.000101				-147.998035	88.392624	-101.355762
00979	14966062	-9.803956	-0.146609	-0.242690				-0.004142	0.002125	0.001410				-148.029664	88.392550	-101.388678
00980	14966112	-9.816442	-0.130736	-0.257769				-0.004636	0.003340	-0.003807				-148.016171	88.391007	-101.373917
00981	14966162	-9.812233	-0.145909	-0.252480				-0.006687	0.003466	-0.000785				-148.035860	88.390539	-101.394036
00982	14966212	-9.805775	-0.167840	-0.251296				-0.002129	0.002261	0.001343				-148.060524	88.390228	-101.418080
00983	14966262	-9.808159	-0.159004	-0.229889				-0.005275	0.000259	-0.001388				-148.057469	88.390526	-101.415820
00984	14966312	-9.813277	-0.145730	-0.238998				-0.003453	0.000288	-0.003572				-148.029033	88.390140	-101.386289
00985	14966362	-9.807275	-0.148198	-0.242589				-0.001536	0.000225	-0.004633				-147.996672	88.389825	-101.355835
00986	14966412	-9.813123	-0.141169	-0.234450				-0.004392	0.000826	0.000123				-148.003551	88.389423	-101.361552
00987	14966462	-9.822247	-0.150452	-0.241899				-0.005923	0.002578	-0.001660				-148.011055	88.389739	-101.369382
00988	14966512	-9.835371	-0.136855	-0.226721				-0.000902	-0.000282	-0.001784				-147.994489	88.389602	-101.352522
00989	14966562	-9.807794	-0.152207	-0.225497				-0.003698	-0.003073	-0.001055				-147.976087	88.390449	-101.335493
00990	14966612	-9.796533	-0.139037	-0.225991				-0.006022	0.002701	-0.002880				-147.967809	88.389265	-101.325527
00991	14966662	-9.809072	-0.153946	-0.247648				-0.004221	0.001607	0.001125				-147.993136	88.390026	-101.351776
00992	14966712	-9.797293	-0.161391	-0.249912				-0.004525	0.001956	0.000641				-148.010526	88.389463	-101.367957
00993	14966762	-9.804694	-0.140166	-0.251029				-0.004115	0.000054	-0.001324				-148.006949	88.389919	-101.365421
00994	14966812	-9.802956	-0.152123	-0.239050				-0.004451	0.000728	-0.000551				-148.007595	88.389527	-101.364852
00995	14966862	-9.821853	-0.148150	-0.231984				-0.005022	-0.000474	0.001663				-148.027089	88.390828	-101.385045
00996	14966912	-9.821056	-0.153422	-0.236369				-0.006420	0.001884	-0.003102				-148.012371	88.389962	-101.368458
00997	14966962	-9.797125	-0.155670	-0.249598				-0.005257	-0.000224	-0.000588				-148.014248	88.390444	-101.371148
00998	14967012	-9.792555	-0.167270	-0.233907				-0.004660	0.004313	-0.000370				-148.035790	88.389294	-101.391382
00999	14967062	-9.822710	-0.153838	-0.236829				-0.003189	0.000167	0.000084				-148.044546	88.390000	-101.401458
01000	14967112	-9.820396	-0.142730	-0.249090				-0.002621	0.002474	-0.000674				-148.052804	88.389298	-101.408968
01001	14967162	-9.804882	-0.147086	-0.245047				-0.004525	0.002023	0.000097				-148.072242	88.389256	-101.429506
01002	14967212	-9.818262	-0.148624	-0.234664				-0.005914	0.000381	0.000925				-148.083836	88.389409	-101.439360
01003	14967262	-9.806319	-0.154373	-0.268698				-0.005148	-0.001907	-0.002779				-148.057630	88.390149	-101.413917
01004	14967312	-9.804954	-0.159308	-0.245921				-0.006596	-0.001144	0.003167				-148.080695	88.390968	-101.435072
01005	14967362	-9.820760	-0.156173	-0.239225				-0.002760	0.001020	0.000027				-148.093374	88.391453	-101.449187
01006	14967412	-9.797500	-0.154830	-0.229324				-0.003720	0.003909	-0.001210				-148.105128	88.390443	-101.459824
01007	14967462	-9.815548	-0.153006	-0.240691				0.000062	0.000810	-0.000046				-148.115631	88.390353	-101.472857
01008	14967512	-9.791309	-0.144927	-0.249411				-0.006794	-0.002446	0.000398				-148.107971	88.390864	-101.463310
01009	14967562	-9.786813	-0.152013	-0.231542				-0.008426	0.001855	-0.000697				-148.120353	88.391153	-101.475435
01010	14967612	-9.797991	-0.146723	-0.243294				-0.000367	-0.003513	-0.006135				-148.048045	88.391150	-101.402960
01011	14967662	-9.792998	-0.149932	-0.235082				-0.006142	0.003578	0.000367				-148.078936	88.391083	-101.434344
01012	14967712	-9.796915	-0.155781	-0.245050				-0.003591	-0.001194	-0.000081				-148.072932	88.391146	-101.427407
01013	14967762	-9.819642	-0.149238	-0.242058				-0.000393	-0.001040	-0.000091				-148.073090	88.391831	-101.429815
01014	14967812	-9.806318	-0.157915	-0.221572				-0.007565	0.000836	-0.000095				-148.078819	88.391507	-101.433425
01015	14967862	-9.816126	-0.149980	-0.231330				-0.000328	0.000194	0.002132				-148.104882	88.392840	-101.461507
01016	14967912	-9.793085	-0.148483	-0.224983				-0.005534	0.001286	-0.003114				-148.086473	88.391970	-101.441543
01017	14967962	-9.811550	-0.147945	-0.243345				-0.001609	0.001942	-0.001384				-148.091576	88.391812	-101.448502
01018	14968012	-9.801026	-0.156507	-0.234491				0.002183	0.000322	-0.002659				-148.069441	88.391559	-101.426888
01019	14968062	-9.801199	-0.139088	-0.241425				-0.004153	-0.000919	-0.001971				-148.055479	88.391654	-101.414208
01020	14968112	-9.810014	-0.156691	-0.242582				-0.005153	-0.000706	-0.001583				-148.039733	88.391618	-101.396957
01021	14968162	-9.810173	-0.160089	-0.249045				0.002197	-0.000900	-0.000095				-148.038962	88.392565	-101.399033
01022	14968212	-9.789498	-0.162416	-0.238409				-0.002609	-0.000014	-0.001235				-148.028885	88.392417	-101.388186
01023	14968262	-9.793365	-0.156510	-0.240834				-0.003719	0.002940	-0.000768				-148.045551	88.392401	-101.405978
01024	14968312	-9.812568	-0.176564	-0.252452				-0.006899	0.001812	-0.003167				-148.029865	88.391481	-101.388308
01025	14968362	-9.801536	-0.155423	-0.231414				-0.004400	0.000658	-0.003757				-148.008359	88.391625	-101.367704
01026	14968412	-9.805305	-0.153640	-0.239793				-0.003386	0.000257	-0.001711				-147.995760	88.391389	-101.354094
01027	14968462	-9.802749	-0.153707	-0.230634				-0.002179	-0.000303	-0.001557				-147.987556	88.392126	-101.347413
01028	14968512	-9.810706	-0.163034	-0.233704				-0.003398	-0.000356	-0.002325				-147.966806	88.391737	-101.325732
01029	14968562	-9.809271	-0.159089	-0.243960				-0.002902	-0.001026	-0.002969				-147.942986	88.391754	-101.303526
01030	14968612	-9.819427	-0.141949	-0.251885				-0.003713	-0.000554	-0.001392				-147.928789	88.391830	-101.288191
01031	14968662	-9.800910	-0.144571	-0.238124				-0.002842	0.000498	-0.000719				-147.932152	88.392599	-101.292854
01032	14968712	-9.776417	-0.169813	-0.259119				-0.006556	0.001206	-0.001638				-147.926168	88.392032	-101.284999
01033	14968762	-9.808376	-0.131193	-0.251963				-0.002808	-0.000898	-0.002774				-147.904556	88.392250	-101.264933
01034	14968812	-9.799204	-0.142766	-0.248201				-0.002974	0.000262	-0.002837				-147.882291	88.391727	-101.241819
01035	14968862	-9.792323	-0.140586	-0.248389				-0.002390	-0.001052	-0.002810				-147.859423	88.392512	-101.220376
01036	14968912	-9.804353	-0.146862	-0.254145				-0.002787	0.000293	-0.005690				-147.812789	88.391629	-101.172902
01037	14968962	-9.814695	-0.130070	-0.233572				-0.002012	0.002614	-0.000902				-147.825655	88.391441	-101.187489
01038	14969012	-9.788305	-0.159952	-0.243155				-0.001551	0.000264	0.000595				-147.832587	88.391613	-101.193921
01039	14969062	-9.794564	-0.158317	-0.235442				-0.002667	-0.002413	-0.002307				-147.806678	88.391990	-101.169709
01040	14969112	-9.803527	-0.157424	-0.252225				-0.003138	0.000492	-0.002285				-147.790633	88.391582	-101.152730
01041	14969162	-9.810588	-0.150330	-0.240223				-0.005031	-0.000352	-0.000910				-147.788423	88.392402	-101.151248
01042	14969212	-9.811664	-0.155667	-0.247641				-0.006453	0.000180	0.000512				-147.795724	88.392500	-101.156671
01043	14969262	-9.801142	-0.148689	-0.231802				-0.004081	-0.001043	-0.001428				-147.785054	88.392889	-101.147224
01044	14969312	-9.803328	-0.156122	-0.247586				-0.004327	-0.002671	-0.003488				-147.741582	88.393142	-101.102431
01045	14969362	-9.809676	-0.156144	-0.259943				-0.003196	0.002596	-0.000416				-147.759315	88.392836	-101.121628
01046	14969412	-9.804458	-0.158179	-0.253200				-0.001297	0.000776	-0.004216				-147.727776	88.391793	-101.089797
01047	14969462	-9.806376	-0.143569	-0.242171				-0.005892	0.000671	-0.000900				-147.731230	88.392461	-101.093694
