// General information: 
//  MT Manager version: 2022.0.0 
//  XDA version: 2022.0.0 build 7085 rev 119802 built on 2022-11-08
// Device information: 
//  DeviceId: 037004D1
//  ProductCode: MTi-300-2A5G4
//  Firmware Version: 1.4.1
//  Hardware Version: 2.1.0
// Device settings: 
//  Filter Profile: general(39.16)
//  Option Flags: Orientation Smoother Disabled, Position/Velocity Smoother Disabled, Continuous Zero Rotation Update Disabled, AHS Disabled, ICC Disabled
// Coordinate system: ENU
PacketCounter	SampleTimeFine	Acc_X	Acc_Y	Acc_Z	AccHR_X	AccHR_Y	AccHR_Z	Gyr_X	Gyr_Y	Gyr_Z	GyrHR_X	GyrHR_Y	GyrHR_Z	Roll	Pitch	Yaw
00001	16673712	9.836652	0.202636	0.203177				-0.001168	0.001940	-0.004476				44.439757	-88.199567	-168.231210
00002	16673762	9.820076	0.192207	0.210404				-0.003647	0.000481	-0.001528				44.438562	-88.199708	-168.228902
00003	16673812	9.825106	0.190577	0.207236				-0.003262	-0.001125	0.002797				44.426676	-88.200448	-168.217915
00004	16673862	9.820327	0.195199	0.202211				-0.001864	-0.001135	0.000869				44.420328	-88.201418	-168.209929
00005	16673912	9.826329	0.204582	0.213087				-0.003413	0.003492	-0.000837				44.402471	-88.200487	-168.193022
00006	16673962	9.815212	0.197842	0.215291				-0.005893	0.002636	-0.001477				44.386421	-88.200479	-168.176645
00007	16674012	9.832523	0.187122	0.209439				-0.005061	0.001851	0.000277				44.371363	-88.200088	-168.162989
00008	16674062	9.821230	0.200522	0.198860				-0.003085	-0.001097	-0.001571				44.380059	-88.200827	-168.170598
00009	16674112	9.840978	0.193516	0.215034				-0.001982	-0.000134	0.002503				44.363951	-88.201293	-168.155027
00010	16674162	9.812062	0.209331	0.200425				-0.001062	0.001014	-0.000215				44.351565	-88.201947	-168.140958
00011	16674212	9.802357	0.199949	0.209066				-0.005796	-0.000732	-0.004768				44.385592	-88.201069	-168.176630
00012	16674262	9.833763	0.182835	0.209443				-0.003779	0.001410	-0.003672				44.392314	-88.200937	-168.182449
00013	16674312	9.828477	0.197460	0.188401				-0.000640	0.002732	-0.001493				44.384345	-88.200043	-168.174643
00014	16674362	9.833096	0.208160	0.190935				-0.003556	0.001707	-0.001618				44.375435	-88.200559	-168.164908
00015	16674412	9.819152	0.190851	0.208240				-0.003111	-0.000258	-0.001823				44.388100	-88.200153	-168.178422
00016	16674462	9.846125	0.195743	0.187531				-0.001611	0.000835	-0.001404				44.384891	-88.199765	-168.173286
00017	16674512	9.825935	0.197954	0.213074				-0.000810	0.002211	0.000270				44.368997	-88.199104	-168.157481
00018	16674562	9.807932	0.216007	0.199953				-0.002795	0.001848	-0.002674				44.365973	-88.199299	-168.153385
00019	16674612	9.826550	0.209601	0.204046				-0.004504	-0.002067	-0.004169				44.404981	-88.198965	-168.193745
00020	16674662	9.809717	0.207963	0.197703				0.000814	0.000131	-0.003146				44.417338	-88.199416	-168.203997
00021	16674712	9.801720	0.211472	0.212663				-0.003304	0.001840	-0.001936				44.417436	-88.198537	-168.204979
00022	16674762	9.810966	0.196084	0.211601				-0.003816	-0.002168	0.000353				44.420783	-88.199581	-168.207252
00023	16674812	9.821176	0.200787	0.207100				-0.002175	0.001737	0.001587				44.398985	-88.199282	-168.185933
00024	16674862	9.815984	0.196332	0.209031				-0.008266	0.001522	-0.003563				44.402693	-88.198824	-168.189881
00025	16674912	9.816188	0.179183	0.210948				-0.004648	0.001719	-0.001997				44.403368	-88.198095	-168.191903
00026	16674962	9.813081	0.195318	0.217940				-0.005792	0.002640	-0.000129				44.378400	-88.198616	-168.166678
00027	16675012	9.834927	0.184943	0.210680				-0.000852	-0.001130	-0.004400				44.413968	-88.197997	-168.202524
00028	16675062	9.812043	0.201584	0.179519				-0.003897	-0.001624	0.000739				44.411271	-88.199174	-168.198861
00029	16675112	9.812265	0.187540	0.211931				-0.002725	0.002021	0.001527				44.387813	-88.198840	-168.176059
00030	16675162	9.829634	0.209047	0.209184				-0.002860	0.002848	-0.003506				44.384467	-88.198345	-168.171510
00031	16675212	9.829685	0.186829	0.207757				-0.000842	0.001651	-0.005765				44.411299	-88.196935	-168.198637
00032	16675262	9.846609	0.175876	0.187504				-0.005206	0.000092	-0.002523				44.418020	-88.197245	-168.204845
00033	16675312	9.803174	0.198136	0.196858				-0.003301	0.002911	-0.001478				44.407974	-88.196577	-168.195853
00034	16675362	9.816375	0.203816	0.206611				-0.000902	0.001082	0.001932				44.381262	-88.197239	-168.167208
00035	16675412	9.811691	0.199842	0.202243				-0.005181	-0.001880	-0.001825				44.403599	-88.197376	-168.191101
00036	16675462	9.792506	0.212555	0.197941				-0.005370	-0.005084	-0.003827				44.452052	-88.198167	-168.238947
00037	16675512	9.818366	0.198664	0.203535				-0.003912	0.003030	0.000861				44.426096	-88.197788	-168.214131
00038	16675562	9.831935	0.197609	0.207013				-0.001583	0.001426	0.000972				44.402763	-88.198456	-168.189199
00039	16675612	9.807055	0.205306	0.209217				-0.003830	-0.000585	0.000750				44.400658	-88.198617	-168.188134
00040	16675662	9.802775	0.207545	0.204519				-0.003209	0.000679	-0.002807				44.406064	-88.198809	-168.192449
00041	16675712	9.820724	0.202242	0.200210				-0.002638	-0.003791	0.002810				44.411202	-88.200073	-168.198302
00042	16675762	9.809034	0.203072	0.201892				-0.001829	0.003201	0.000855				44.377520	-88.200468	-168.163129
00043	16675812	9.831717	0.191050	0.177312				-0.003825	0.000892	-0.003066				44.390762	-88.199606	-168.177442
00044	16675862	9.809656	0.196656	0.191028				-0.005665	-0.000589	-0.001139				44.393062	-88.199978	-168.179145
00045	16675912	9.801229	0.197772	0.203711				-0.005799	-0.002303	0.000263				44.404439	-88.200492	-168.192189
00046	16675962	9.808642	0.212309	0.209601				-0.003167	0.004689	-0.002243				44.381149	-88.199563	-168.167617
00047	16676012	9.816054	0.214410	0.198988				-0.002555	0.002536	-0.000683				44.368743	-88.198926	-168.155942
00048	16676062	9.818641	0.184746	0.187453				-0.004796	0.002560	0.000637				44.339211	-88.199834	-168.125988
00049	16676112	9.803045	0.202148	0.209613				-0.005829	0.002064	0.002307				44.309437	-88.199778	-168.097822
00050	16676162	9.828794	0.201467	0.204852				-0.001451	0.000904	-0.001564				44.306193	-88.199966	-168.092905
00051	16676212	9.836676	0.198905	0.207898				-0.004242	0.000013	-0.001593				44.315073	-88.199927	-168.103146
00052	16676262	9.821154	0.187430	0.199451				-0.006242	0.001694	-0.001514				44.305257	-88.199447	-168.092777
00053	16676312	9.806519	0.202203	0.188031				-0.002795	0.003818	-0.003373				44.302164	-88.197899	-168.090436
00054	16676362	9.825526	0.194856	0.209005				-0.002103	0.003678	0.001246				44.262458	-88.198498	-168.049460
00055	16676412	9.826706	0.202548	0.194323				-0.006071	0.001243	-0.000845				44.258409	-88.198074	-168.047146
00056	16676462	9.826201	0.195802	0.212747				0.001207	0.000078	-0.001190				44.258714	-88.198482	-168.045048
00057	16676512	9.822119	0.203592	0.203666				-0.005492	0.000697	-0.004501				44.282137	-88.197322	-168.070003
00058	16676562	9.825095	0.198899	0.193173				-0.005718	0.001318	-0.000202				44.265828	-88.197991	-168.053399
00059	16676612	9.814361	0.201521	0.191482				-0.004023	0.001083	-0.002870				44.276581	-88.197120	-168.065271
00060	16676662	9.804890	0.208767	0.206271				-0.003913	0.002763	-0.004209				44.277931	-88.196340	-168.065640
00061	16676712	9.813108	0.206446	0.191127				-0.003313	0.005332	0.000265				44.241409	-88.195233	-168.030013
00062	16676762	9.805072	0.202293	0.189455				-0.003757	0.003131	-0.001029				44.219983	-88.195257	-168.007674
00063	16676812	9.820914	0.200339	0.212885				-0.002596	0.002559	-0.004406				44.231653	-88.193980	-168.020160
00064	16676862	9.811412	0.198220	0.213535				-0.005246	0.000548	-0.000526				44.223029	-88.194051	-168.010771
00065	16676912	9.808365	0.186460	0.189886				-0.006637	0.000849	-0.001003				44.222121	-88.193847	-168.011855
00066	16676962	9.834717	0.195604	0.183519				-0.000275	0.001483	0.002317				44.190434	-88.194566	-167.978075
00067	16677012	9.831106	0.203950	0.211997				-0.003646	-0.001364	0.000580				44.194153	-88.195003	-167.982859
00068	16677062	9.828333	0.185137	0.198201				-0.007668	0.003158	-0.000187				44.165740	-88.195174	-167.954614
00069	16677112	9.822270	0.191255	0.203193				-0.003856	-0.000145	-0.002494				44.182018	-88.194580	-167.971936
00070	16677162	9.817220	0.193681	0.206842				-0.005425	0.000832	-0.001679				44.178706	-88.194649	-167.968035
00071	16677212	9.830129	0.188636	0.207700				-0.005890	-0.000532	-0.000566				44.183927	-88.194645	-167.974946
00072	16677262	9.804763	0.199063	0.207765				-0.004565	-0.002199	-0.005259				44.223196	-88.195120	-168.013660
00073	16677312	9.822163	0.196497	0.211162				-0.006213	0.002663	-0.001411				44.213775	-88.194321	-168.006032
00074	16677362	9.833085	0.182038	0.206031				-0.005569	0.000217	-0.002325				44.218661	-88.194421	-168.010388
00075	16677412	9.799417	0.185109	0.215098				-0.003954	0.001989	-0.003279				44.226549	-88.193131	-168.019296
00076	16677462	9.806844	0.192727	0.230115				-0.004790	0.000134	-0.000591				44.220630	-88.193999	-168.012838
00077	16677512	9.814019	0.205410	0.198904				-0.005013	0.000031	-0.001139				44.226237	-88.193783	-168.019897
00078	16677562	9.802023	0.204795	0.216282				-0.001503	0.001381	-0.004063				44.236579	-88.193081	-168.028432
00079	16677612	9.821778	0.193281	0.201805				-0.004838	0.004081	0.000551				44.205655	-88.192404	-167.998906
00080	16677662	9.830000	0.198530	0.209868				-0.001520	0.000159	-0.000796				44.201799	-88.192864	-167.993378
00081	16677712	9.822360	0.175951	0.219988				-0.004116	0.000248	-0.000376				44.201599	-88.192619	-167.994298
00082	16677762	9.808557	0.211626	0.223591				-0.001633	-0.001528	-0.003114				44.223784	-88.193151	-168.014953
00083	16677812	9.801193	0.207290	0.190152				-0.004084	-0.000855	-0.001307				44.236643	-88.192857	-168.028889
00084	16677862	9.820325	0.206687	0.217606				-0.002588	0.002365	-0.003671				44.237406	-88.192650	-168.028498
00085	16677912	9.816850	0.193994	0.188101				-0.002744	-0.000774	-0.002625				44.258509	-88.192337	-168.050424
00086	16677962	9.817140	0.200123	0.206050				-0.006638	-0.002225	-0.000381				44.265547	-88.193391	-168.057289
00087	16678012	9.834452	0.197725	0.223327				-0.003380	0.000061	-0.002207				44.278703	-88.192815	-168.071358
00088	16678062	9.813237	0.209968	0.200789				-0.003953	0.000447	0.001943				44.254661	-88.193978	-168.046418
00089	16678112	9.805680	0.198889	0.214122				-0.000583	0.001789	-0.001978				44.256193	-88.193145	-168.048084
00090	16678162	9.823955	0.208513	0.203707				-0.001023	0.001688	-0.000949				44.244312	-88.192830	-168.034184
00091	16678212	9.817369	0.207895	0.192234				-0.004189	0.000407	-0.000852				44.245933	-88.192635	-168.037039
00092	16678262	9.806709	0.191589	0.216029				-0.000907	0.001812	-0.003547				44.249575	-88.192566	-168.039045
00093	16678312	9.818401	0.193100	0.209754				-0.002282	0.003257	0.001273				44.220027	-88.192195	-168.010153
00094	16678362	9.812221	0.195542	0.202095				-0.003719	0.001939	0.000472				44.196458	-88.192507	-167.985528
00095	16678412	9.809574	0.215428	0.204995				-0.000700	0.004834	0.000159				44.164493	-88.191701	-167.953820
00096	16678462	9.818620	0.200719	0.195770				-0.004517	-0.001251	-0.000766				44.168328	-88.192799	-167.956983
00097	16678512	9.828569	0.177102	0.214186				-0.003787	-0.000232	-0.000919				44.174962	-88.192388	-167.964568
00098	16678562	9.804073	0.212847	0.213849				-0.001432	0.000521	-0.000633				44.168022	-88.193050	-167.956018
00099	16678612	9.825229	0.186422	0.196765				-0.007049	0.001579	-0.003534				44.178867	-88.192035	-167.968902
00100	16678662	9.833267	0.191740	0.195475				-0.001287	0.000610	-0.003909				44.192909	-88.191706	-167.981184
00101	16678712	9.810520	0.202809	0.192945				-0.002121	-0.000009	0.000744				44.187506	-88.191948	-167.976432
00102	16678762	9.818423	0.193074	0.206152				-0.000644	0.002626	-0.004859				44.194892	-88.191046	-167.981908
00103	16678812	9.820452	0.205759	0.198238				-0.004176	0.000955	-0.001910				44.200144	-88.190327	-167.988280
00104	16678862	9.802353	0.205965	0.198962				-0.005736	-0.000170	-0.000561				44.195600	-88.191266	-167.983475
00105	16678912	9.816783	0.196217	0.194591				0.000577	-0.000355	-0.000966				44.204314	-88.191137	-167.992024
00106	16678962	9.808764	0.231583	0.187704				-0.001148	0.000783	-0.000283				44.193255	-88.191762	-167.979302
00107	16679012	9.808509	0.212321	0.190799				-0.000438	0.000209	-0.003014				44.211451	-88.191086	-167.997616
00108	16679062	9.813029	0.207634	0.200315				-0.004208	-0.002827	0.002307				44.205790	-88.192784	-167.991088
00109	16679112	9.811310	0.204648	0.215226				0.000385	-0.000425	-0.002246				44.223174	-88.192552	-168.008434
00110	16679162	9.821781	0.206543	0.174694				-0.002218	0.002088	-0.000847				44.207890	-88.192261	-167.991515
00111	16679212	9.802138	0.206804	0.193237				-0.003266	0.001518	-0.002706				44.214982	-88.191377	-167.999529
00112	16679262	9.824005	0.187038	0.200692				-0.000965	0.004689	-0.005136				44.211007	-88.190134	-167.993792
00113	16679312	9.811462	0.200180	0.199889				-0.002377	-0.000217	-0.002048				44.224923	-88.189946	-168.008483
00114	16679362	9.812127	0.200201	0.208566				-0.001152	0.000784	-0.000121				44.213349	-88.190286	-167.995045
00115	16679412	9.821664	0.202431	0.202624				-0.002500	-0.001739	-0.004300				44.251210	-88.190152	-168.033830
00116	16679462	9.809882	0.189767	0.207630				-0.001284	0.002849	-0.000876				44.231512	-88.189693	-168.012197
00117	16679512	9.817323	0.208807	0.197574				-0.005030	0.002716	-0.002217				44.227601	-88.188209	-168.009484
00118	16679562	9.819673	0.211463	0.196978				-0.002815	0.000361	-0.003005				44.236140	-88.189058	-168.017167
00119	16679612	9.832051	0.192044	0.198375				-0.004268	0.000019	0.001295				44.226262	-88.189413	-168.008554
00120	16679662	9.843016	0.188090	0.204997				-0.002406	-0.001343	-0.001255				44.234974	-88.190087	-168.015915
00121	16679712	9.820677	0.200241	0.210390				-0.004820	0.000269	0.001588				44.221662	-88.190479	-168.004044
00122	16679762	9.807563	0.205455	0.204284				-0.004796	0.003397	-0.001379				44.200436	-88.189834	-167.981912
00123	16679812	9.814980	0.196843	0.215933				-0.002103	0.000379	-0.000793				44.202559	-88.189407	-167.984543
00124	16679862	9.827019	0.204058	0.218817				-0.005049	0.001360	-0.001907				44.197460	-88.189880	-167.979006
00125	16679912	9.799646	0.220472	0.221772				-0.001506	0.002036	0.001108				44.177028	-88.189694	-167.959004
00126	16679962	9.824877	0.209867	0.204873				-0.001715	0.000549	0.002543				44.149331	-88.190418	-167.929516
00127	16680012	9.838708	0.207420	0.206922				-0.002884	-0.000086	0.000939				44.142877	-88.190773	-167.923961
00128	16680062	9.819787	0.202893	0.196014				-0.002608	0.000077	0.000075				44.133850	-88.191521	-167.913612
00129	16680112	9.812523	0.192037	0.199514				-0.003571	0.004359	-0.000576				44.109192	-88.190392	-167.889907
00130	16680162	9.811620	0.220111	0.211831				-0.005333	-0.001045	-0.001915				44.119329	-88.190818	-167.899448
00131	16680212	9.802060	0.197838	0.222675				-0.004513	-0.002677	-0.002310				44.149885	-88.190907	-167.931314
00132	16680262	9.821900	0.203358	0.199085				-0.001665	-0.001460	-0.001188				44.158702	-88.191978	-167.938673
00133	16680312	9.820470	0.213420	0.217750				-0.004043	-0.003017	0.001378				44.167746	-88.192871	-167.948878
00134	16680362	9.818130	0.198522	0.203990				-0.001938	0.001119	-0.003065				44.172412	-88.192785	-167.952069
00135	16680412	9.822881	0.195574	0.211215				-0.007051	-0.005497	-0.001165				44.212693	-88.193848	-167.994476
00136	16680462	9.818230	0.198093	0.187847				-0.004327	-0.001547	-0.003781				44.238773	-88.194041	-168.019691
00137	16680512	9.819432	0.203088	0.214950				-0.002820	0.001718	-0.001685				44.238085	-88.193312	-168.019794
00138	16680562	9.818316	0.186734	0.196928				-0.001910	-0.002954	-0.002031				44.262159	-88.194023	-168.042269
00139	16680612	9.813552	0.212941	0.222403				-0.005209	0.001253	-0.002769				44.270615	-88.193263	-168.052246
00140	16680662	9.807520	0.205593	0.211423				-0.000598	0.001309	-0.001629				44.265402	-88.193431	-168.045169
00141	16680712	9.834423	0.191599	0.201175				-0.004225	-0.000474	-0.001210				44.275112	-88.193452	-168.056173
00142	16680762	9.826632	0.184068	0.205636				-0.001254	0.002004	0.000337				44.252393	-88.193844	-168.031781
00143	16680812	9.814942	0.203649	0.208139				-0.002756	-0.002681	-0.003821				44.293548	-88.193592	-168.073727
00144	16680862	9.808661	0.206726	0.216628				-0.002716	-0.001576	-0.001089				44.302452	-88.194527	-168.081315
00145	16680912	9.820681	0.205874	0.200337				-0.003066	0.000453	-0.000597				44.302731	-88.194422	-168.082527
00146	16680962	9.825115	0.203376	0.220372				-0.001904	-0.000051	-0.003299				44.316093	-88.194714	-168.094497
00147	16681012	9.817440	0.187513	0.221202				-0.004682	-0.000255	-0.002425				44.332320	-88.194274	-168.112064
00148	16681062	9.837928	0.199273	0.196367				-0.001870	-0.001913	0.000957				44.330533	-88.195427	-168.108657
00149	16681112	9.807976	0.195639	0.195544				-0.003245	0.000129	-0.000116				44.329464	-88.195463	-168.108559
00150	16681162	9.824010	0.180485	0.213328				-0.005750	0.003957	-0.004613				44.325837	-88.193846	-168.104169
00151	16681212	9.832520	0.188853	0.206984				-0.000598	0.000501	0.001258				44.314185	-88.194359	-168.092865
00152	16681262	9.811956	0.201881	0.194155				-0.005218	-0.000557	-0.002873				44.327389	-88.194594	-168.105492
00153	16681312	9.811308	0.203605	0.219107				-0.003801	0.001512	-0.000560				44.320214	-88.194306	-168.099474
00154	16681362	9.828345	0.198539	0.207723				-0.002381	-0.000050	-0.001341				44.321359	-88.194320	-168.099010
00155	16681412	9.832497	0.194951	0.198106				-0.001705	0.000866	-0.001372				44.324139	-88.193910	-168.102306
00156	16681462	9.813498	0.205608	0.207613				-0.004213	0.001437	0.000888				44.301003	-88.194378	-168.078229
00157	16681512	9.846520	0.194334	0.201874				-0.001736	-0.000066	0.000162				44.299854	-88.194452	-168.077594
00158	16681562	9.830056	0.201218	0.195205				-0.003336	-0.002272	-0.001959				44.318777	-88.195253	-168.095409
00159	16681612	9.813396	0.194156	0.208001				0.000248	-0.001439	-0.004786				44.359090	-88.194516	-168.135638
00160	16681662	9.825771	0.178410	0.202758				-0.002594	0.001886	0.001108				44.332058	-88.195092	-168.107269
00161	16681712	9.807466	0.180673	0.192679				-0.003074	-0.000253	0.000552				44.329234	-88.195249	-168.105315
00162	16681762	9.810340	0.186847	0.217120				-0.002203	-0.001699	-0.002924				44.351062	-88.195626	-168.125691
00163	16681812	9.832891	0.178522	0.206535				-0.002638	0.000812	-0.002944				44.364167	-88.195144	-168.139692
00164	16681862	9.817867	0.186042	0.195074				-0.005952	0.001370	-0.002126				44.360132	-88.195053	-168.135240
00165	16681912	9.807282	0.200940	0.219786				-0.005678	-0.001144	-0.001655				44.376454	-88.194903	-168.153174
00166	16681962	9.799639	0.200455	0.224203				0.000455	0.000910	0.003215				44.342740	-88.196123	-168.117264
00167	16682012	9.830824	0.185590	0.217027				-0.001569	-0.000329	-0.000640				44.348526	-88.196081	-168.123513
00168	16682062	9.811902	0.191500	0.224097				-0.001878	0.000016	-0.004359				44.369033	-88.195793	-168.142440
00169	16682112	9.815790	0.180151	0.194455				-0.000848	0.002141	-0.001624				44.365869	-88.194869	-168.139430
00170	16682162	9.815215	0.180849	0.209894				-0.005970	-0.002056	-0.001278				44.377953	-88.195953	-168.151263
00171	16682212	9.812476	0.201887	0.225727				-0.002843	-0.002613	-0.000645				44.397941	-88.196311	-168.172046
00172	16682262	9.825156	0.208265	0.202738				-0.004943	0.001105	0.000531				44.378569	-88.197168	-168.152152
00173	16682312	9.816416	0.208833	0.190277				-0.002825	0.000847	-0.001460				44.381532	-88.197026	-168.156089
00174	16682362	9.832616	0.183417	0.201961				-0.004019	0.000380	0.002640				44.353847	-88.197906	-168.127319
00175	16682412	9.843129	0.181746	0.199489				-0.001620	0.000285	-0.000157				44.352711	-88.197669	-168.126573
00176	16682462	9.833845	0.178238	0.206469				-0.002939	-0.002645	-0.001067				44.368687	-88.198466	-168.141227
00177	16682512	9.804571	0.195243	0.208552				-0.003761	0.000021	-0.001910				44.379777	-88.198270	-168.153495
00178	16682562	9.823043	0.195942	0.184238				-0.001517	-0.000840	0.001986				44.364352	-88.199763	-168.136545
00179	16682612	9.813902	0.213418	0.203399				-0.004757	-0.001097	-0.002686				44.387485	-88.199457	-168.161054
00180	16682662	9.807825	0.198662	0.213230				-0.000937	0.004213	-0.000709				44.357471	-88.199160	-168.129216
00181	16682712	9.815617	0.210640	0.199802				-0.004672	-0.002778	-0.002601				44.390842	-88.199088	-168.163877
00182	16682762	9.808712	0.203379	0.214981				-0.003991	0.000343	-0.000403				44.382489	-88.200004	-168.154801
00183	16682812	9.807275	0.203954	0.215803				-0.002394	0.001239	-0.004125				44.400792	-88.198968	-168.173822
00184	16682862	9.806884	0.215711	0.215760				-0.003673	0.000510	0.000752				44.384373	-88.199330	-168.156189
00185	16682912	9.814319	0.208701	0.182561				-0.005149	-0.000712	-0.000148				44.388462	-88.199396	-168.161724
00186	16682962	9.811751	0.186108	0.220778				-0.007097	0.000992	-0.004402				44.400929	-88.199513	-168.174401
00187	16683012	9.829496	0.202646	0.206089				-0.001573	0.001538	-0.004383				44.418991	-88.198380	-168.192956
00188	16683062	9.825216	0.187704	0.196729				-0.003526	0.000901	0.000270				44.403594	-88.198807	-168.176407
00189	16683112	9.811887	0.204390	0.200875				-0.003605	0.002191	-0.000552				44.392359	-88.198199	-168.166170
00190	16683162	9.811784	0.196189	0.194376				-0.004017	0.001083	-0.000882				44.382269	-88.198769	-168.155287
00191	16683212	9.807876	0.198711	0.204514				-0.003728	0.001385	0.001912				44.359788	-88.199041	-168.133952
00192	16683262	9.827412	0.195931	0.209585				-0.002506	-0.002126	-0.001065				44.372725	-88.199684	-168.145343
00193	16683312	9.815868	0.198829	0.183964				-0.006493	0.005335	-0.004347				44.365094	-88.197885	-168.139662
00194	16683362	9.816052	0.198065	0.194221				-0.001968	0.003418	0.001342				44.326819	-88.198140	-168.099842
00195	16683412	9.803417	0.204948	0.221456				-0.005621	-0.000822	-0.001079				44.337532	-88.197998	-168.112126
00196	16683462	9.823573	0.203128	0.198542				-0.004780	-0.004197	0.000791				44.350466	-88.199586	-168.124270
00197	16683512	9.822776	0.189859	0.200594				-0.001608	0.001705	-0.003000				44.358679	-88.198712	-168.132985
00198	16683562	9.823425	0.195925	0.199573				-0.005575	-0.000295	0.000138				44.350638	-88.199525	-168.124511
00199	16683612	9.815345	0.211777	0.203360				-0.002526	-0.004748	-0.002295				44.394980	-88.200074	-168.169611
00200	16683662	9.821877	0.195935	0.219785				-0.002484	0.001208	-0.001717				44.390830	-88.199752	-168.163888
00201	16683712	9.824619	0.189594	0.212047				-0.004662	0.000301	0.000273				44.385967	-88.199602	-168.160285
00202	16683762	9.826468	0.185819	0.189456				-0.003755	-0.001436	-0.003047				44.406107	-88.200540	-168.179712
00203	16683812	9.823734	0.183263	0.214699				-0.002643	0.001009	-0.002427				44.414792	-88.199680	-168.189072
00204	16683862	9.833521	0.179225	0.216778				-0.003500	-0.000941	0.000869				44.406806	-88.200830	-168.180053
00205	16683912	9.810488	0.196411	0.211149				-0.005451	-0.000175	-0.001331				44.414760	-88.200781	-168.189659
00206	16683962	9.799079	0.219962	0.198797				-0.000405	0.002272	-0.004410				44.421787	-88.199902	-168.194620
00207	16684012	9.825175	0.190149	0.197655				0.001904	-0.000617	-0.000008				44.426397	-88.200120	-168.198735
00208	16684062	9.813182	0.210463	0.210170				-0.003041	-0.001619	-0.003048				44.448094	-88.200812	-168.219370
00209	16684112	9.822467	0.205334	0.219754				-0.003677	0.001872	0.001883				44.422719	-88.200872	-168.195073
00210	16684162	9.808955	0.205424	0.210142				-0.002622	-0.002350	0.000478				44.426640	-88.201834	-168.197507
00211	16684212	9.807248	0.203306	0.221546				-0.002682	0.001695	-0.000176				44.416084	-88.201536	-168.187755
00212	16684262	9.822381	0.194946	0.217124				-0.005214	0.000451	-0.000208				44.405647	-88.202322	-168.176846
00213	16684312	9.823754	0.197553	0.220458				-0.004978	0.000066	-0.000274				44.405859	-88.202092	-168.178404
00214	16684362	9.826599	0.188369	0.202313				-0.002499	0.003927	-0.001094				44.379758	-88.201913	-168.150998
00215	16684412	9.822690	0.211275	0.210678				-0.003339	0.000834	-0.001623				44.383886	-88.201600	-168.156171
00216	16684462	9.819508	0.202569	0.204873				-0.002943	0.003426	-0.003437				44.376777	-88.200142	-168.147459
00217	16684512	9.809347	0.212504	0.210223				-0.006619	0.000390	-0.000845				44.377877	-88.199829	-168.150426
00218	16684562	9.814960	0.200495	0.213346				-0.002131	0.001985	-0.003640				44.380508	-88.199909	-168.151848
00219	16684612	9.822358	0.201803	0.206146				-0.002830	0.005309	-0.000958				44.351928	-88.198928	-168.124212
00220	16684662	9.820477	0.196244	0.214427				-0.002165	-0.001989	-0.002188				44.371302	-88.199219	-168.141974
00221	16684712	9.822973	0.197574	0.191932				-0.004292	0.000526	-0.001975				44.379496	-88.198733	-168.151408
00222	16684762	9.813874	0.200460	0.195187				-0.003307	0.002968	-0.001355				44.360990	-88.198897	-168.131940
00223	16684812	9.802604	0.222992	0.200935				-0.001305	0.002617	-0.001615				44.354481	-88.198115	-168.125838
00224	16684862	9.830803	0.188474	0.215444				-0.004932	0.002879	0.000513				44.323971	-88.197887	-168.094424
00225	16684912	9.809393	0.211192	0.204519				-0.000668	0.002734	-0.000143				44.307405	-88.197093	-168.077939
00226	16684962	9.837443	0.202693	0.191785				-0.005844	0.000177	-0.000882				44.302769	-88.198068	-168.073134
00227	16685012	9.818865	0.195617	0.205090				-0.001260	-0.001871	-0.000390				44.316678	-88.198422	-168.087433
00228	16685062	9.820827	0.185309	0.218049				-0.004700	-0.000837	-0.002174				44.327428	-88.198866	-168.097487
00229	16685112	9.826565	0.189809	0.204402				-0.000878	0.001041	-0.000921				44.326352	-88.198759	-168.096807
00230	16685162	9.825266	0.192614	0.217345				-0.004957	0.000621	0.000464				44.311020	-88.199291	-168.080742
00231	16685212	9.822566	0.186700	0.203133				-0.006749	-0.003883	-0.000867				44.339481	-88.199951	-168.111172
00232	16685262	9.828480	0.207799	0.205258				-0.002567	-0.002154	-0.000101				44.345912	-88.200915	-168.116182
00233	16685312	9.818790	0.207347	0.195101				-0.003680	0.000642	-0.000019				44.340841	-88.200905	-168.112225
00234	16685362	9.803241	0.204884	0.211452				-0.004745	0.001712	-0.003794				44.346160	-88.200330	-168.116735
00235	16685412	9.826391	0.198410	0.215640				-0.004502	0.000169	-0.001431				44.353006	-88.199984	-168.124862
00236	16685462	9.816974	0.195620	0.205093				-0.005163	-0.002299	-0.001830				44.370771	-88.200909	-168.142121
00237	16685512	9.813114	0.199508	0.203748				-0.004791	0.001533	0.002395				44.343999	-88.200890	-168.116616
00238	16685562	9.830901	0.205260	0.204354				-0.004455	-0.000151	0.001198				44.328476	-88.201934	-168.100324
00239	16685612	9.811560	0.201703	0.220951				-0.004400	-0.000994	-0.001695				44.344559	-88.201976	-168.117766
00240	16685662	9.800124	0.203606	0.217257				-0.004666	0.001163	-0.004665				44.358942	-88.201688	-168.131503
00241	16685712	9.819221	0.207759	0.200819				-0.004272	0.001078	-0.001302				44.359295	-88.201394	-168.133170
00242	16685762	9.815088	0.219060	0.192628				-0.005568	-0.000788	-0.003323				44.377308	-88.201070	-168.150459
00243	16685812	9.814417	0.188965	0.207014				-0.002394	-0.001866	-0.003371				44.410483	-88.200867	-168.184384
00244	16685862	9.795611	0.215202	0.192305				-0.005069	0.002104	0.000156				44.386877	-88.201150	-168.160138
00245	16685912	9.814574	0.199506	0.198737				-0.005128	0.001675	-0.003251				44.395905	-88.200178	-168.170648
00246	16685962	9.831409	0.186592	0.197455				-0.002848	0.001489	-0.001780				44.390113	-88.199934	-168.163466
00247	16686012	9.803106	0.201160	0.201424				-0.005096	0.000938	-0.000525				44.386243	-88.199425	-168.160951
00248	16686062	9.833196	0.186623	0.215960				-0.003272	-0.004237	0.000115				44.404036	-88.201598	-168.177912
00249	16686112	9.823137	0.193731	0.212827				-0.003392	0.001477	-0.003803				44.418419	-88.200736	-168.193377
00250	16686162	9.818259	0.217119	0.183069				-0.002213	-0.000407	-0.002337				44.427670	-88.201164	-168.201253
00251	16686212	9.837704	0.177039	0.200685				-0.001477	-0.001495	-0.003085				44.456791	-88.200903	-168.230841
00252	16686262	9.824545	0.194439	0.214934				-0.002304	-0.000737	-0.004712				44.484183	-88.200932	-168.256890
00253	16686312	9.825277	0.199113	0.201765				-0.001141	0.000164	-0.002278				44.497458	-88.200566	-168.270566
00254	16686362	9.823396	0.197648	0.200212				-0.003561	0.005036	-0.000348				44.460020	-88.199482	-168.231701
00255	16686412	9.824799	0.191986	0.216470				-0.003689	0.002868	-0.001614				44.451139	-88.198473	-168.223815
00256	16686462	9.818494	0.210775	0.196238				0.002789	-0.000711	-0.004405				44.477250	-88.198879	-168.247297
00257	16686512	9.825685	0.195665	0.181327				-0.003050	-0.001558	-0.004970				44.518803	-88.197977	-168.289632
00258	16686562	9.805046	0.190454	0.218180				-0.001644	0.001229	0.000238				44.501551	-88.198701	-168.270865
00259	16686612	9.813538	0.184802	0.202679				-0.003469	-0.002905	0.002851				44.500599	-88.199975	-168.270961
00260	16686662	9.831330	0.204403	0.213186				-0.002303	-0.000403	0.000229				44.493935	-88.200515	-168.262731
00261	16686712	9.825333	0.173383	0.206999				-0.005421	-0.000398	-0.003295				44.516310	-88.199943	-168.286675
00262	16686762	9.825840	0.210569	0.203153				-0.003242	-0.000263	-0.002561				44.526049	-88.200848	-168.295597
00263	16686812	9.824108	0.194001	0.208331				-0.002315	0.005057	-0.002310				44.508025	-88.199432	-168.278268
00264	16686862	9.815269	0.204078	0.193149				-0.000656	-0.000960	-0.001319				44.515602	-88.199736	-168.283784
00265	16686912	9.813170	0.206671	0.218257				-0.002140	-0.001497	-0.000159				44.525477	-88.199994	-168.294269
00266	16686962	9.821437	0.192806	0.219584				-0.000948	0.002468	-0.000627				44.506145	-88.200045	-168.273115
00267	16687012	9.800710	0.197953	0.210944				-0.001138	-0.001033	-0.003080				44.532129	-88.199996	-168.299617
00268	16687062	9.802783	0.206412	0.205165				-0.004910	-0.000260	-0.002681				44.543051	-88.199648	-168.309592
00269	16687112	9.811035	0.195503	0.202078				-0.009255	0.001740	-0.000251				44.530621	-88.199570	-168.299974
00270	16687162	9.802456	0.212761	0.205418				-0.008319	-0.001577	-0.000497				44.534686	-88.200241	-168.304233
00271	16687212	9.824090	0.189018	0.221941				-0.006432	0.001498	-0.000488				44.526540	-88.199796	-168.297905
00272	16687262	9.811031	0.195043	0.202732				-0.004766	-0.001445	0.001801				44.515177	-88.201253	-168.285889
00273	16687312	9.817029	0.192353	0.201803				-0.005547	-0.000301	-0.001333				44.524083	-88.201183	-168.296463
00274	16687362	9.822180	0.203001	0.194782				-0.003042	-0.001618	-0.002953				44.545538	-88.201686	-168.316746
00275	16687412	9.821070	0.173600	0.202259				-0.003140	-0.001386	0.000899				44.547816	-88.202069	-168.319886
00276	16687462	9.824718	0.205221	0.202975				-0.004856	0.000129	-0.002361				44.553460	-88.202310	-168.324871
00277	16687512	9.817361	0.209874	0.189614				-0.002954	0.002848	-0.001707				44.545631	-88.201469	-168.317923
00278	16687562	9.835247	0.208147	0.188809				-0.002609	0.001272	-0.000788				44.534584	-88.201229	-168.305263
00279	16687612	9.805701	0.211199	0.184976				-0.003336	-0.003400	-0.001642				44.566167	-88.201602	-168.337826
00280	16687662	9.823092	0.190751	0.187421				-0.002886	0.000746	-0.002040				44.566236	-88.202222	-168.336901
00281	16687712	9.810836	0.196185	0.194157				-0.002101	0.002113	-0.003062				44.572144	-88.200872	-168.343257
00282	16687762	9.833769	0.188569	0.197966				-0.003397	0.003810	-0.001030				44.546134	-88.200776	-168.316211
00283	16687812	9.823883	0.202828	0.187893				-0.006266	0.002403	-0.000643				44.533228	-88.200025	-168.305031
00284	16687862	9.810381	0.207563	0.205424				0.000297	-0.000425	0.000675				44.524227	-88.200923	-168.293834
00285	16687912	9.810713	0.207371	0.191569				-0.005291	0.002772	-0.001702				44.516189	-88.199855	-168.287229
00286	16687962	9.800406	0.199785	0.217511				-0.005451	0.001634	-0.003215				44.517441	-88.199811	-168.288091
00287	16688012	9.799899	0.205872	0.210238				-0.006178	0.000035	-0.006072				44.554849	-88.198623	-168.327305
00288	16688062	9.790323	0.213843	0.202676				-0.005685	0.001017	-0.003988				44.565414	-88.198414	-168.337506
00289	16688112	9.828420	0.193597	0.205321				-0.004723	-0.000964	0.000198				44.568931	-88.198710	-168.342405
00290	16688162	9.818256	0.211782	0.194363				-0.003126	0.000899	-0.004442				44.584023	-88.198114	-168.356146
00291	16688212	9.811478	0.197962	0.202197				-0.007185	-0.002335	-0.002689				44.614571	-88.197917	-168.388698
00292	16688262	9.826247	0.181649	0.194731				-0.004765	-0.001872	-0.002466				44.633450	-88.198947	-168.407105
00293	16688312	9.816459	0.196999	0.207362				-0.007365	0.001477	-0.001641				44.632476	-88.198329	-168.408248
00294	16688362	9.823584	0.196862	0.210566				-0.004756	-0.002068	-0.002178				44.651291	-88.198901	-168.426302
00295	16688412	9.822636	0.195081	0.213733				-0.004644	0.000584	-0.002521				44.662663	-88.198095	-168.438916
00296	16688462	9.817472	0.191233	0.208191				0.000074	-0.002594	0.000694				44.667301	-88.199839	-168.441633
00297	16688512	9.816295	0.206925	0.214556				-0.002045	0.003411	-0.003888				44.670083	-88.198320	-168.444982
00298	16688562	9.825761	0.195235	0.208417				-0.007756	-0.000538	-0.003222				44.685178	-88.198369	-168.460181
00299	16688612	9.807223	0.193070	0.206636				-0.004665	0.000329	-0.000657				44.685996	-88.198182	-168.462346
00300	16688662	9.814808	0.188233	0.222857				-0.003380	-0.002012	-0.002635				44.707635	-88.198853	-168.482949
00301	16688712	9.807738	0.195361	0.195443				-0.004097	0.003736	-0.001187				44.690453	-88.197694	-168.466854
00302	16688762	9.840285	0.194040	0.210979				-0.002826	0.000305	0.002059				44.666731	-88.198727	-168.441856
00303	16688812	9.817728	0.196436	0.195783				-0.005031	-0.000259	-0.000760				44.671868	-88.198571	-168.448408
00304	16688862	9.815565	0.206419	0.218322				-0.001832	0.000192	0.001130				44.655166	-88.199798	-168.430327
00305	16688912	9.819503	0.196637	0.215939				-0.003094	0.001363	0.000720				44.640861	-88.199694	-168.416921
00306	16688962	9.826826	0.210314	0.197630				-0.005033	-0.000034	-0.000079				44.633467	-88.200025	-168.408685
00307	16689012	9.801962	0.207028	0.222247				-0.002874	0.000264	-0.001819				44.642710	-88.199578	-168.418750
00308	16689062	9.836342	0.188624	0.205201				-0.004753	-0.003061	0.001054				44.646924	-88.201279	-168.422325
00309	16689112	9.815992	0.182102	0.197264				-0.004416	0.000598	0.001845				44.629984	-88.201325	-168.406536
00310	16689162	9.815933	0.188162	0.194844				-0.001855	0.001607	-0.002168				44.625473	-88.201614	-168.400669
00311	16689212	9.806320	0.210685	0.201338				-0.006039	0.000367	-0.000300				44.623467	-88.201193	-168.400251
00312	16689262	9.817385	0.196682	0.212856				-0.005870	0.000890	-0.002419				44.624404	-88.201377	-168.400872
00313	16689312	9.830516	0.204278	0.191943				-0.001956	0.000635	-0.001728				44.631037	-88.200963	-168.408101
00314	16689362	9.814332	0.179257	0.201131				0.000185	0.003196	0.000403				44.600511	-88.201326	-168.375547
00315	16689412	9.816555	0.169164	0.210237				-0.003416	0.001290	-0.001141				44.598734	-88.200925	-168.374797
00316	16689462	9.827576	0.180236	0.215170				-0.001063	0.000618	-0.003301				44.608810	-88.200342	-168.382852
00317	16689512	9.820519	0.196084	0.207089				-0.002285	0.001117	-0.000726				44.605507	-88.200002	-168.380225
00318	16689562	9.818752	0.194468	0.187329				-0.004112	-0.002314	-0.002341				44.626965	-88.201059	-168.400964
00319	16689612	9.827455	0.195005	0.204171				-0.001420	0.001098	-0.000631				44.623658	-88.200775	-168.398096
00320	16689662	9.830965	0.195901	0.213243				-0.002994	0.000127	-0.002592				44.631491	-88.200830	-168.404707
00321	16689712	9.815777	0.189690	0.216889				-0.003404	-0.000003	-0.000374				44.632869	-88.201087	-168.407228
00322	16689762	9.811870	0.207646	0.195438				-0.003126	0.002758	0.003006				44.587384	-88.201799	-168.360536
00323	16689812	9.820630	0.207268	0.205312				-0.002139	-0.000630	-0.000734				44.595503	-88.201909	-168.369341
00324	16689862	9.811826	0.203800	0.200387				-0.007035	-0.000843	-0.000754				44.596455	-88.202158	-168.369988
00325	16689912	9.800599	0.214701	0.207243				-0.004066	0.001666	-0.001077				44.591675	-88.201468	-168.366300
00326	16689962	9.821033	0.204050	0.197006				-0.002658	-0.001579	-0.002125				44.607309	-88.202564	-168.380899
00327	16690012	9.817443	0.193613	0.221942				-0.004114	-0.002182	-0.001869				44.632284	-88.202534	-168.407018
00328	16690062	9.813867	0.202012	0.205974				-0.001150	-0.000346	0.000991				44.620597	-88.203406	-168.393517
00329	16690112	9.814351	0.203882	0.200980				-0.002814	0.001392	-0.002397				44.626738	-88.202263	-168.400271
00330	16690162	9.826522	0.197199	0.209310				-0.003296	0.001453	-0.000727				44.613646	-88.202957	-168.386265
00331	16690212	9.824090	0.209746	0.192585				-0.002345	0.004122	0.000376				44.583925	-88.202389	-168.357297
00332	16690262	9.808226	0.206245	0.222990				-0.001419	-0.002103	0.000083				44.589017	-88.203639	-168.360779
00333	16690312	9.816771	0.197559	0.207659				-0.003488	0.001647	-0.000082				44.577885	-88.203432	-168.350715
00334	16690362	9.801526	0.211884	0.216841				-0.007933	0.001670	0.002693				44.540158	-88.204238	-168.313130
00335	16690412	9.814489	0.196947	0.231406				0.000384	0.000738	-0.000768				44.540674	-88.203805	-168.313468
00336	16690462	9.803888	0.192535	0.219977				-0.005394	0.000089	-0.000857				44.536394	-88.204572	-168.308765
00337	16690512	9.814263	0.192424	0.199470				-0.005230	-0.000259	-0.000502				44.539953	-88.204500	-168.313808
00338	16690562	9.809278	0.188759	0.204134				-0.000297	0.000993	-0.000162				44.527169	-88.204906	-168.298996
00339	16690612	9.801764	0.221808	0.195922				-0.005573	-0.000464	-0.000823				44.533842	-88.204967	-168.307341
00340	16690662	9.808914	0.196817	0.207881				-0.005257	-0.000462	-0.001755				44.539409	-88.205223	-168.312259
00341	16690712	9.815490	0.200298	0.216046				-0.002082	0.000563	-0.001442				44.544614	-88.204953	-168.318129
00342	16690762	9.838126	0.185054	0.206034				-0.004873	-0.000224	-0.000731				44.542149	-88.205187	-168.314801
00343	16690812	9.808196	0.201211	0.200208				-0.002301	-0.000732	-0.001575				44.556737	-88.204846	-168.329961
00344	16690862	9.831536	0.198083	0.205554				-0.003152	-0.002299	-0.003087				44.583070	-88.205649	-168.355291
00345	16690912	9.830981	0.211010	0.191989				-0.004115	0.000244	0.000136				44.579308	-88.205696	-168.352736
00346	16690962	9.814775	0.210033	0.194941				-0.007158	0.000256	0.001780				44.556574	-88.206807	-168.330071
00347	16691012	9.804256	0.219801	0.221118				-0.006844	0.000323	-0.000818				44.557943	-88.206519	-168.333370
00348	16691062	9.819614	0.211903	0.219338				-0.005499	-0.000851	-0.001085				44.561517	-88.207048	-168.336371
00349	16691112	9.838631	0.207358	0.195332				-0.003012	0.000616	-0.002081				44.570465	-88.206306	-168.346086
00350	16691162	9.809270	0.204485	0.211947				-0.002764	0.000110	0.001288				44.552800	-88.207476	-168.327246
00351	16691212	9.823548	0.188892	0.205725				-0.004160	0.000471	-0.000184				44.549808	-88.207247	-168.325394
00352	16691262	9.828321	0.196327	0.190557				-0.001865	0.001836	-0.000341				44.532161	-88.207668	-168.306254
00353	16691312	9.825490	0.208980	0.198436				-0.006584	-0.000963	-0.000247				44.538026	-88.207833	-168.314021
00354	16691362	9.805497	0.209631	0.194336				-0.002550	0.002869	0.005282				44.476902	-88.209112	-168.251592
00355	16691412	9.813249	0.199622	0.194053				-0.001585	0.002392	0.000913				44.455103	-88.208774	-168.230230
00356	16691462	9.812995	0.202306	0.191888				-0.005578	0.002737	-0.001097				44.435770	-88.208702	-168.210422
00357	16691512	9.812229	0.199759	0.205701				-0.004072	-0.000604	-0.003745				44.463007	-88.208198	-168.238901
00358	16691562	9.811616	0.191719	0.204069				-0.000396	-0.000181	-0.002412				44.472440	-88.208144	-168.246232
00359	16691612	9.816275	0.211409	0.221305				-0.000586	0.000849	-0.003050				44.486911	-88.207297	-168.260839
00360	16691662	9.831997	0.178022	0.210195				-0.005060	-0.000452	0.000233				44.478974	-88.208623	-168.252537
00361	16691712	9.819690	0.192681	0.206124				-0.002249	-0.001176	0.000187				44.484743	-88.208790	-168.258897
00362	16691762	9.812022	0.196196	0.207643				-0.007652	-0.000764	-0.004513				44.509404	-88.208911	-168.283758
00363	16691812	9.837980	0.196206	0.206366				-0.004480	0.002466	-0.001169				44.499673	-88.208401	-168.275422
00364	16691862	9.830607	0.179153	0.201424				-0.002706	0.002979	-0.003477				44.495245	-88.207452	-168.269535
00365	16691912	9.827746	0.171314	0.217814				-0.003528	-0.001530	-0.002922				44.523171	-88.206883	-168.298334
00366	16691962	9.807953	0.195750	0.212026				-0.004869	0.001720	-0.000364				44.505659	-88.207363	-168.280251
00367	16692012	9.820546	0.201937	0.203324				-0.003535	0.000934	0.000013				44.498635	-88.207159	-168.274227
00368	16692062	9.802929	0.206250	0.193855				-0.001543	0.001704	-0.003642				44.503577	-88.206852	-168.277582
00369	16692112	9.808456	0.213590	0.209582				-0.000535	-0.002833	-0.001011				44.528117	-88.207279	-168.302311
00370	16692162	9.812461	0.198677	0.208343				-0.002607	-0.002057	0.000024				44.533266	-88.208352	-168.306087
00371	16692212	9.830716	0.190287	0.200610				-0.002261	0.001078	-0.002463				44.541519	-88.207703	-168.315030
00372	16692262	9.808445	0.197227	0.205344				-0.003195	0.001556	0.001904				44.510910	-88.208620	-168.283321
00373	16692312	9.830809	0.199744	0.204888				-0.004236	-0.001280	-0.001732				44.529302	-88.208309	-168.302829
00374	16692362	9.829080	0.201713	0.209998				-0.003953	0.002088	0.000051				44.506520	-88.208977	-168.279314
00375	16692412	9.808451	0.208809	0.181077				-0.004803	-0.000510	-0.000477				44.511453	-88.209136	-168.285702
00376	16692462	9.815058	0.202896	0.203758				-0.004026	-0.000891	-0.001729				44.520499	-88.209243	-168.293602
00377	16692512	9.807510	0.200028	0.198067				-0.003795	-0.000209	-0.003296				44.542178	-88.208468	-168.316301
00378	16692562	9.819572	0.186864	0.199225				-0.004860	0.000426	0.000009				44.530689	-88.209178	-168.304157
00379	16692612	9.828846	0.188415	0.198247				-0.000604	0.001600	0.000165				44.519196	-88.208994	-168.292882
00380	16692662	9.818998	0.190480	0.208671				-0.001837	0.003128	-0.001135				44.498447	-88.208907	-168.270622
00381	16692712	9.828314	0.173969	0.198315				-0.003294	0.004456	-0.002218				44.483455	-88.207379	-168.256488
00382	16692762	9.823484	0.191198	0.210682				-0.005689	-0.001659	0.001476				44.475370	-88.208736	-168.247977
00383	16692812	9.809719	0.202955	0.219651				-0.005981	0.002572	0.000734				44.452156	-88.208526	-168.226551
00384	16692862	9.823613	0.184450	0.204951				-0.008913	-0.001361	-0.001336				44.459769	-88.209443	-168.234739
00385	16692912	9.809613	0.214710	0.213427				-0.006926	0.000837	-0.002162				44.466352	-88.208940	-168.243365
00386	16692962	9.825906	0.192680	0.202312				-0.002965	0.000840	-0.003520				44.475960	-88.208580	-168.251680
00387	16693012	9.814043	0.219996	0.217559				-0.004776	0.002780	-0.002607				44.473718	-88.207675	-168.250906
00388	16693062	9.834770	0.204197	0.208735				-0.003632	-0.000911	0.000030				44.471045	-88.208300	-168.247056
00389	16693112	9.819847	0.219529	0.203264				-0.001258	-0.001191	-0.000004				44.478268	-88.208662	-168.254700
00390	16693162	9.834916	0.203602	0.188118				-0.003740	-0.000791	-0.002985				44.494315	-88.208722	-168.269650
00391	16693212	9.818031	0.197495	0.195327				-0.006193	-0.002086	0.000997				44.499637	-88.209161	-168.276654
00392	16693262	9.802690	0.210116	0.186357				-0.003372	-0.001203	-0.001249				44.507061	-88.210179	-168.283145
00393	16693312	9.821271	0.195850	0.212914				-0.001258	0.001135	0.001545				44.489319	-88.210369	-168.265806
00394	16693362	9.825171	0.199008	0.192778				-0.007834	0.002752	-0.005548				44.498268	-88.209177	-168.274823
00395	16693412	9.814837	0.209675	0.186778				-0.005049	0.000393	0.001680				44.483254	-88.209549	-168.261306
00396	16693462	9.822499	0.193480	0.213315				-0.003370	-0.001262	0.000448				44.480062	-88.210761	-168.257082
00397	16693512	9.827258	0.191684	0.217001				-0.006177	0.003403	-0.001863				44.468789	-88.209569	-168.247509
00398	16693562	9.809443	0.204922	0.222329				-0.002953	0.000547	-0.004224				44.484191	-88.209511	-168.261771
00399	16693612	9.817554	0.197765	0.195673				-0.003868	0.000376	-0.000604				44.484671	-88.209387	-168.263397
00400	16693662	9.827644	0.201995	0.210645				-0.003742	-0.000754	-0.001603				44.491117	-88.210021	-168.268908
00401	16693712	9.836290	0.182250	0.199441				-0.005587	0.001057	0.000335				44.480598	-88.209988	-168.260041
00402	16693762	9.833607	0.182880	0.209263				-0.002924	0.000775	-0.003012				44.487136	-88.209973	-168.265346
00403	16693812	9.839185	0.193407	0.210890				-0.002169	0.001176	-0.003105				44.499428	-88.209002	-168.278209
00404	16693862	9.840154	0.188043	0.218361				-0.002270	0.001235	-0.005189				44.516925	-88.208439	-168.294310
00405	16693912	9.795211	0.202859	0.216847				-0.002248	0.000922	-0.000891				44.516451	-88.207804	-168.294346
00406	16693962	9.812004	0.181970	0.201025				-0.004335	0.002988	-0.000136				44.489214	-88.208225	-168.266438
00407	16694012	9.809833	0.202944	0.201179				-0.002664	0.000355	-0.005417				44.521485	-88.207068	-168.299499
00408	16694062	9.812535	0.196756	0.199704				-0.004909	-0.001519	-0.002725				44.540209	-88.207605	-168.317589
00409	16694112	9.830891	0.190526	0.210208				-0.003608	0.000517	0.001739				44.524601	-88.207703	-168.302937
00410	16694162	9.832798	0.204026	0.220918				-0.004927	-0.000550	-0.001277				44.527537	-88.208598	-168.305371
00411	16694212	9.811505	0.211119	0.221072				-0.001425	-0.000940	-0.001511				44.543016	-88.208459	-168.321252
00412	16694262	9.823466	0.199598	0.236153				-0.002850	0.001690	-0.001301				44.532608	-88.208444	-168.309504
00413	16694312	9.823103	0.203303	0.211175				-0.002110	-0.001501	-0.000679				44.546221	-88.208530	-168.323676
00414	16694362	9.832433	0.186669	0.199384				-0.005554	-0.000846	0.001480				44.532691	-88.209853	-168.309729
00415	16694412	9.823849	0.188848	0.196539				-0.002527	-0.002513	-0.000592				44.552236	-88.210040	-168.329902
00416	16694462	9.817636	0.192154	0.192512				-0.003836	-0.000823	-0.001541				44.559201	-88.210335	-168.335720
00417	16694512	9.831423	0.193200	0.194479				-0.003128	0.002427	0.000272				44.540511	-88.210375	-168.318169
00418	16694562	9.817241	0.200681	0.200975				-0.004047	0.001383	0.003383				44.501199	-88.211181	-168.277737
00419	16694612	9.814914	0.193015	0.207855				-0.004623	-0.001021	-0.000060				44.506872	-88.211442	-168.284774
00420	16694662	9.816935	0.218804	0.215327				-0.000766	0.001724	-0.000472				44.491014	-88.211662	-168.267034
00421	16694712	9.817537	0.193136	0.206625				-0.010006	-0.002060	-0.000053				44.501587	-88.212225	-168.280552
00422	16694762	9.818705	0.178294	0.203413				-0.000634	0.003338	-0.003420				44.494884	-88.211524	-168.271937
00423	16694812	9.828790	0.178110	0.188633				-0.005082	0.001320	-0.001395				44.494254	-88.210893	-168.272719
00424	16694862	9.812800	0.206756	0.215142				-0.003911	0.002436	-0.004952				44.502136	-88.210638	-168.279908
00425	16694912	9.808614	0.201507	0.208680				-0.006378	0.000656	-0.000367				44.498540	-88.210441	-168.278147
00426	16694962	9.821884	0.206327	0.208617				-0.005805	0.000151	0.002290				44.473591	-88.211127	-168.252558
00427	16695012	9.817253	0.214658	0.209749				-0.005855	0.001211	-0.001326				44.472672	-88.210635	-168.253325
00428	16695062	9.819731	0.214733	0.194869				-0.003595	-0.002471	-0.003086				44.500205	-88.211654	-168.280036
00429	16695112	9.825108	0.180787	0.201855				-0.001090	0.001548	-0.003524				44.512845	-88.210723	-168.293047
00430	16695162	9.832252	0.195830	0.210506				-0.003509	0.003358	0.000152				44.482222	-88.210552	-168.261221
00431	16695212	9.828810	0.192764	0.196056				-0.002301	0.000272	-0.002724				44.497694	-88.210057	-168.277413
00432	16695262	9.811581	0.198935	0.195152				-0.003753	-0.001206	-0.000542				44.500376	-88.210755	-168.279024
00433	16695312	9.816528	0.215045	0.210536				-0.002918	0.001916	0.001138				44.479945	-88.210410	-168.259327
00434	16695362	9.820600	0.213752	0.209313				-0.005632	0.000308	-0.002332				44.483893	-88.210813	-168.262946
00435	16695412	9.818852	0.204089	0.203238				-0.001440	-0.001553	-0.001131				44.500993	-88.210706	-168.280364
00436	16695462	9.828936	0.196094	0.206378				-0.000372	0.001380	0.000131				44.483371	-88.211427	-168.260903
00437	16695512	9.803860	0.196809	0.216601				-0.002161	0.001312	-0.000186				44.475463	-88.211051	-168.253578
00438	16695562	9.809919	0.198727	0.195363				-0.006481	-0.003393	-0.002925				44.507479	-88.211949	-168.285471
00439	16695612	9.824924	0.205490	0.182413				-0.001498	0.000059	-0.003144				44.527027	-88.211519	-168.305571
00440	16695662	9.808595	0.207081	0.200463				-0.003380	0.000224	-0.000343				44.519997	-88.211402	-168.297068
00441	16695712	9.833804	0.187383	0.208523				0.001404	0.001597	-0.003594				44.533640	-88.210460	-168.310366
00442	16695762	9.805985	0.190992	0.192387				-0.003662	0.000899	-0.000306				44.521211	-88.211141	-168.297007
00443	16695812	9.805696	0.199546	0.221595				-0.003176	0.000912	0.001100				44.507474	-88.211142	-168.284153
00444	16695862	9.816879	0.201779	0.219320				-0.003232	-0.001916	-0.004336				44.539370	-88.211574	-168.315025
00445	16695912	9.809885	0.204223	0.189426				-0.005652	-0.000819	-0.000507				44.546309	-88.211689	-168.323614
00446	16695962	9.832436	0.207890	0.194792				-0.003126	-0.002809	0.000276				44.554396	-88.212996	-168.330510
00447	16696012	9.832616	0.187726	0.206136				-0.006556	0.001936	-0.004788				44.571459	-88.211617	-168.349452
00448	16696062	9.842078	0.190971	0.209392				-0.001192	-0.001061	0.000473				44.566945	-88.213013	-168.343384
00449	16696112	9.832116	0.190743	0.203374				-0.001744	-0.001981	-0.000267				44.581137	-88.213135	-168.357964
00450	16696162	9.831607	0.188372	0.213326				-0.002154	0.001056	-0.000123				44.566599	-88.213899	-168.342122
00451	16696212	9.792783	0.213970	0.201934				-0.001879	-0.002792	-0.000908				44.589805	-88.214307	-168.365892
00452	16696262	9.822520	0.194876	0.206634				-0.004797	-0.000902	-0.001792				44.598919	-88.214685	-168.374202
00453	16696312	9.828337	0.190042	0.199656				-0.001144	-0.000742	-0.001063				44.610473	-88.214648	-168.386096
00454	16696362	9.815337	0.194629	0.213134				-0.006586	0.001298	-0.000268				44.594448	-88.215064	-168.369871
00455	16696412	9.823797	0.185776	0.211430				-0.003702	0.000151	-0.001919				44.604874	-88.214699	-168.381385
00456	16696462	9.820138	0.198199	0.200918				-0.004529	0.001983	-0.001166				44.591192	-88.214392	-168.366749
00457	16696512	9.822777	0.205121	0.222767				-0.004453	0.001489	-0.004349				44.608822	-88.213174	-168.385645
00458	16696562	9.815139	0.201827	0.192273				-0.003488	-0.000520	0.000096				44.603021	-88.214202	-168.378839
00459	16696612	9.803774	0.207209	0.208413				-0.001574	-0.000428	-0.002375				44.621004	-88.213578	-168.397159
00460	16696662	9.806497	0.195413	0.216539				-0.006334	-0.000704	-0.000151				44.617263	-88.214452	-168.393193
00461	16696712	9.822276	0.193056	0.209730				-0.003744	-0.000397	0.000770				44.613680	-88.214785	-168.390731
00462	16696762	9.823257	0.190250	0.211383				-0.004531	-0.001965	0.000251				44.615919	-88.215867	-168.392154
00463	16696812	9.812417	0.196302	0.219775				-0.003601	-0.004042	0.001428				44.631579	-88.217013	-168.408871
00464	16696862	9.828251	0.176776	0.202347				0.000973	0.001104	-0.003274				44.638302	-88.217444	-168.413542
00465	16696912	9.822899	0.182678	0.208857				-0.002417	0.000147	-0.000800				44.641907	-88.217195	-168.417814
00466	16696962	9.814895	0.207769	0.219865				-0.003538	0.001289	0.000975				44.619195	-88.217493	-168.393839
00467	16697012	9.807153	0.204334	0.208385				-0.005141	0.001199	-0.000782				44.615280	-88.216923	-168.391305
00468	16697062	9.821836	0.187338	0.217286				-0.003044	0.002587	-0.001620				44.600792	-88.216816	-168.375597
00469	16697112	9.832228	0.179336	0.209084				-0.002661	0.002456	-0.005151				44.618002	-88.215278	-168.393575
00470	16697162	9.812744	0.195531	0.208197				-0.002760	0.002183	0.001846				44.583557	-88.215993	-168.357873
00471	16697212	9.824654	0.197240	0.203762				-0.001180	0.000522	0.000709				44.575270	-88.216032	-168.349924
00472	16697262	9.801427	0.212107	0.192824				-0.002535	-0.000343	-0.000573				44.572589	-88.216807	-168.345950
00473	16697312	9.815875	0.197712	0.235182				-0.004090	0.000010	-0.004486				44.600787	-88.215746	-168.375251
00474	16697362	9.825828	0.197026	0.206384				-0.001779	0.000019	-0.002725				44.610838	-88.215815	-168.383711
00475	16697412	9.807821	0.221800	0.219131				-0.001144	-0.001910	-0.003280				44.644346	-88.215592	-168.417584
00476	16697462	9.810916	0.212340	0.199308				-0.001116	0.000490	-0.000833				44.638759	-88.215992	-168.410212
00477	16697512	9.822642	0.203902	0.206456				-0.000660	0.001238	-0.001185				44.638538	-88.215207	-168.410027
00478	16697562	9.827442	0.205110	0.197941				-0.001401	-0.001322	0.002781				44.620724	-88.217121	-168.390725
00479	16697612	9.819049	0.215516	0.187961				-0.000867	-0.000385	-0.002345				44.638375	-88.216873	-168.408707
00480	16697662	9.808724	0.198916	0.196635				-0.001827	-0.000627	-0.003311				44.655946	-88.217028	-168.424755
00481	16697712	9.828177	0.185993	0.194614				-0.005975	-0.000628	0.001323				44.649723	-88.217541	-168.420304
00482	16697762	9.822788	0.193378	0.203933				-0.003301	-0.003558	-0.000880				44.670062	-88.218621	-168.439438
00483	16697812	9.836356	0.191194	0.209677				-0.005815	0.000112	-0.001368				44.676708	-88.218340	-168.447762
00484	16697862	9.824430	0.192589	0.210201				-0.003242	-0.000965	0.001992				44.661086	-88.219792	-168.431057
00485	16697912	9.830041	0.182810	0.209515				-0.007794	0.001923	-0.001673				44.657195	-88.219216	-168.429483
00486	16697962	9.816552	0.197276	0.204363				-0.005408	0.003251	-0.004818				44.659188	-88.217833	-168.430709
00487	16698012	9.820340	0.206653	0.187963				-0.005142	0.000161	0.000112				44.656021	-88.217831	-168.429022
00488	16698062	9.792262	0.198359	0.202035				-0.003616	0.001415	-0.001459				44.647733	-88.218106	-168.419767
00489	16698112	9.827582	0.180787	0.186537				-0.007458	0.000950	-0.004824				44.670911	-88.217220	-168.445234
00490	16698162	9.823164	0.205220	0.196547				-0.005768	-0.000664	-0.003649				44.690123	-88.217122	-168.463918
00491	16698212	9.814637	0.195556	0.209035				-0.004385	-0.000273	0.001580				44.680380	-88.217435	-168.455400
00492	16698262	9.813635	0.210505	0.187570				-0.001717	0.001995	-0.004447				44.688351	-88.217098	-168.461908
00493	16698312	9.813904	0.196143	0.210978				-0.002324	0.001079	-0.002491				44.697268	-88.216231	-168.471416
00494	16698362	9.822808	0.192058	0.203831				-0.000723	0.002244	-0.001403				44.683912	-88.216512	-168.456358
00495	16698412	9.822421	0.208763	0.194459				-0.006843	0.001328	-0.000459				44.676577	-88.216125	-168.450966
00496	16698462	9.815187	0.213508	0.199973				-0.004195	0.001994	0.001913				44.642586	-88.216623	-168.415986
00497	16698512	9.835069	0.187801	0.193819				-0.003799	-0.001822	-0.000130				44.654297	-88.216956	-168.428785
00498	16698562	9.823513	0.202802	0.183958				-0.003090	0.004039	-0.001964				44.632468	-88.216496	-168.405779
00499	16698612	9.802302	0.202119	0.226288				-0.002822	-0.003418	-0.000914				44.659749	-88.216940	-168.433848
00500	16698662	9.827032	0.194661	0.209966				-0.003620	-0.000695	-0.004909				44.688043	-88.216765	-168.461088
00501	16698712	9.820393	0.196364	0.201650				-0.004648	0.001524	-0.002101				44.690659	-88.216007	-168.465023
00502	16698762	9.828339	0.171522	0.198683				-0.006463	-0.000802	-0.000888				44.692163	-88.216848	-168.466393
00503	16698812	9.821031	0.181769	0.204506				-0.006823	0.000615	-0.000303				44.688290	-88.216657	-168.464470
00504	16698862	9.810517	0.199313	0.212904				-0.003888	-0.000949	0.000421				44.683053	-88.217544	-168.458172
00505	16698912	9.823903	0.195689	0.213571				-0.002076	0.000502	-0.000767				44.684282	-88.217384	-168.460045
00506	16698962	9.820107	0.188227	0.186594				-0.001895	0.001935	0.000624				44.659258	-88.218249	-168.433655
00507	16699012	9.812435	0.184549	0.202234				-0.003464	0.003876	-0.000390				44.635816	-88.217210	-168.411103
00508	16699062	9.823539	0.191568	0.202307				-0.002040	-0.001692	0.001015				44.632106	-88.218577	-168.405922
00509	16699112	9.834771	0.176497	0.188191				-0.004566	0.001141	0.000205				44.622120	-88.218151	-168.397118
00510	16699162	9.814884	0.199197	0.199705				-0.005526	-0.003048	-0.001127				44.640227	-88.219163	-168.414691
00511	16699212	9.833592	0.190742	0.196275				-0.004562	-0.000324	-0.005323				44.675798	-88.218311	-168.451661
00512	16699262	9.825082	0.201145	0.203540				-0.004395	0.000620	-0.003261				44.684394	-88.218506	-168.459607
00513	16699312	9.823279	0.191610	0.206207				-0.003114	0.002808	-0.003094				44.685518	-88.217377	-168.461657
00514	16699362	9.814672	0.188639	0.179145				-0.001478	0.000279	-0.005548				44.711958	-88.216926	-168.486477
00515	16699412	9.819158	0.201733	0.196806				-0.005440	-0.000422	0.001739				44.701818	-88.217331	-168.477866
00516	16699462	9.830161	0.182560	0.190800				-0.004241	0.000984	-0.000373				44.689671	-88.217284	-168.464622
00517	16699512	9.826982	0.186259	0.195607				-0.007231	-0.000592	0.000171				44.690389	-88.217297	-168.467343
00518	16699562	9.802885	0.206502	0.200199				-0.000852	-0.001831	0.000661				44.689862	-88.218997	-168.465245
00519	16699612	9.807422	0.203236	0.205565				-0.004265	0.000624	-0.003482				44.707477	-88.218071	-168.484040
00520	16699662	9.827959	0.202365	0.198240				-0.004195	0.000631	0.000300				44.692090	-88.219277	-168.468079
00521	16699712	9.830207	0.211290	0.200841				-0.003730	0.001387	0.002129				44.668305	-88.219307	-168.445287
00522	16699762	9.808829	0.194381	0.188784				-0.002403	0.001894	0.001650				44.637042	-88.219565	-168.412424
00523	16699812	9.805958	0.206057	0.205632				-0.002169	0.003412	-0.000848				44.620133	-88.218498	-168.396024
00524	16699862	9.826217	0.186145	0.214270				-0.003506	0.001929	-0.002676				44.616278	-88.218658	-168.391291
00525	16699912	9.814291	0.202650	0.200158				-0.007854	0.001593	-0.005580				44.640426	-88.217119	-168.417652
00526	16699962	9.812844	0.202966	0.202652				-0.002945	0.004757	-0.002531				44.617788	-88.216487	-168.393850
00527	16700012	9.814913	0.205013	0.211022				-0.004321	0.004666	-0.003134				44.606911	-88.214941	-168.384222
00528	16700062	9.821278	0.192530	0.207558				-0.001270	0.002429	-0.001936				44.595995	-88.214672	-168.371549
00529	16700112	9.815613	0.200701	0.182240				-0.002931	0.003273	-0.000325				44.576137	-88.213896	-168.352503
00530	16700162	9.821045	0.196473	0.198948				-0.002672	0.003078	-0.003182				44.568890	-88.213247	-168.343879
00531	16700212	9.824423	0.195645	0.194150				-0.004598	0.002108	-0.002217				44.568380	-88.212596	-168.344808
00532	16700262	9.823447	0.193812	0.200804				-0.004386	0.000633	0.000307				44.553571	-88.213377	-168.329219
00533	16700312	9.822823	0.201858	0.209611				-0.006528	-0.000904	-0.003738				44.582232	-88.212507	-168.359606
00534	16700362	9.826533	0.191111	0.208518				0.000495	0.001461	0.000007				44.565000	-88.213230	-168.340334
00535	16700412	9.818224	0.198779	0.187889				-0.002147	0.001568	-0.001841				44.566183	-88.212660	-168.342197
00536	16700462	9.824392	0.201150	0.186431				-0.002986	0.001112	0.000946				44.544535	-88.213242	-168.319262
00537	16700512	9.829744	0.191759	0.186879				-0.001647	0.001097	-0.000979				44.543487	-88.212594	-168.318566
00538	16700562	9.824385	0.185662	0.180527				-0.005034	-0.004626	-0.002864				44.582678	-88.214068	-168.357358
00539	16700612	9.835582	0.187118	0.215613				-0.003479	0.001293	-0.000210				44.574492	-88.213883	-168.350229
00540	16700662	9.834075	0.188985	0.223983				-0.003418	0.001255	-0.003191				44.579238	-88.213493	-168.353778
00541	16700712	9.818652	0.210773	0.210494				-0.007994	0.004180	-0.003739				44.574568	-88.211787	-168.351343
00542	16700762	9.807248	0.215783	0.196092				-0.007953	-0.000147	-0.001452				44.574646	-88.212474	-168.351765
00543	16700812	9.825432	0.186265	0.202970				-0.005914	0.002378	-0.001640				44.568437	-88.211543	-168.347185
00544	16700862	9.820962	0.185073	0.196767				-0.003805	0.001707	0.000918				44.543165	-88.212079	-168.320926
00545	16700912	9.809875	0.189751	0.209089				-0.003104	0.003852	-0.000287				44.519626	-88.211139	-168.298219
00546	16700962	9.827504	0.185534	0.215916				-0.002655	0.001796	0.001910				44.486913	-88.211725	-168.264099
00547	16701012	9.806800	0.203353	0.215764				-0.006715	0.001300	-0.001154				44.484047	-88.211200	-168.263141
00548	16701062	9.831641	0.182715	0.207178				-0.003566	-0.000975	0.000104				44.481106	-88.212294	-168.259236
00549	16701112	9.809949	0.209592	0.195922				-0.005522	0.003327	-0.000124				44.458738	-88.211688	-168.238492
00550	16701162	9.816702	0.176515	0.209354				-0.004464	0.005219	-0.000310				44.418529	-88.211181	-168.197425
00551	16701212	9.815372	0.184239	0.216812				-0.003617	0.004744	-0.001248				44.395098	-88.209996	-168.175037
00552	16701262	9.828837	0.198365	0.205604				-0.004066	0.002506	-0.002346				44.385727	-88.209750	-168.164765
00553	16701312	9.813922	0.193465	0.201809				-0.003173	0.000682	-0.002230				44.394888	-88.209319	-168.174924
00554	16701362	9.818680	0.184186	0.220008				-0.004785	-0.000892	0.000427				44.388915	-88.210284	-168.168237
00555	16701412	9.809740	0.189077	0.192763				-0.002977	0.001722	-0.000685				44.381553	-88.209930	-168.161788
00556	16701462	9.832975	0.191858	0.204385				-0.001038	0.001912	-0.003577				44.384754	-88.209265	-168.163118
00557	16701512	9.828751	0.189886	0.197821				-0.004649	-0.001253	-0.001147				44.398965	-88.209195	-168.178618
00558	16701562	9.820778	0.221023	0.192641				-0.003528	-0.000398	-0.002717				44.410516	-88.209758	-168.189298
00559	16701612	9.816528	0.190343	0.208701				-0.002152	-0.001308	-0.001860				44.430195	-88.209881	-168.209727
00560	16701662	9.813911	0.174265	0.203529				-0.003219	0.000098	-0.001912				44.433858	-88.209639	-168.211975
00561	16701712	9.824596	0.194106	0.206684				-0.005277	-0.003014	-0.004168				44.478866	-88.209551	-168.258585
00562	16701762	9.811222	0.197163	0.206858				-0.000861	0.000855	0.000779				44.460668	-88.210277	-168.238565
00563	16701812	9.814936	0.203564	0.209528				-0.007965	0.002507	0.000422				44.439746	-88.209758	-168.219872
00564	16701862	9.820398	0.199679	0.219483				-0.005668	0.000739	0.000503				44.422047	-88.210450	-168.201733
00565	16701912	9.820377	0.212811	0.196485				-0.003777	-0.000202	0.000525				44.418958	-88.210493	-168.199669
00566	16701962	9.819446	0.206292	0.205914				-0.007795	0.002119	-0.000866				44.401297	-88.210598	-168.182150
00567	16702012	9.825069	0.214906	0.204110				-0.003225	-0.000742	-0.001338				44.414121	-88.210396	-168.195859
00568	16702062	9.827573	0.201381	0.211654				-0.003554	0.002481	-0.003213				44.409964	-88.210576	-168.190946
00569	16702112	9.830847	0.172758	0.201493				-0.004567	0.001369	0.000056				44.399512	-88.210393	-168.181837
00570	16702162	9.822415	0.187344	0.185441				-0.002427	-0.000363	0.002827				44.375425	-88.211171	-168.156067
00571	16702212	9.805560	0.184356	0.222789				-0.003656	0.002737	-0.002798				44.375276	-88.210055	-168.156964
00572	16702262	9.826609	0.192026	0.194772				-0.003077	-0.000383	-0.000794				44.373857	-88.211078	-168.154561
00573	16702312	9.802810	0.202458	0.208629				-0.004912	0.003336	0.000358				44.348748	-88.210361	-168.130798
00574	16702362	9.818153	0.190196	0.217427				-0.001667	0.001942	0.001332				44.319067	-88.211213	-168.099640
00575	16702412	9.822654	0.192346	0.217124				-0.004368	0.001244	-0.000138				44.310798	-88.210889	-168.092603
00576	16702462	9.820599	0.212353	0.199861				-0.006649	0.001267	-0.000837				44.298890	-88.210805	-168.080338
00577	16702512	9.822797	0.185430	0.206318				-0.001638	0.000670	-0.002526				44.310728	-88.210147	-168.092639
00578	16702562	9.819872	0.195897	0.234436				-0.003400	0.001874	0.000341				44.288058	-88.210671	-168.068935
00579	16702612	9.828104	0.193869	0.217531				-0.001813	-0.000686	-0.000284				44.293966	-88.210709	-168.075346
00580	16702662	9.815869	0.194392	0.192433				-0.004006	0.000797	-0.000915				44.285616	-88.211250	-168.066150
00581	16702712	9.790732	0.219965	0.201946				-0.001521	0.001457	-0.000434				44.278771	-88.210819	-168.059718
00582	16702762	9.817927	0.200232	0.194082				-0.004520	-0.000986	0.002097				44.262269	-88.212165	-168.042478
00583	16702812	9.834959	0.190333	0.194949				-0.005310	0.000186	-0.003607				44.283310	-88.211328	-168.065013
00584	16702862	9.804996	0.202791	0.201111				-0.000596	-0.000858	-0.000805				44.286186	-88.211905	-168.065885
00585	16702912	9.809091	0.196391	0.206364				-0.002093	0.001249	0.000659				44.273421	-88.211646	-168.053645
00586	16702962	9.827353	0.192193	0.187602				-0.003611	-0.000651	-0.001787				44.280339	-88.212404	-168.059662
00587	16703012	9.826727	0.204481	0.187555				-0.005051	-0.002613	0.000834				44.290206	-88.213123	-168.070993
00588	16703062	9.823264	0.196174	0.187416				-0.000943	0.002141	-0.000818				44.273657	-88.213612	-168.052810
00589	16703112	9.802929	0.199438	0.195469				-0.001006	0.004075	-0.004330				44.275500	-88.212125	-168.055053
00590	16703162	9.814544	0.203576	0.194586				-0.004773	-0.000382	-0.001304				44.277462	-88.212663	-168.056304
00591	16703212	9.828311	0.175482	0.219689				-0.004511	-0.000143	0.003671				44.252987	-88.213391	-168.033094
00592	16703262	9.822644	0.202895	0.195945				-0.002119	0.006194	0.000297				44.202952	-88.212905	-167.981576
00593	16703312	9.816349	0.202073	0.215352				-0.002724	-0.003479	-0.000557				44.228000	-88.213592	-168.007463
00594	16703362	9.819689	0.184421	0.210903				-0.003770	0.002284	-0.001772				44.216406	-88.213487	-167.994889
00595	16703412	9.832749	0.184242	0.217561				-0.006700	0.001813	-0.001539				44.212958	-88.212868	-167.993395
00596	16703462	9.833417	0.177310	0.199926				-0.003868	-0.003499	0.001693				44.215653	-88.214349	-167.994981
00597	16703512	9.817847	0.185305	0.199409				-0.002831	0.000911	-0.002487				44.225758	-88.213406	-168.005774
00598	16703562	9.815421	0.211896	0.190071				-0.004215	0.001407	-0.001002				44.214141	-88.213790	-167.993364
00599	16703612	9.818625	0.199224	0.198895				-0.003319	0.001360	-0.000590				44.208251	-88.213500	-167.988473
00600	16703662	9.833300	0.169620	0.196918				-0.004035	-0.000436	-0.001626				44.213071	-88.214105	-167.992453
00601	16703712	9.819514	0.180708	0.208557				-0.002591	0.002401	-0.003247				44.218316	-88.212848	-167.998394
00602	16703762	9.820018	0.212241	0.215594				-0.003105	-0.003549	0.000346				44.230449	-88.214320	-168.009323
00603	16703812	9.821890	0.199886	0.209240				-0.005271	0.001322	-0.000712				44.225030	-88.214016	-168.005471
00604	16703862	9.815227	0.201067	0.205155				-0.004227	0.000693	-0.001104				44.218408	-88.214593	-167.998097
00605	16703912	9.806253	0.193499	0.208613				-0.001857	-0.000133	0.001322				44.210092	-88.215013	-167.990368
00606	16703962	9.801832	0.205761	0.205967				-0.003164	0.001752	0.001147				44.182745	-88.215426	-167.961757
00607	16704012	9.816832	0.192409	0.194843				-0.003801	0.000221	-0.000658				44.184427	-88.215289	-167.964555
00608	16704062	9.819963	0.209322	0.193836				-0.004227	-0.001411	-0.001468				44.194506	-88.215918	-167.973761
00609	16704112	9.815310	0.196897	0.201044				-0.002836	0.000001	-0.003101				44.214187	-88.215243	-167.994238
00610	16704162	9.840260	0.162080	0.202690				-0.001909	0.000986	-0.004613				44.229984	-88.214928	-168.008567
00611	16704212	9.825917	0.197469	0.217762				-0.001177	-0.000810	-0.002950				44.254161	-88.214692	-168.033186
00612	16704262	9.832420	0.192576	0.216404				-0.005011	0.003035	-0.003465				44.248893	-88.213510	-168.027011
00613	16704312	9.820912	0.185227	0.203905				-0.002467	-0.000370	-0.001211				44.258735	-88.212882	-168.037336
00614	16704362	9.810342	0.210935	0.205639				-0.000282	-0.000627	-0.001698				44.265814	-88.214126	-168.042795
00615	16704412	9.829768	0.172297	0.222825				-0.000018	-0.000884	-0.001546				44.281724	-88.213979	-168.058710
00616	16704462	9.827029	0.191818	0.202452				-0.004943	-0.000393	-0.004510				44.304684	-88.213709	-168.080961
00617	16704512	9.818399	0.194540	0.206852				-0.001734	0.002033	-0.000045				44.291153	-88.213486	-168.068022
00618	16704562	9.812142	0.194750	0.215667				-0.003820	-0.001310	-0.002562				44.307570	-88.214123	-168.083538
00619	16704612	9.830215	0.195064	0.220931				-0.005813	0.000922	-0.002512				44.316320	-88.213752	-168.094116
00620	16704662	9.817491	0.194826	0.197800				-0.007015	0.002547	-0.002886				44.309531	-88.212903	-168.086977
00621	16704712	9.818038	0.222374	0.210111				-0.003465	-0.000198	-0.000918				44.315894	-88.212701	-168.094303
00622	16704762	9.813050	0.194906	0.184791				-0.003433	0.000873	-0.000882				44.307342	-88.212989	-168.084632
00623	16704812	9.800546	0.196275	0.202674				-0.007658	0.001501	-0.005389				44.331018	-88.211530	-168.110480
00624	16704862	9.827380	0.195435	0.215175				-0.004405	0.000813	-0.004792				44.348027	-88.211386	-168.126829
00625	16704912	9.813590	0.201668	0.199107				-0.004815	-0.002232	-0.002851				44.379612	-88.211191	-168.159777
00626	16704962	9.807941	0.202418	0.187268				-0.003241	0.001843	-0.001227				44.367598	-88.211165	-168.146546
00627	16705012	9.827297	0.191129	0.199155				-0.006256	0.002852	-0.002340				44.362930	-88.210267	-168.143747
00628	16705062	9.801550	0.193843	0.199071				-0.005946	0.002315	-0.001057				44.345465	-88.210388	-168.125967
00629	16705112	9.810439	0.199523	0.212840				-0.001188	0.000680	-0.003871				44.366446	-88.209117	-168.147115
00630	16705162	9.820437	0.203045	0.206518				-0.003595	-0.001432	-0.003719				44.391134	-88.209414	-168.170746
00631	16705212	9.808807	0.199522	0.207166				-0.008684	0.000777	-0.002247				44.398385	-88.208791	-168.180484
00632	16705262	9.811350	0.211278	0.195399				-0.002076	0.001775	0.001880				44.366470	-88.209637	-168.147148
00633	16705312	9.814559	0.198121	0.204499				-0.006078	0.002770	0.000808				44.341628	-88.209326	-168.124082
00634	16705362	9.826270	0.189222	0.215178				-0.003708	0.001381	-0.000881				44.329443	-88.209866	-168.111040
00635	16705412	9.809196	0.191601	0.198513				-0.005516	0.001869	-0.001670				44.326536	-88.209420	-168.109852
00636	16705462	9.822665	0.184439	0.192961				-0.002255	0.002284	-0.000364				44.306589	-88.208993	-168.088162
00637	16705512	9.829565	0.175792	0.208870				-0.005535	-0.000689	-0.001559				44.319819	-88.208816	-168.102979
00638	16705562	9.820748	0.185238	0.191929				-0.001453	-0.000197	-0.003619				44.336278	-88.209152	-168.117934
00639	16705612	9.822886	0.207003	0.226682				-0.001261	0.000033	-0.001213				44.344060	-88.208787	-168.126019
00640	16705662	9.819243	0.196777	0.220222				-0.000749	0.000212	0.000197				44.333381	-88.209547	-168.113494
00641	16705712	9.803453	0.209616	0.204934				-0.003853	-0.000872	0.002866				44.318795	-88.210602	-168.100155
00642	16705762	9.832966	0.203138	0.221298				-0.002432	-0.000538	-0.001310				44.322532	-88.211094	-168.102493
00643	16705812	9.812810	0.196790	0.220503				-0.000453	-0.000180	-0.001954				44.336322	-88.210694	-168.116398
00644	16705862	9.818664	0.195479	0.200255				-0.005382	-0.002433	-0.001536				44.353072	-88.211242	-168.132463
00645	16705912	9.820428	0.201688	0.211627				-0.004761	0.001366	-0.000554				44.346613	-88.210909	-168.127393
00646	16705962	9.807423	0.214864	0.206686				-0.006633	-0.000152	0.000887				44.332054	-88.212223	-168.112844
00647	16706012	9.813718	0.210354	0.200371				-0.004662	0.003176	-0.001315				44.318960	-88.211374	-168.101117
00648	16706062	9.819832	0.200201	0.194287				-0.003775	-0.002429	0.002248				44.310876	-88.213003	-168.092015
00649	16706112	9.826127	0.195637	0.186430				-0.001700	0.000540	-0.003169				44.327667	-88.212273	-168.109308
00650	16706162	9.811172	0.191216	0.187629				-0.001410	-0.002421	0.000700				44.330765	-88.213471	-168.110646
00651	16706212	9.806021	0.199353	0.195418				-0.004741	0.001884	0.000283				44.315374	-88.213253	-168.096654
00652	16706262	9.825450	0.197115	0.216860				-0.005157	0.000876	0.000728				44.295661	-88.213806	-168.076313
00653	16706312	9.817203	0.208720	0.217365				-0.004063	-0.000565	-0.001946				44.310937	-88.213456	-168.092721
00654	16706362	9.813992	0.190640	0.234360				-0.005362	-0.001041	-0.001752				44.320012	-88.214135	-168.101315
00655	16706412	9.839727	0.188384	0.197518				-0.004037	-0.002243	0.000738				44.328481	-88.214577	-168.110865
00656	16706462	9.832973	0.189161	0.208942				-0.001841	0.000956	-0.003037				44.334061	-88.214437	-168.114888
00657	16706512	9.809040	0.209535	0.189193				-0.000529	0.003118	-0.003090				44.333871	-88.213603	-168.115065
00658	16706562	9.813139	0.178713	0.202453				-0.002018	-0.002496	-0.000323				44.344360	-88.214272	-168.123809
00659	16706612	9.816446	0.222232	0.196339				-0.002154	0.002352	0.002526				44.311934	-88.214390	-168.092029
00660	16706662	9.806422	0.196810	0.213052				-0.002629	-0.000347	-0.002299				44.320173	-88.215335	-168.099270
00661	16706712	9.810092	0.205798	0.217459				-0.006766	0.000677	-0.004501				44.343574	-88.214102	-168.124522
00662	16706762	9.810608	0.205181	0.212631				-0.003128	0.001325	-0.002547				44.343387	-88.213820	-168.123076
00663	16706812	9.815140	0.195291	0.193352				-0.001883	-0.001527	-0.000510				44.355869	-88.214003	-168.136095
00664	16706862	9.826891	0.181186	0.207432				-0.002491	-0.001409	0.000709				44.352136	-88.215233	-168.131046
00665	16706912	9.831697	0.161959	0.200795				-0.005164	0.000776	-0.001329				44.354251	-88.214739	-168.134613
00666	16706962	9.811674	0.194439	0.215390				-0.005353	-0.002299	-0.001089				44.367113	-88.215677	-168.146938
00667	16707012	9.822676	0.212141	0.210168				-0.003773	0.000545	0.000560				44.358886	-88.215647	-168.139773
00668	16707062	9.817142	0.198380	0.209883				-0.001922	-0.000332	-0.000122				44.353672	-88.216348	-168.133039
00669	16707112	9.820196	0.208627	0.196041				-0.002378	0.000922	-0.001910				44.359837	-88.215440	-168.139717
00670	16707162	9.808135	0.207788	0.222897				-0.002950	0.000682	-0.002261				44.361642	-88.216002	-168.140521
00671	16707212	9.826068	0.186184	0.213950				-0.004460	0.000348	0.005183				44.323903	-88.217026	-168.104069
00672	16707262	9.821737	0.211346	0.210430				-0.002329	0.000574	0.002225				44.297195	-88.218039	-168.075940
00673	16707312	9.809744	0.202475	0.203774				-0.001526	0.001094	-0.003259				44.311450	-88.217044	-168.090578
00674	16707362	9.802394	0.197485	0.208789				-0.006454	0.000173	0.000153				44.299468	-88.217871	-168.078472
00675	16707412	9.826131	0.189663	0.199148				-0.000662	0.001403	-0.000501				44.293308	-88.217618	-168.072567
00676	16707462	9.834302	0.184820	0.195770				-0.002608	0.003377	0.000796				44.258218	-88.217650	-168.036032
00677	16707512	9.822715	0.203497	0.183158				-0.001089	0.004148	0.001185				44.223547	-88.216881	-168.001578
00678	16707562	9.820499	0.187589	0.188370				-0.003519	0.001484	-0.000271				44.206859	-88.217492	-167.983956
00679	16707612	9.837012	0.173280	0.205236				-0.001718	-0.000646	0.000901				44.204510	-88.217632	-167.982021
00680	16707662	9.820078	0.180349	0.193818				-0.003091	-0.001737	0.001445				44.197298	-88.219216	-167.973760
00681	16707712	9.814789	0.174355	0.214318				-0.002024	0.000925	-0.001208				44.198855	-88.218744	-167.975872
00682	16707762	9.815825	0.194183	0.199709				-0.002387	0.003544	0.001507				44.157633	-88.219026	-167.933249
00683	16707812	9.818081	0.197471	0.213733				-0.006913	-0.001685	-0.002972				44.185992	-88.218940	-167.963685
00684	16707862	9.805143	0.210954	0.199494				-0.004863	0.001491	-0.002059				44.180927	-88.219168	-167.958070
00685	16707912	9.810763	0.215155	0.205106				-0.007284	-0.002880	0.001579				44.186873	-88.220310	-167.966221
00686	16707962	9.822539	0.203092	0.213973				-0.005501	0.000251	-0.001810				44.187793	-88.220350	-167.966582
00687	16708012	9.827868	0.206111	0.191700				-0.003946	0.000991	0.000823				44.174822	-88.220397	-167.954778
00688	16708062	9.808961	0.191818	0.197583				-0.002331	0.002474	-0.001071				44.157666	-88.220243	-167.936124
00689	16708112	9.814582	0.200668	0.196086				-0.000240	0.001153	-0.001334				44.159346	-88.219452	-167.937724
00690	16708162	9.830103	0.191240	0.206052				-0.004513	0.000725	0.000755				44.140324	-88.220421	-167.918043
00691	16708212	9.833261	0.189742	0.201271				-0.001907	0.002187	-0.002838				44.144496	-88.219298	-167.922711
00692	16708262	9.815649	0.199583	0.216881				-0.002650	0.000695	0.001778				44.120007	-88.220147	-167.896863
00693	16708312	9.816311	0.209889	0.205351				-0.006366	0.000165	-0.003380				44.139530	-88.219341	-167.918180
00694	16708362	9.828507	0.204728	0.207225				-0.003676	0.000381	-0.001138				44.135315	-88.220044	-167.913093
00695	16708412	9.826070	0.204483	0.216208				-0.003447	0.001653	0.002521				44.107113	-88.220114	-167.885821
00696	16708462	9.802698	0.207306	0.217497				-0.004432	0.004248	-0.000764				44.075960	-88.219625	-167.853766
00697	16708512	9.828238	0.201406	0.219970				-0.002059	0.002192	0.000279				44.059367	-88.219267	-167.837777
00698	16708562	9.815068	0.221123	0.190339				-0.002467	0.002860	0.000314				44.030499	-88.219329	-167.807486
00699	16708612	9.810597	0.194731	0.196732				-0.005284	-0.002459	-0.000957				44.051245	-88.219494	-167.829672
00700	16708662	9.817084	0.199989	0.215498				-0.004955	0.002395	-0.001477				44.036264	-88.219667	-167.814171
00701	16708712	9.805698	0.204529	0.198443				-0.005336	-0.001907	-0.000509				44.050163	-88.220146	-167.829700
00702	16708762	9.810068	0.200671	0.192974				-0.004634	0.002532	0.000257				44.023410	-88.220267	-167.802129
00703	16708812	9.811996	0.218904	0.191678				-0.001605	-0.001036	0.000742				44.024658	-88.220675	-167.803859
00704	16708862	9.820845	0.206018	0.212128				-0.004782	0.002011	-0.000197				44.003260	-88.221045	-167.781798
00705	16708912	9.800370	0.209917	0.202571				-0.007103	0.000223	-0.001287				44.008250	-88.220934	-167.788918
00706	16708962	9.834560	0.196954	0.206753				-0.001501	-0.000449	0.000804				43.997290	-88.221998	-167.776378
00707	16709012	9.828494	0.199465	0.181441				-0.001514	0.002903	-0.002965				43.997894	-88.220813	-167.777422
00708	16709062	9.817073	0.206349	0.204264				-0.000678	0.003794	-0.002830				43.984785	-88.219721	-167.762184
00709	16709112	9.824776	0.199982	0.203355				-0.004452	-0.003478	-0.000389				44.008418	-88.220137	-167.786999
00710	16709162	9.828356	0.201516	0.199754				-0.009111	-0.001074	-0.001646				44.015289	-88.221387	-167.794736
00711	16709212	9.834195	0.181443	0.181537				-0.005031	-0.000352	-0.000790				44.021410	-88.221202	-167.802254
00712	16709262	9.806863	0.190707	0.192510				-0.005259	0.000869	-0.001229				44.014942	-88.221283	-167.795121
00713	16709312	9.830623	0.206579	0.207962				-0.004186	0.001670	0.000633				43.998860	-88.221187	-167.780285
00714	16709362	9.823953	0.179077	0.185617				-0.003552	-0.002424	0.001220				43.997203	-88.222613	-167.777571
00715	16709412	9.816846	0.187824	0.200833				-0.001996	-0.000072	-0.001369				44.006220	-88.222225	-167.787104
00716	16709462	9.809969	0.200132	0.210972				-0.003447	0.001458	0.000278				43.986188	-88.222890	-167.766074
00717	16709512	9.832842	0.172658	0.187902				-0.001387	0.002810	-0.003477				43.990956	-88.221563	-167.771210
00718	16709562	9.811834	0.203538	0.210196				-0.005607	0.001770	-0.001027				43.976830	-88.221765	-167.756643
00719	16709612	9.831359	0.204549	0.208217				-0.002170	0.000439	-0.001243				43.981565	-88.221469	-167.762025
00720	16709662	9.832332	0.193369	0.228221				-0.005296	-0.002207	-0.002369				44.002108	-88.222179	-167.782040
00721	16709712	9.806812	0.225795	0.206676				-0.001661	-0.000429	-0.001564				44.015011	-88.221684	-167.795293
00722	16709762	9.803412	0.205347	0.220240				-0.001713	-0.001907	0.000676				44.014171	-88.223218	-167.793026
00723	16709812	9.822425	0.209317	0.218305				-0.002995	-0.000031	-0.002620				44.030898	-88.222554	-167.810548
00724	16709862	9.820057	0.183244	0.191162				-0.000998	-0.002158	-0.001005				44.043209	-88.223710	-167.821218
00725	16709912	9.817092	0.205124	0.203343				-0.004112	0.003090	-0.003064				44.042735	-88.222238	-167.821811
00726	16709962	9.804063	0.215504	0.211029				-0.005338	0.003430	-0.000301				44.012659	-88.222648	-167.791377
00727	16710012	9.814858	0.196393	0.197486				-0.002998	-0.000802	-0.001103				44.024353	-88.222389	-167.803839
00728	16710062	9.822385	0.183814	0.199693				-0.004834	0.003266	-0.005760				44.032601	-88.221358	-167.811436
00729	16710112	9.823139	0.195737	0.207777				-0.001517	0.000704	-0.005780				44.065910	-88.220183	-167.845250
00730	16710162	9.819960	0.187130	0.199630				-0.001377	0.000883	0.001407				44.042735	-88.220802	-167.820298
00731	16710212	9.801983	0.212405	0.207658				-0.004011	0.001999	-0.000469				44.031736	-88.220461	-167.810521
00732	16710262	9.823761	0.206468	0.199887				-0.001394	0.001333	-0.000677				44.019489	-88.220509	-167.796510
00733	16710312	9.824942	0.204778	0.205587				-0.003331	-0.000717	-0.005205				44.057849	-88.219430	-167.835748
00734	16710362	9.816018	0.206234	0.221182				-0.004098	-0.001431	0.000149				44.056638	-88.220933	-167.833872
00735	16710412	9.816976	0.205483	0.221735				-0.006145	0.002604	-0.001233				44.046440	-88.220127	-167.825421
00736	16710462	9.813539	0.210783	0.228865				-0.006097	0.001381	0.002100				44.013921	-88.221028	-167.792582
00737	16710512	9.788095	0.214909	0.213593				-0.003943	-0.001602	-0.005590				44.060074	-88.220292	-167.839914
00738	16710562	9.816372	0.198670	0.178786				-0.003942	-0.000594	-0.002730				44.072925	-88.220655	-167.851872
00739	16710612	9.821188	0.185996	0.194561				-0.002263	-0.001584	0.002742				44.064259	-88.221538	-167.843858
00740	16710662	9.838268	0.174647	0.190429				-0.001477	0.000078	0.002426				44.039226	-88.222890	-167.817272
00741	16710712	9.825094	0.203794	0.183810				-0.003611	0.002624	0.000584				44.017376	-88.222619	-167.796525
00742	16710762	9.824884	0.174944	0.198106				-0.005196	-0.001356	-0.001484				44.026644	-88.222916	-167.805019
00743	16710812	9.836447	0.187768	0.190645				-0.005188	-0.000516	-0.001994				44.041818	-88.222581	-167.821672
00744	16710862	9.818602	0.195224	0.210915				-0.003655	0.001036	0.001862				44.013540	-88.223728	-167.792511
00745	16710912	9.810931	0.219955	0.208382				-0.001787	0.003520	-0.002168				44.004739	-88.222569	-167.784216
00746	16710962	9.818381	0.195338	0.207571				-0.003210	0.003114	0.000875				43.970203	-88.222674	-167.748433
00747	16711012	9.815045	0.212841	0.211413				-0.003129	0.000360	-0.002185				43.981564	-88.222123	-167.760675
00748	16711062	9.829683	0.176289	0.229481				-0.005227	-0.000522	-0.004205				44.003460	-88.222363	-167.782132
00749	16711112	9.810284	0.196700	0.205381				-0.002680	-0.000567	-0.000745				44.011363	-88.222269	-167.790776
00750	16711162	9.817277	0.188391	0.206762				-0.002807	-0.001503	0.002170				43.997419	-88.224120	-167.775774
00751	16711212	9.838662	0.181742	0.229228				-0.002214	0.000671	-0.001063				43.999355	-88.223911	-167.778417
00752	16711262	9.815164	0.176087	0.189187				-0.003670	0.003428	0.001457				43.959223	-88.223714	-167.737005
00753	16711312	9.827412	0.156871	0.211609				-0.002297	0.001679	0.001895				43.934955	-88.223861	-167.713442
00754	16711362	9.815825	0.193110	0.201309				-0.002652	-0.000673	-0.003154				43.951700	-88.223899	-167.728823
00755	16711412	9.821472	0.173751	0.213980				-0.004778	-0.000152	-0.001220				43.959535	-88.223748	-167.738061
00756	16711462	9.812767	0.193071	0.196791				-0.004913	0.000846	-0.001948				43.957596	-88.224068	-167.735524
00757	16711512	9.826891	0.202845	0.203753				-0.003021	0.004148	-0.001971				43.943207	-88.222800	-167.721985
00758	16711562	9.810525	0.231996	0.210179				-0.010001	-0.001085	-0.000506				43.942499	-88.223815	-167.722161
00759	16711612	9.799280	0.223101	0.237561				-0.000641	-0.000276	-0.001648				43.955101	-88.223583	-167.734973
00760	16711662	9.816607	0.205671	0.204212				-0.002993	0.001006	-0.003561				43.963635	-88.223310	-167.742270
00761	16711712	9.832602	0.207862	0.194105				-0.004942	0.003014	-0.001910				43.955779	-88.222388	-167.735859
00762	16711762	9.838196	0.190912	0.209605				-0.005287	0.001483	-0.002813				43.955433	-88.221905	-167.734861
00763	16711812	9.804871	0.198764	0.191155				-0.004627	0.003181	-0.002612				43.950869	-88.220724	-167.731619
00764	16711862	9.809742	0.191632	0.188010				-0.000647	0.003324	0.002542				43.904689	-88.221377	-167.683610
00765	16711912	9.841359	0.189103	0.201249				-0.001726	0.002817	-0.000031				43.886402	-88.220837	-167.665831
00766	16711962	9.839754	0.187284	0.194000				-0.006498	-0.000538	-0.000352				43.882138	-88.221883	-167.661501
00767	16712012	9.834702	0.180124	0.179229				-0.004996	0.001554	-0.002275				43.885950	-88.220876	-167.666634
00768	16712062	9.831252	0.185963	0.186507				-0.000207	0.005063	-0.004417				43.875205	-88.219414	-167.653755
00769	16712112	9.807220	0.206425	0.219374				-0.000793	0.002570	-0.001052				43.865406	-88.218784	-167.644228
00770	16712162	9.814593	0.209770	0.213514				-0.005637	-0.001495	-0.002445				43.881604	-88.219258	-167.660000
00771	16712212	9.804327	0.210288	0.217916				-0.003832	0.001019	-0.005098				43.907658	-88.218168	-167.687230
00772	16712262	9.818837	0.213829	0.212825				-0.003008	0.000425	-0.004078				43.923531	-88.217849	-167.701861
00773	16712312	9.819839	0.202406	0.228190				-0.008250	0.003212	-0.002987				43.920385	-88.216597	-167.701078
00774	16712362	9.817152	0.214637	0.214352				-0.001389	-0.004973	0.000672				43.939460	-88.218669	-167.718582
00775	16712412	9.811195	0.204506	0.195836				-0.001230	0.000007	-0.002898				43.958335	-88.218134	-167.737841
00776	16712462	9.811810	0.206582	0.208248				-0.000905	0.000145	0.000570				43.945378	-88.218661	-167.722925
00777	16712512	9.812788	0.200193	0.178760				-0.001972	-0.000681	0.001113				43.941747	-88.219049	-167.719869
00778	16712562	9.829506	0.192199	0.186199				-0.003307	0.002143	0.000487				43.915891	-88.219665	-167.692997
00779	16712612	9.812482	0.202233	0.186264				-0.008029	0.002378	-0.001099				43.905628	-88.219092	-167.685094
00780	16712662	9.838375	0.181059	0.199493				-0.005456	-0.000395	-0.004206				43.926790	-88.218781	-167.705622
00781	16712712	9.821597	0.204589	0.207799				-0.002792	0.001985	-0.000510				43.916731	-88.218152	-167.696297
00782	16712762	9.822564	0.215925	0.221906				-0.001885	0.002284	-0.005094				43.927513	-88.217321	-167.705525
00783	16712812	9.810337	0.203370	0.222953				-0.004368	0.001984	-0.002331				43.928882	-88.216591	-167.708222
00784	16712862	9.818541	0.210206	0.229360				-0.003159	0.001426	-0.001761				43.922475	-88.217013	-167.700859
00785	16712912	9.808151	0.209845	0.215526				-0.003676	0.002356	-0.002711				43.924277	-88.216106	-167.703773
00786	16712962	9.832683	0.192344	0.211242				-0.003335	-0.002133	0.000240				43.927690	-88.217256	-167.706050
00787	16713012	9.795663	0.205506	0.203574				-0.003634	0.000064	-0.001028				43.933102	-88.216872	-167.712421
00788	16713062	9.795269	0.200625	0.199652				-0.003225	-0.003712	-0.000698				43.953135	-88.217667	-167.731048
00789	16713112	9.806315	0.204143	0.175153				-0.004347	-0.003532	0.002963				43.955020	-88.218875	-167.734129
00790	16713162	9.839802	0.170646	0.182734				-0.004905	-0.001386	-0.002128				43.968510	-88.219582	-167.747041
00791	16713212	9.825306	0.168790	0.181732				-0.004037	0.004838	-0.002161				43.950772	-88.218253	-167.730501
00792	16713262	9.825900	0.172525	0.192958				-0.001838	0.002805	-0.004680				43.955060	-88.217699	-167.733365
00793	16713312	9.830854	0.197791	0.188163				-0.000795	0.004308	-0.005665				43.965197	-88.215558	-167.743668
00794	16713362	9.804383	0.188197	0.214135				-0.007104	0.002556	-0.000267				43.940520	-88.215838	-167.719018
00795	16713412	9.817752	0.197597	0.227701				-0.005472	0.000580	-0.001888				43.947775	-88.215237	-167.727791
00796	16713462	9.810074	0.213328	0.205494				-0.005004	0.005016	-0.001575				43.916668	-88.214867	-167.696154
00797	16713512	9.808792	0.227403	0.229900				-0.003073	0.000715	-0.002276				43.926315	-88.214323	-167.706712
00798	16713562	9.817032	0.219591	0.223579				-0.001663	-0.000487	-0.001969				43.933882	-88.214855	-167.712762
00799	16713612	9.818647	0.214288	0.242981				-0.004161	0.000598	-0.002183				43.943507	-88.213996	-167.723434
00800	16713662	9.813685	0.208778	0.209193				-0.005293	-0.001226	-0.001831				43.953901	-88.214811	-167.733378
00801	16713712	9.838922	0.190074	0.207573				-0.004406	-0.002696	0.002003				43.956581	-88.215688	-167.737281
00802	16713762	9.833903	0.177373	0.197514				-0.004409	-0.003862	0.000264				43.970513	-88.217379	-167.750468
00803	16713812	9.819489	0.161177	0.174525				-0.006556	0.001436	0.001327				43.950620	-88.217403	-167.732479
00804	16713862	9.827367	0.191800	0.187109				-0.005228	-0.000457	-0.004172				43.971636	-88.217315	-167.752913
00805	16713912	9.810831	0.204048	0.180028				-0.003858	0.000896	-0.003396				43.987283	-88.216481	-167.769681
00806	16713962	9.826077	0.197048	0.191097				-0.002548	-0.003961	-0.000282				44.006060	-88.217768	-167.787053
00807	16714012	9.821195	0.201486	0.203530				-0.001544	0.003649	-0.005024				44.015738	-88.215780	-167.797060
00808	16714062	9.825139	0.206116	0.210840				-0.003261	-0.000843	-0.004984				44.044636	-88.216253	-167.825152
00809	16714112	9.820091	0.224374	0.219517				-0.001787	-0.000554	-0.002196				44.062268	-88.215676	-167.843180
00810	16714162	9.787957	0.241206	0.221820				-0.005811	0.001221	-0.000820				44.050499	-88.216110	-167.831069
00811	16714212	9.802557	0.216694	0.221287				-0.003966	0.000614	0.001635				44.034460	-88.216616	-167.816313
00812	16714262	9.828235	0.200430	0.222094				-0.003602	0.001261	0.001188				44.009721	-88.216786	-167.790283
00813	16714312	9.821862	0.203082	0.207026				-0.004388	-0.000039	0.002600				43.991614	-88.217110	-167.773329
00814	16714362	9.842255	0.181607	0.186254				-0.004321	-0.003175	0.003989				43.976058	-88.219791	-167.757185
00815	16714412	9.831181	0.166853	0.196480				-0.001758	0.000012	0.004577				43.945242	-88.220792	-167.726906
00816	16714462	9.821197	0.168569	0.191732				-0.002529	0.001668	-0.000063				43.926283	-88.221108	-167.706569
00817	16714512	9.824374	0.161819	0.191698				-0.001384	0.000680	-0.002796				43.940386	-88.220244	-167.720986
00818	16714562	9.828376	0.162696	0.197034				-0.001594	0.001394	-0.001828				43.934671	-88.220658	-167.713838
00819	16714612	9.817592	0.193869	0.185133				-0.006020	0.005610	-0.003719				43.921686	-88.218878	-167.702628
00820	16714662	9.813004	0.182385	0.217177				-0.006178	0.000236	-0.004970				43.943758	-88.218153	-167.724238
00821	16714712	9.824587	0.206609	0.222447				-0.005250	0.003720	-0.002000				43.931751	-88.216863	-167.713669
00822	16714762	9.830448	0.211634	0.226906				-0.001828	0.001708	-0.003208				43.933483	-88.217043	-167.714053
00823	16714812	9.800732	0.230283	0.218632				-0.003237	-0.000155	-0.001156				43.940980	-88.216971	-167.722541
00824	16714862	9.806715	0.222114	0.229861				-0.003742	-0.001359	0.000758				43.936024	-88.217817	-167.716448
00825	16714912	9.818989	0.222251	0.208395				-0.004154	-0.002459	0.002711				43.932589	-88.218871	-167.714207
00826	16714962	9.817053	0.219977	0.218984				-0.005086	-0.002319	0.001242				43.929664	-88.220281	-167.710675
00827	16715012	9.820898	0.212761	0.188279				-0.006403	-0.002514	-0.001486				43.953555	-88.220628	-167.736478
00828	16715062	9.819921	0.195528	0.188831				-0.005369	0.000687	0.003503				43.916689	-88.221882	-167.699055
00829	16715112	9.835364	0.177707	0.191400				-0.004354	0.002062	0.003922				43.876172	-88.222282	-167.659786
00830	16715162	9.833507	0.170573	0.161284				-0.004325	0.002638	-0.001591				43.860805	-88.222096	-167.643610
00831	16715212	9.822569	0.192346	0.190004				-0.003861	0.000188	-0.000549				43.862189	-88.221824	-167.646045
00832	16715262	9.830107	0.160398	0.191743				-0.003095	0.002301	-0.000508				43.842001	-88.221849	-167.624613
00833	16715312	9.813600	0.178926	0.205568				-0.005265	0.005603	0.002791				43.786121	-88.221098	-167.570143
00834	16715362	9.798576	0.193472	0.218711				-0.002825	0.004116	-0.000656				43.755404	-88.221162	-167.538355
00835	16715412	9.809278	0.190460	0.225960				-0.003973	-0.000432	-0.002699				43.775033	-88.220604	-167.559079
00836	16715462	9.814662	0.203245	0.216680				0.000537	0.001880	-0.002215				43.770103	-88.220552	-167.551891
00837	16715512	9.809968	0.187706	0.236863				-0.003030	0.003140	-0.003804				43.774512	-88.219160	-167.557179
00838	16715562	9.818324	0.196226	0.215889				-0.000922	-0.000568	-0.002515				43.786526	-88.219393	-167.567348
00839	16715612	9.817971	0.202477	0.220660				-0.001436	-0.001452	-0.000565				43.799236	-88.219545	-167.580456
00840	16715662	9.807749	0.203341	0.217338				-0.000687	-0.001787	0.000716				43.797551	-88.220770	-167.576904
00841	16715712	9.825293	0.196865	0.204049				-0.006434	-0.002470	0.001784				43.799585	-88.221586	-167.580757
00842	16715762	9.849512	0.172931	0.185474				-0.005901	-0.004540	-0.002976				43.838542	-88.222995	-167.619552
00843	16715812	9.828243	0.180009	0.184013				-0.003444	-0.001235	-0.004696				43.876799	-88.222097	-167.658708
00844	16715862	9.809533	0.207627	0.189393				-0.003427	0.001553	-0.002337				43.873337	-88.222278	-167.654318
00845	16715912	9.825354	0.196870	0.194050				-0.002384	-0.001150	-0.003287				43.901937	-88.221777	-167.683574
00846	16715962	9.819996	0.211288	0.184550				-0.002235	0.002148	-0.005160				43.913627	-88.221153	-167.693932
00847	16716012	9.820316	0.216134	0.199928				-0.000482	0.003767	-0.003231				43.910999	-88.219391	-167.691270
00848	16716062	9.801700	0.233063	0.210292				-0.002936	0.000435	-0.000193				43.900210	-88.220497	-167.679514
00849	16716112	9.823866	0.235101	0.203734				-0.002954	0.002012	-0.001922				43.899239	-88.219744	-167.679414
00850	16716162	9.814670	0.219865	0.220029				-0.006001	0.001551	0.003158				43.859216	-88.220428	-167.638871
00851	16716212	9.824596	0.191509	0.211089				-0.002918	-0.001055	0.002234				43.850133	-88.221039	-167.630602
00852	16716262	9.798433	0.223082	0.219633				-0.002701	0.000179	0.000957				43.833865	-88.222222	-167.613225
00853	16716312	9.829487	0.186977	0.200312				-0.005374	0.001623	0.002669				43.804188	-88.222389	-167.585058
00854	16716362	9.803160	0.195181	0.204552				-0.003235	0.000949	0.001028				43.782762	-88.222737	-167.562349
00855	16716412	9.819778	0.158873	0.171607				-0.005835	0.001868	0.000686				43.764531	-88.222656	-167.545870
00856	16716462	9.810432	0.187091	0.200138				-0.005509	-0.000654	-0.003015				43.778946	-88.222825	-167.559756
00857	16716512	9.813345	0.170675	0.187057				-0.008544	0.003534	-0.000004				43.753882	-88.222017	-167.537090
00858	16716562	9.827894	0.187090	0.187715				-0.005282	0.003390	-0.004443				43.752476	-88.221473	-167.535287
00859	16716612	9.828651	0.176660	0.202056				-0.001015	0.004376	-0.003484				43.747519	-88.219933	-167.530649
00860	16716662	9.813693	0.204304	0.216464				-0.003862	0.001956	-0.005735				43.764374	-88.218691	-167.546380
00861	16716712	9.818542	0.213492	0.222945				-0.004662	0.003140	-0.004637				43.773984	-88.216921	-167.557233
00862	16716762	9.827477	0.224045	0.219995				-0.003530	0.002741	-0.004449				43.776626	-88.216501	-167.558926
00863	16716812	9.791879	0.230329	0.224373				-0.004357	-0.001408	-0.001033				43.791402	-88.216428	-167.574883
00864	16716862	9.801147	0.215584	0.219764				-0.002215	-0.003110	-0.000120				43.803258	-88.217999	-167.585449
00865	16716912	9.820233	0.218590	0.208043				0.000311	0.001034	-0.000491				43.799978	-88.217607	-167.582042
00866	16716962	9.828687	0.203762	0.179657				-0.007769	-0.001017	-0.002052				43.809882	-88.218416	-167.592295
00867	16717012	9.823658	0.188816	0.175176				-0.007413	0.000031	-0.000028				43.807771	-88.218277	-167.592242
00868	16717062	9.816239	0.196753	0.164822				-0.005683	-0.003144	-0.001876				43.830351	-88.219925	-167.614730
00869	16717112	9.804649	0.201735	0.182399				-0.001620	0.000127	-0.002667				43.846793	-88.219411	-167.631666
00870	16717162	9.841498	0.184984	0.186521				-0.004935	-0.001188	0.001532				43.835173	-88.220168	-167.619141
00871	16717212	9.834166	0.196434	0.194230				-0.004902	-0.001249	0.000473				43.838614	-88.220416	-167.623932
00872	16717262	9.811046	0.215142	0.198811				-0.004431	0.002986	-0.001944				43.822750	-88.220618	-167.607545
00873	16717312	9.824301	0.198604	0.206778				-0.005434	0.000829	-0.005894				43.855043	-88.219353	-167.641444
00874	16717362	9.811469	0.203363	0.231201				-0.003451	0.004890	0.001883				43.802513	-88.219239	-167.587716
00875	16717412	9.800553	0.202185	0.228177				-0.002021	-0.001463	-0.003544				43.834638	-88.218933	-167.620489
00876	16717462	9.817493	0.200005	0.226910				-0.003232	-0.002615	-0.001302				43.851277	-88.219767	-167.635904
00877	16717512	9.802177	0.186299	0.228212				-0.005360	0.000030	-0.000671				43.853688	-88.219784	-167.639934
00878	16717562	9.808941	0.191333	0.202447				-0.004043	-0.002406	-0.002196				43.875051	-88.220433	-167.660336
00879	16717612	9.804305	0.184709	0.194393				-0.001765	-0.002164	0.000461				43.885328	-88.220956	-167.671116
00880	16717662	9.796730	0.187736	0.181310				-0.003177	0.000551	-0.003497				43.896402	-88.220716	-167.680980
00881	16717712	9.808196	0.184450	0.182736				0.001252	0.001501	-0.002315				43.902405	-88.220358	-167.686829
00882	16717762	9.822200	0.170216	0.179716				-0.001149	0.001527	-0.001799				43.896371	-88.219708	-167.678671
00883	16717812	9.822278	0.177350	0.191587				-0.006282	-0.003312	-0.000013				43.915799	-88.220496	-167.699960
00884	16717862	9.816815	0.200802	0.180511				-0.002480	0.000986	-0.002760				43.918950	-88.220851	-167.701910
00885	16717912	9.812393	0.197095	0.210688				-0.006817	0.000461	-0.001310				43.922770	-88.220580	-167.707723
00886	16717962	9.816928	0.219918	0.201291				-0.005896	0.000601	-0.003330				43.931151	-88.220840	-167.715885
00887	16718012	9.801576	0.224508	0.210076				-0.003082	0.002081	-0.001148				43.924505	-88.220237	-167.710143
00888	16718062	9.811565	0.222161	0.215228				-0.002509	0.000017	-0.000200				43.917020	-88.220696	-167.701213
00889	16718112	9.808861	0.214224	0.207072				-0.002594	-0.001506	-0.002515				43.942474	-88.220466	-167.727404
00890	16718162	9.817980	0.206845	0.211585				-0.006893	-0.000089	-0.000125				43.934463	-88.220970	-167.719205
00891	16718212	9.804082	0.205830	0.226820				-0.005250	0.003684	-0.002066				43.923188	-88.219678	-167.709370
00892	16718262	9.814620	0.200260	0.188854				-0.004025	0.000511	0.000739				43.905549	-88.220909	-167.691055
00893	16718312	9.814952	0.179343	0.177823				-0.005358	0.000133	0.001962				43.890102	-88.221122	-167.677065
00894	16718362	9.804436	0.180642	0.183155				-0.003336	0.000647	-0.002311				43.892301	-88.221603	-167.678314
00895	16718412	9.828083	0.186376	0.197733				-0.004779	0.003886	-0.001871				43.878730	-88.220321	-167.666054
00896	16718462	9.821671	0.185297	0.195822				-0.006228	0.001281	0.000873				43.854967	-88.220914	-167.641994
00897	16718512	9.812557	0.192022	0.193716				-0.000204	0.002030	-0.002277				43.857355	-88.219976	-167.644409
00898	16718562	9.818638	0.193481	0.209317				-0.000751	0.003088	-0.002943				43.848716	-88.219305	-167.633846
00899	16718612	9.826062	0.190190	0.209176				-0.000936	0.000850	-0.001514				43.853223	-88.218838	-167.638622
00900	16718662	9.818287	0.195405	0.223161				-0.000171	0.002962	-0.003270				43.847518	-88.218603	-167.631058
00901	16718712	9.797149	0.188637	0.228240				-0.003471	-0.000096	-0.002538				43.863977	-88.218083	-167.648503
00902	16718762	9.827234	0.193354	0.203387				-0.001831	-0.001071	-0.000370				43.865381	-88.218522	-167.648173
00903	16718812	9.807699	0.188688	0.216432				-0.004094	-0.000594	-0.001961				43.880922	-88.218198	-167.664868
00904	16718862	9.820214	0.197123	0.216267				-0.001412	0.005019	-0.000948				43.846722	-88.217901	-167.629098
00905	16718912	9.800167	0.229896	0.195796				-0.003587	-0.002362	-0.000561				43.864592	-88.218096	-167.647916
00906	16718962	9.812070	0.210078	0.196523				-0.002135	-0.000456	0.001822				43.846860	-88.219437	-167.628755
00907	16719012	9.828197	0.206396	0.177092				-0.001421	0.001004	-0.002863				43.859227	-88.218690	-167.641548
00908	16719062	9.811445	0.193451	0.216195				-0.003208	-0.000188	-0.001606				43.862101	-88.219138	-167.643284
00909	16719112	9.823879	0.198486	0.197691				-0.007216	-0.000166	-0.002659				43.878740	-88.218731	-167.662034
00910	16719162	9.825332	0.201544	0.188332				-0.000684	0.000621	-0.005332				43.901624	-88.218293	-167.683084
00911	16719212	9.803533	0.209394	0.192472				-0.000614	-0.000209	-0.000937				43.909217	-88.218140	-167.690847
00912	16719262	9.803485	0.211693	0.195085				-0.004961	-0.002452	0.000308				43.913332	-88.219474	-167.694351
00913	16719312	9.817476	0.208973	0.211146				-0.005829	0.000770	0.000231				43.905240	-88.219326	-167.687910
00914	16719362	9.806851	0.227332	0.197482				-0.004567	-0.001539	0.000602				43.902044	-88.220326	-167.683875
00915	16719412	9.820585	0.211733	0.202224				-0.002722	-0.002146	0.002066				43.901116	-88.221324	-167.683802
00916	16719462	9.821846	0.201657	0.211788				-0.000611	-0.002274	0.000166				43.906414	-88.222561	-167.687264
00917	16719512	9.822475	0.196254	0.198850				-0.003158	-0.000641	-0.000329				43.911516	-88.222955	-167.693431
00918	16719562	9.825078	0.188463	0.177919				-0.001969	-0.003942	0.001097				43.921481	-88.224262	-167.701686
00919	16719612	9.793518	0.200372	0.211988				0.000402	-0.000700	0.001238				43.917729	-88.224695	-167.697842
00920	16719662	9.814770	0.198595	0.207512				-0.000290	-0.000007	0.000278				43.908152	-88.225349	-167.686221
00921	16719712	9.814604	0.189030	0.216041				-0.003795	0.004330	-0.001551				43.889856	-88.224091	-167.668973
00922	16719762	9.829332	0.154381	0.214079				-0.002414	0.005027	-0.003127				43.869601	-88.223384	-167.647461
00923	16719812	9.813293	0.202966	0.206378				-0.004078	0.001796	-0.003680				43.881547	-88.222233	-167.660555
00924	16719862	9.807167	0.214490	0.211199				-0.003099	0.003132	-0.006043				43.892692	-88.221344	-167.670668
00925	16719912	9.824121	0.191635	0.212080				-0.005363	-0.000104	-0.003065				43.912144	-88.220753	-167.691662
00926	16719962	9.838602	0.195787	0.210485				-0.003642	0.000350	-0.001205				43.908696	-88.221105	-167.687178
00927	16720012	9.789245	0.237671	0.212441				-0.004300	-0.000443	-0.004737				43.941505	-88.220320	-167.721273
00928	16720062	9.818884	0.213659	0.205396				-0.000919	0.000430	0.000037				43.930796	-88.220880	-167.708690
00929	16720112	9.829438	0.189361	0.202888				-0.002962	-0.001867	0.000060				43.941435	-88.221242	-167.720165
00930	16720162	9.818988	0.188976	0.199051				0.000133	-0.002392	0.001273				43.940089	-88.222825	-167.716779
00931	16720212	9.826290	0.196815	0.197187				-0.005007	0.000874	-0.001743				43.944542	-88.222455	-167.722750
00932	16720262	9.820458	0.198262	0.173992				-0.004753	0.000942	-0.000848				43.935210	-88.222598	-167.712598
00933	16720312	9.850370	0.183141	0.181942				-0.004023	0.000112	-0.002205				43.947790	-88.222193	-167.726366
00934	16720362	9.797136	0.205292	0.196183				-0.001470	0.001348	-0.004897				43.963052	-88.221925	-167.740118
00935	16720412	9.823133	0.213682	0.211343				-0.000780	0.000682	-0.005030				43.991849	-88.220837	-167.769176
00936	16720462	9.818678	0.211564	0.204694				-0.001854	0.001609	-0.002324				43.988877	-88.220246	-167.764431
00937	16720512	9.814828	0.202951	0.189115				-0.004806	0.001553	-0.002158				43.991821	-88.219436	-167.768727
00938	16720562	9.825666	0.205474	0.204344				-0.004543	-0.000605	-0.001982				43.999451	-88.220319	-167.775810
00939	16720612	9.806942	0.216085	0.206388				-0.004128	0.000597	-0.001299				44.002950	-88.220103	-167.780579
00940	16720662	9.815862	0.195204	0.229895				-0.005133	0.002070	0.000186				43.979317	-88.219972	-167.756106
00941	16720712	9.805694	0.196793	0.215466				-0.003599	-0.002274	-0.004554				44.022870	-88.219776	-167.800830
00942	16720762	9.827503	0.191709	0.203864				0.002312	-0.000419	-0.000621				44.022553	-88.220507	-167.797849
00943	16720812	9.818034	0.202611	0.210146				-0.007407	-0.001199	-0.000180				44.029316	-88.220748	-167.806752
00944	16720862	9.832752	0.182793	0.220702				-0.002856	0.001782	-0.001976				44.022258	-88.220764	-167.798480
00945	16720912	9.832763	0.172893	0.199825				-0.003365	0.000644	-0.001851				44.029452	-88.220225	-167.806628
00946	16720962	9.820977	0.190402	0.182599				-0.003307	0.000543	-0.004642				44.047887	-88.219765	-167.823862
00947	16721012	9.829354	0.180674	0.195959				-0.006302	0.000370	0.000279				44.041911	-88.219754	-167.819692
00948	16721062	9.805262	0.215866	0.207837				-0.000976	-0.000863	-0.001632				44.050189	-88.220051	-167.826066
00949	16721112	9.804232	0.205375	0.204205				-0.002001	-0.001919	-0.001764				44.073689	-88.219912	-167.850061
00950	16721162	9.797311	0.208262	0.200997				-0.005426	0.002059	-0.003278				44.072461	-88.220148	-167.848607
00951	16721212	9.806889	0.218943	0.209722				-0.002328	0.000044	-0.003456				44.094116	-88.219558	-167.870992
00952	16721262	9.800729	0.208245	0.187784				-0.004347	0.002602	-0.001223				44.076801	-88.219240	-167.852684
00953	16721312	9.811003	0.219474	0.196756				-0.004023	-0.000524	0.002384				44.063193	-88.219614	-167.840119
00954	16721362	9.817364	0.206581	0.196461				-0.005054	-0.001451	0.000200				44.061706	-88.220917	-167.838142
00955	16721412	9.805255	0.217318	0.206086				-0.001545	-0.003438	-0.004051				44.110014	-88.220875	-167.886950
00956	16721462	9.824080	0.203208	0.194626				-0.001731	0.003809	-0.001965				44.090538	-88.220170	-167.865782
00957	16721512	9.823690	0.198416	0.189798				-0.001810	-0.000207	-0.005002				44.124434	-88.219264	-167.900236
00958	16721562	9.817867	0.184951	0.195531				-0.003617	0.000180	-0.005218				44.148662	-88.219539	-167.923732
00959	16721612	9.797905	0.206055	0.185048				-0.002606	-0.001892	0.000705				44.155358	-88.220189	-167.931243
00960	16721662	9.822694	0.193988	0.206122				-0.005255	0.002842	-0.000808				44.133403	-88.219437	-167.908346
00961	16721712	9.823303	0.206160	0.198328				-0.000639	-0.001341	0.000319				44.139588	-88.219790	-167.914726
00962	16721762	9.827022	0.191771	0.204202				-0.004105	0.002630	-0.004658				44.144393	-88.219448	-167.918814
00963	16721812	9.816697	0.215952	0.207757				-0.004648	-0.000185	-0.000952				44.150501	-88.219288	-167.926255
00964	16721862	9.814482	0.201661	0.209505				-0.001334	0.000259	-0.001662				44.152255	-88.218920	-167.925964
00965	16721912	9.825067	0.193773	0.207953				-0.001425	-0.001004	-0.002058				44.171737	-88.218873	-167.945939
00966	16721962	9.822821	0.192449	0.228616				-0.004230	-0.000270	-0.000312				44.166250	-88.219797	-167.939705
00967	16722012	9.811457	0.175944	0.211311				-0.006118	-0.002279	0.001192				44.171363	-88.220157	-167.946400
00968	16722062	9.800644	0.195494	0.188190				-0.006657	-0.000907	-0.004635				44.198082	-88.220580	-167.973198
00969	16722112	9.836616	0.184591	0.208229				-0.005314	0.001811	0.000277				44.183052	-88.220255	-167.959678
00970	16722162	9.816798	0.191666	0.201311				-0.004719	0.000809	-0.002936				44.187918	-88.220267	-167.963853
00971	16722212	9.819475	0.201458	0.211611				-0.001553	0.000320	-0.000347				44.187504	-88.220477	-167.964050
00972	16722262	9.810981	0.202736	0.194868				-0.004274	-0.000823	0.000837				44.178525	-88.221044	-167.953989
00973	16722312	9.830814	0.180064	0.191907				-0.004954	0.000425	0.000305				44.172315	-88.221118	-167.949248
00974	16722362	9.821150	0.204224	0.204773				-0.001967	0.004160	-0.002635				44.154280	-88.220724	-167.929856
00975	16722412	9.826416	0.217017	0.212553				-0.005525	0.000859	-0.004952				44.180161	-88.219448	-167.957281
00976	16722462	9.813006	0.207419	0.204922				-0.002719	0.001724	-0.000015				44.160586	-88.219728	-167.936355
00977	16722512	9.797111	0.224036	0.201371				-0.004788	-0.000700	0.001135				44.156290	-88.219874	-167.933315
00978	16722562	9.816031	0.211854	0.208008				-0.003093	0.000361	0.001296				44.136255	-88.221066	-167.912249
00979	16722612	9.804412	0.206107	0.211376				-0.005520	-0.002179	-0.002465				44.164993	-88.220980	-167.942561
00980	16722662	9.813464	0.188416	0.208537				-0.003443	-0.000005	-0.003007				44.176234	-88.221433	-167.952876
00981	16722712	9.837640	0.191150	0.182770				-0.004598	0.000369	0.000334				44.170190	-88.221501	-167.948187
00982	16722762	9.848458	0.174202	0.199976				-0.003876	0.000733	-0.000308				44.158584	-88.221607	-167.935435
00983	16722812	9.812366	0.211270	0.185592				-0.003431	0.002875	-0.001641				44.149854	-88.220855	-167.927764
00984	16722862	9.828625	0.178655	0.202746				-0.004142	0.003255	0.000541				44.116379	-88.221281	-167.893503
00985	16722912	9.802903	0.197351	0.203312				-0.002352	0.001245	-0.000177				44.108778	-88.221037	-167.886597
00986	16722962	9.812642	0.200631	0.201116				-0.004185	0.001212	-0.001815				44.104273	-88.220997	-167.881170
00987	16723012	9.816453	0.174570	0.214475				-0.004579	-0.000444	-0.000052				44.106202	-88.221152	-167.884445
00988	16723062	9.809088	0.191076	0.218398				-0.003875	0.000438	-0.004700				44.125391	-88.220670	-167.902607
00989	16723112	9.811082	0.204220	0.214516				-0.002669	0.000044	-0.000343				44.126785	-88.220524	-167.904732
00990	16723162	9.820956	0.213615	0.217250				-0.004048	-0.001281	-0.005192				44.160285	-88.220482	-167.937377
00991	16723212	9.805470	0.219621	0.205197				-0.005782	0.000184	-0.001137				44.164729	-88.220330	-167.943539
00992	16723262	9.809379	0.197313	0.196613				-0.007325	0.001418	0.000123				44.145109	-88.220587	-167.923830
00993	16723312	9.821095	0.191958	0.199376				-0.007401	0.000442	-0.002994				44.160203	-88.219650	-167.940929
00994	16723362	9.829547	0.190397	0.183503				-0.003288	0.000322	-0.001596				44.159663	-88.220214	-167.939325
00995	16723412	9.823315	0.205201	0.199401				-0.008433	0.002177	0.000710				44.138390	-88.219782	-167.920396
00996	16723462	9.831704	0.193756	0.213079				-0.003976	0.003896	-0.001542				44.114787	-88.219489	-167.895873
00997	16723512	9.830368	0.214053	0.193854				-0.000858	-0.000739	-0.003690				44.143785	-88.218937	-167.925146
00998	16723562	9.829989	0.201517	0.204601				-0.003288	0.000028	-0.003619				44.158696	-88.218820	-167.938894
00999	16723612	9.817426	0.201240	0.196236				-0.002397	-0.000799	-0.004169				44.190753	-88.218225	-167.971688
01000	16723662	9.808361	0.216100	0.208351				-0.006137	0.002375	-0.001124				44.172762	-88.218771	-167.953656
01001	16723712	9.819927	0.218148	0.219782				-0.003847	0.001999	-0.000139				44.159799	-88.218501	-167.941876
01002	16723762	9.810730	0.213465	0.215968				-0.002103	0.001147	-0.002714				44.162044	-88.218074	-167.942477
01003	16723812	9.804254	0.200535	0.209516				-0.000215	-0.000362	0.001027				44.157834	-88.218060	-167.938181
01004	16723862	9.830904	0.188736	0.198824				-0.004507	0.000232	-0.002167				44.161087	-88.218938	-167.940994
01005	16723912	9.822792	0.209009	0.199125				-0.003827	0.000153	0.000332				44.156798	-88.218943	-167.937786
01006	16723962	9.818740	0.187501	0.203679				-0.003981	0.000189	0.001811				44.134536	-88.219803	-167.914485
01007	16724012	9.820849	0.184350	0.215880				-0.002930	-0.000967	-0.001762				44.151602	-88.219548	-167.932349
01008	16724062	9.822854	0.179962	0.209435				-0.004322	0.001600	-0.000752				44.137386	-88.219903	-167.917399
01009	16724112	9.816303	0.191106	0.206178				-0.001977	0.002351	-0.001458				44.131384	-88.219066	-167.911926
01010	16724162	9.820173	0.209529	0.197235				-0.004034	0.001667	-0.001262				44.119977	-88.219135	-167.899563
01011	16724212	9.820801	0.197719	0.198170				-0.004092	0.002144	-0.004278				44.133408	-88.217777	-167.914143
01012	16724262	9.821201	0.191074	0.221888				-0.001703	0.000164	0.002030				44.110609	-88.219086	-167.889811
01013	16724312	9.814395	0.194467	0.199934				-0.003270	0.002946	-0.000713				44.095550	-88.218287	-167.875658
01014	16724362	9.829970	0.215509	0.218773				-0.005672	0.001636	-0.002252				44.090532	-88.218220	-167.870200
01015	16724412	9.806992	0.213080	0.203954				-0.004877	0.000776	-0.003444				44.106932	-88.217414	-167.888023
01016	16724462	9.811335	0.204921	0.211453				-0.002372	0.000694	-0.001170				44.101483	-88.217995	-167.881299
01017	16724512	9.840452	0.187625	0.197137				-0.003426	0.000913	0.002290				44.079495	-88.218403	-167.860345
01018	16724562	9.814851	0.197778	0.195242				-0.006346	-0.004318	0.001694				44.086450	-88.219925	-167.866863
01019	16724612	9.800369	0.215945	0.190880				-0.002702	0.001474	0.002394				44.060378	-88.219975	-167.841493
01020	16724662	9.800122	0.208944	0.205397				-0.002640	-0.002061	-0.002184				44.079446	-88.220903	-167.859329
01021	16724712	9.827799	0.195297	0.186005				-0.005183	0.004722	0.000553				44.043750	-88.220238	-167.825200
01022	16724762	9.807280	0.207365	0.207375				-0.003901	0.001375	-0.003447				44.049046	-88.219714	-167.829422
01023	16724812	9.811341	0.191629	0.198060				-0.004698	0.002297	-0.002993				44.052678	-88.218843	-167.834500
01024	16724862	9.830391	0.204712	0.211100				-0.002602	-0.000251	-0.002399				44.061503	-88.219262	-167.842072
01025	16724912	9.820251	0.196433	0.211405				-0.001453	0.002395	0.001238				44.037615	-88.218964	-167.818561
01026	16724962	9.807201	0.195967	0.203736				-0.005032	-0.000092	0.000595				44.025193	-88.219611	-167.805387
01027	16725012	9.803971	0.206093	0.205714				-0.003026	0.000969	-0.002455				44.034293	-88.218787	-167.815294
01028	16725062	9.820555	0.191252	0.211114				-0.005525	-0.000912	-0.000569				44.034547	-88.219428	-167.814994
01029	16725112	9.815861	0.205033	0.211429				-0.005678	0.002864	-0.002438				44.030657	-88.218593	-167.812847
01030	16725162	9.822809	0.186981	0.202044				-0.001263	0.001203	-0.001373				44.023595	-88.218745	-167.804060
01031	16725212	9.822781	0.180091	0.220534				-0.002814	0.003561	-0.003631				44.024299	-88.217003	-167.805434
01032	16725262	9.815559	0.195424	0.202219				-0.004681	-0.001188	-0.000730				44.027311	-88.218288	-167.807944
01033	16725312	9.817724	0.189192	0.211151				-0.004601	0.001135	-0.003158				44.039679	-88.217473	-167.821660
01034	16725362	9.834666	0.186948	0.210152				-0.001383	0.002004	-0.000436				44.021251	-88.217700	-167.801579
01035	16725412	9.819256	0.183875	0.205870				-0.001852	0.001149	-0.004737				44.044561	-88.216748	-167.825539
01036	16725462	9.810540	0.199347	0.196810				-0.005342	0.002845	0.001186				44.009344	-88.216812	-167.789594
01037	16725512	9.810816	0.201537	0.185030				-0.005659	-0.000752	-0.000339				44.014790	-88.216803	-167.796617
01038	16725562	9.806764	0.214349	0.199628				-0.002681	-0.002804	-0.002895				44.043535	-88.217367	-167.824012
01039	16725612	9.827353	0.203622	0.203751				-0.006212	0.002661	-0.001479				44.034632	-88.216560	-167.816896
01040	16725662	9.813448	0.203236	0.219060				-0.004034	-0.000472	-0.002398				44.044105	-88.217048	-167.825551
01041	16725712	9.810984	0.210700	0.217602				-0.006999	-0.000612	0.001752				44.034439	-88.217393	-167.817823
01042	16725762	9.812524	0.206959	0.206872				-0.003626	-0.002235	-0.001218				44.047868	-88.218634	-167.830390
01043	16725812	9.829539	0.202656	0.199812				-0.003748	0.000836	0.001492				44.031683	-88.218673	-167.815233
01044	16725862	9.815251	0.204847	0.193391				-0.004574	0.000794	0.003167				43.996077	-88.220075	-167.778959
01045	16725912	9.814402	0.195958	0.196002				-0.007116	-0.000391	-0.000399				43.999164	-88.220079	-167.784089
01046	16725962	9.831026	0.184632	0.187098				-0.004193	-0.000437	-0.000378				43.995339	-88.220762	-167.779397
01047	16726012	9.829846	0.194065	0.203755				-0.002337	-0.005543	0.000969				44.023886	-88.221806	-167.808492
01048	16726062	9.821369	0.189872	0.196978				-0.002267	-0.000504	-0.001313				44.027092	-88.222514	-167.810357
01049	16726112	9.825625	0.184653	0.212581				-0.005292	0.002167	0.000413				44.008968	-88.222315	-167.793816
01050	16726162	9.792055	0.208895	0.202015				-0.003913	0.004034	-0.000348				43.976280	-88.222146	-167.760183
01051	16726212	9.839263	0.203000	0.202604				-0.004168	0.000791	-0.001171				43.978072	-88.221543	-167.763064
01052	16726262	9.818836	0.196521	0.208953				-0.007649	-0.000663	-0.001586				43.982557	-88.222351	-167.767823
01053	16726312	9.818215	0.207386	0.209851				-0.001845	-0.002790	0.000247				43.998550	-88.222688	-167.784210
01054	16726362	9.826389	0.185127	0.204415				-0.006165	0.002047	-0.003853				44.001069	-88.222270	-167.786486
01055	16726412	9.814734	0.190338	0.191453				-0.005084	-0.002652	-0.000162				44.017688	-88.222516	-167.804433
01056	16726462	9.823575	0.199218	0.207539				-0.000079	0.002256	-0.001333				44.004045	-88.222852	-167.788920
01057	16726512	9.803535	0.197087	0.217463				-0.002623	0.001957	0.001079				43.983436	-88.222843	-167.769142
01058	16726562	9.811647	0.194174	0.220452				0.000321	-0.001492	-0.002571				44.002374	-88.222934	-167.785742
01059	16726612	9.818572	0.184822	0.198166				-0.004057	-0.001565	-0.000124				44.012050	-88.223391	-167.796665
01060	16726662	9.808304	0.205551	0.199180				-0.004683	-0.000156	-0.001014				44.010477	-88.224044	-167.794427
01061	16726712	9.831392	0.206037	0.200327				-0.000709	0.002855	-0.002296				44.007192	-88.222992	-167.791346
01062	16726762	9.829443	0.197892	0.222809				-0.000694	-0.001769	-0.002253				44.025406	-88.223708	-167.807739
01063	16726812	9.828488	0.197664	0.186013				-0.003098	0.003724	0.000829				43.995229	-88.222896	-167.778331
01064	16726862	9.811167	0.210226	0.189138				-0.003069	0.001489	-0.001456				43.986408	-88.223259	-167.768438
01065	16726912	9.821754	0.212678	0.205684				0.000527	0.001461	0.000842				43.971550	-88.223258	-167.753488
01066	16726962	9.834356	0.197090	0.201147				-0.003175	-0.001360	-0.001827				43.983474	-88.223902	-167.764241
01067	16727012	9.815950	0.197809	0.211623				-0.006202	-0.000760	-0.000498				43.989833	-88.223949	-167.772377
01068	16727062	9.810198	0.219270	0.211943				-0.005874	0.002548	0.002567				43.946952	-88.224458	-167.728984
01069	16727112	9.829375	0.190684	0.211302				-0.002971	0.000364	-0.000533				43.947306	-88.224182	-167.730146
01070	16727162	9.826474	0.181577	0.197932				-0.008146	0.002047	-0.001442				43.933238	-88.224618	-167.716552
01071	16727212	9.808544	0.209244	0.191805				-0.005196	0.001973	-0.000487				43.922331	-88.224190	-167.707168
01072	16727262	9.804759	0.178774	0.210450				-0.004406	-0.000793	-0.000247				43.919942	-88.224679	-167.703810
01073	16727312	9.815637	0.192360	0.194573				-0.001155	-0.002284	0.000604				43.930225	-88.225243	-167.714413
01074	16727362	9.822779	0.188989	0.202691				-0.003256	0.000521	0.001231				43.909851	-88.226254	-167.692964
01075	16727412	9.820056	0.197968	0.201027				-0.000108	0.000315	0.001280				43.899115	-88.226571	-167.682315
01076	16727462	9.815398	0.199173	0.219954				-0.005787	-0.001691	-0.000153				43.901183	-88.227683	-167.684020
01077	16727512	9.809302	0.198256	0.206359				-0.001758	-0.002590	-0.000229				43.919030	-88.228008	-167.702297
01078	16727562	9.831092	0.193523	0.197386				-0.006134	0.000372	0.000371				43.904607	-88.228622	-167.687533
01079	16727612	9.822897	0.196427	0.207744				-0.002196	-0.001957	-0.003345				43.938997	-88.228177	-167.722476
01080	16727662	9.820119	0.214007	0.197007				-0.006025	0.002960	0.000064				43.909684	-88.228535	-167.692937
01081	16727712	9.817585	0.208585	0.194029				-0.005661	-0.002823	-0.002275				43.941375	-88.228681	-167.726268
01082	16727762	9.815314	0.202204	0.187421				-0.002651	-0.000403	0.001676				43.923751	-88.229901	-167.707417
01083	16727812	9.823423	0.193947	0.204948				-0.000880	0.003573	0.001244				43.892120	-88.229347	-167.675989
01084	16727862	9.824024	0.204356	0.201838				-0.005007	0.005043	-0.002043				43.864406	-88.228300	-167.647505
