// General information: 
//  MT Manager version: 2022.0.0 
//  XDA version: 2022.0.0 build 7085 rev 119802 built on 2022-11-08
// Device information: 
//  DeviceId: 037004D1
//  ProductCode: MTi-300-2A5G4
//  Firmware Version: 1.4.1
//  Hardware Version: 2.1.0
// Device settings: 
//  Filter Profile: general(39.16)
//  Option Flags: Orientation Smoother Disabled, Position/Velocity Smoother Disabled, Continuous Zero Rotation Update Disabled, AHS Disabled, ICC Disabled
// Coordinate system: ENU
PacketCounter	SampleTimeFine	Acc_X	Acc_Y	Acc_Z	AccHR_X	AccHR_Y	AccHR_Z	Gyr_X	Gyr_Y	Gyr_Z	GyrHR_X	GyrHR_Y	GyrHR_Z	Roll	Pitch	Yaw
00001	1453474	-0.170860	-0.118687	9.785948				-0.007497	0.003827	0.003498				-0.471309	1.207846	-41.102741
00002	1453524	-0.192129	-0.102396	9.806423				-0.008991	0.002080	0.002176				-0.473872	1.208447	-41.102123
00003	1453574	-0.195265	-0.123749	9.794708				-0.002109	-0.000160	-0.002663				-0.472421	1.208115	-41.102113
00004	1453624	-0.208406	-0.110148	9.805079				-0.005424	0.000557	-0.002010				-0.473987	1.208270	-41.102691
00005	1453674	-0.191235	-0.116328	9.785332				-0.006339	-0.001175	-0.002594				-0.473748	1.207647	-41.102668
00006	1453724	-0.203839	-0.108653	9.795700				-0.001989	0.001097	-0.003134				-0.474336	1.207954	-41.103564
00007	1453774	-0.180358	-0.120473	9.794147				-0.003848	0.000525	0.001799				-0.473358	1.207828	-41.102277
00008	1453824	-0.192969	-0.113182	9.801404				-0.003543	0.003687	-0.003571				-0.474395	1.208876	-41.103316
00009	1453874	-0.206391	-0.115900	9.810566				-0.006949	-0.002126	-0.002821				-0.474331	1.207981	-41.103346
00010	1453924	-0.194593	-0.116498	9.803801				-0.002474	0.002585	-0.000049				-0.475040	1.208721	-41.103367
00011	1453974	-0.194705	-0.116534	9.788946				-0.003801	0.001811	-0.001816				-0.474069	1.208956	-41.103101
00012	1454024	-0.195333	-0.105990	9.810519				-0.004272	-0.001325	0.001764				-0.475282	1.208581	-41.102591
00013	1454074	-0.176459	-0.114269	9.796284				-0.002976	0.002414	0.001197				-0.474058	1.208995	-41.101489
00014	1454124	-0.172664	-0.115887	9.780926				-0.002590	-0.003081	-0.000597				-0.474804	1.208111	-41.101659
00015	1454174	-0.181328	-0.118859	9.797510				-0.002851	-0.000889	-0.002124				-0.473563	1.207572	-41.101491
00016	1454224	-0.168630	-0.113846	9.812295				-0.006629	0.000147	-0.000565				-0.475465	1.207612	-41.101654
00017	1454274	-0.177439	-0.120430	9.797006				-0.002057	-0.003716	0.000041				-0.473984	1.206268	-41.100854
00018	1454324	-0.190311	-0.094128	9.803057				-0.001732	0.003501	-0.000112				-0.474481	1.207271	-41.100892
00019	1454374	-0.197057	-0.108746	9.778654				-0.002445	0.000344	-0.003336				-0.473132	1.207081	-41.101093
00020	1454424	-0.173763	-0.131009	9.784769				-0.005399	0.000687	-0.000601				-0.474682	1.207276	-41.101272
00021	1454474	-0.170605	-0.116691	9.784272				-0.004046	0.000747	0.002765				-0.473755	1.207217	-41.099709
00022	1454524	-0.178489	-0.101602	9.815463				-0.006657	-0.002118	-0.001572				-0.475671	1.206606	-41.100155
00023	1454574	-0.186928	-0.113514	9.791786				-0.006224	0.002741	-0.000650				-0.475389	1.207111	-41.099574
00024	1454624	-0.193796	-0.097219	9.805230				-0.007661	-0.001716	-0.001663				-0.477593	1.206615	-41.100041
00025	1454674	-0.197515	-0.109598	9.800216				-0.002075	0.003370	0.002327				-0.476104	1.207306	-41.098617
00026	1454724	-0.200621	-0.107013	9.810300				-0.004403	0.000536	-0.002592				-0.477381	1.207453	-41.099355
00027	1454774	-0.189119	-0.105303	9.819349				-0.002266	-0.004336	-0.001310				-0.475969	1.205928	-41.098955
00028	1454824	-0.189799	-0.109321	9.798505				-0.003532	-0.000536	0.000387				-0.476978	1.205776	-41.098842
00029	1454874	-0.210546	-0.111216	9.799571				-0.002947	0.000342	0.000196				-0.475751	1.205595	-41.098014
00030	1454924	-0.195692	-0.113477	9.818911				-0.003847	0.003363	-0.001262				-0.476861	1.206555	-41.098387
00031	1454974	-0.194479	-0.105122	9.812906				-0.006197	0.000704	-0.001977				-0.476579	1.206473	-41.098169
00032	1455024	-0.189806	-0.117673	9.804504				-0.003730	0.002819	0.000309				-0.477646	1.207281	-41.098083
00033	1455074	-0.179999	-0.111258	9.799417				-0.003873	-0.000068	-0.001761				-0.476696	1.206978	-41.097822
00034	1455124	-0.185321	-0.101196	9.786502				-0.002072	0.001742	-0.003168				-0.477309	1.207469	-41.098731
00035	1455174	-0.189558	-0.106197	9.786754				-0.002735	-0.000426	-0.000420				-0.476026	1.207067	-41.098079
00036	1455224	-0.188735	-0.107889	9.789392				-0.000548	-0.002815	-0.000533				-0.476186	1.206259	-41.098221
00037	1455274	-0.175193	-0.117235	9.792439				-0.000265	0.001612	-0.001312				-0.474201	1.206439	-41.097808
00038	1455324	-0.175231	-0.126566	9.792687				-0.004474	-0.001334	-0.001032				-0.475489	1.206054	-41.098101
00039	1455374	-0.179281	-0.118037	9.803489				-0.004815	0.000405	-0.002272				-0.474813	1.205885	-41.097985
00040	1455424	-0.166397	-0.121586	9.798872				-0.003320	0.004185	0.000950				-0.475758	1.207086	-41.097724
00041	1455474	-0.172254	-0.124968	9.803216				-0.002699	0.001442	-0.001404				-0.474470	1.207217	-41.097372
00042	1455524	-0.188838	-0.111425	9.792994				-0.007547	0.002275	0.003137				-0.476613	1.207876	-41.096478
00043	1455574	-0.175490	-0.108498	9.793396				-0.003908	-0.000774	-0.000452				-0.475666	1.207374	-41.095821
00044	1455624	-0.194533	-0.102855	9.809792				-0.002654	0.003060	-0.002357				-0.476441	1.208245	-41.096495
00045	1455674	-0.197108	-0.113427	9.799265				-0.003617	-0.000800	0.000577				-0.475405	1.207737	-41.095578
00046	1455724	-0.188808	-0.120831	9.808805				-0.003666	0.001753	-0.000246				-0.476457	1.208238	-41.095643
00047	1455774	-0.194283	-0.116976	9.799730				-0.006011	0.002772	-0.003182				-0.476129	1.208745	-41.095793
00048	1455824	-0.188991	-0.124404	9.809053				-0.003967	0.000970	-0.001821				-0.477277	1.209019	-41.096314
00049	1455874	-0.206175	-0.110648	9.800026				-0.002353	-0.001524	-0.000969				-0.475888	1.208300	-41.095818
00050	1455924	-0.197219	-0.114803	9.813397				-0.000062	0.000134	-0.001514				-0.475915	1.208335	-41.096257
00051	1455974	-0.175558	-0.127655	9.810181				-0.006950	-0.000954	-0.000863				-0.475843	1.207780	-41.095726
00052	1456024	-0.194242	-0.121050	9.799485				-0.006255	0.001345	-0.002164				-0.477648	1.208160	-41.096352
00053	1456074	-0.194835	-0.126673	9.801168				-0.002718	-0.000146	-0.003595				-0.476381	1.207830	-41.096610
00054	1456124	-0.175560	-0.117273	9.785254				-0.004911	-0.000799	-0.003237				-0.477807	1.207593	-41.097539
00055	1456174	-0.186628	-0.131381	9.802573				-0.003614	-0.002327	-0.003413				-0.476794	1.206639	-41.097722
00056	1456224	-0.187027	-0.117827	9.782681				-0.005274	0.001852	-0.001011				-0.478311	1.207167	-41.098010
00057	1456274	-0.182866	-0.100299	9.777373				-0.002370	-0.001080	-0.004049				-0.476946	1.206569	-41.098404
00058	1456324	-0.185834	-0.107703	9.786739				-0.004305	-0.002395	0.000377				-0.478177	1.205884	-41.098288
00059	1456374	-0.180746	-0.117860	9.789356				-0.004694	-0.002240	0.001114				-0.477447	1.204966	-41.097198
00060	1456424	-0.168823	-0.130005	9.802476				-0.005133	-0.000665	-0.000351				-0.478919	1.204774	-41.097305
00061	1456474	-0.176171	-0.116548	9.797244				-0.006939	0.002049	0.000695				-0.478837	1.205083	-41.096339
00062	1456524	-0.173983	-0.104747	9.807292				-0.005679	0.001555	-0.000146				-0.480465	1.205529	-41.096381
00063	1456574	-0.171661	-0.120420	9.790511				-0.000744	-0.000622	0.000183				-0.478609	1.205071	-41.095560
00064	1456624	-0.184762	-0.103928	9.811899				-0.002676	0.002702	-0.002743				-0.479392	1.205839	-41.096357
00065	1456674	-0.168894	-0.102761	9.799836				-0.007062	-0.000704	-0.003875				-0.479371	1.205348	-41.096711
00066	1456724	-0.175714	-0.120946	9.821924				-0.006615	0.000500	-0.003260				-0.481286	1.205483	-41.097643
00067	1456774	-0.196925	-0.105125	9.786079				-0.002623	0.000088	-0.000937				-0.479976	1.205227	-41.097148
00068	1456824	-0.208314	-0.124156	9.780865				-0.001435	0.000018	0.000443				-0.480384	1.205233	-41.097016
00069	1456874	-0.183994	-0.115243	9.796560				-0.000439	-0.000004	-0.000131				-0.478444	1.204952	-41.096290
00070	1456924	-0.199554	-0.119303	9.818688				0.001221	0.000092	-0.000908				-0.478099	1.204976	-41.096547
00071	1456974	-0.202357	-0.120677	9.808877				-0.000823	-0.000070	-0.000007				-0.476268	1.204676	-41.095780
00072	1457024	-0.202123	-0.128740	9.778680				-0.001857	0.002173	-0.001211				-0.476807	1.205296	-41.096132
00073	1457074	-0.191315	-0.122666	9.793242				-0.000472	0.002002	-0.001822				-0.474887	1.205585	-41.095897
00074	1457124	-0.214656	-0.109519	9.815405				-0.000753	-0.000297	-0.001516				-0.475112	1.205497	-41.096335
00075	1457174	-0.173303	-0.131854	9.799626				-0.001717	-0.000991	0.002299				-0.473523	1.204939	-41.094913
00076	1457224	-0.190936	-0.110066	9.791805				-0.002404	-0.000548	0.001568				-0.474202	1.204786	-41.094459
00077	1457274	-0.191730	-0.111081	9.806664				-0.003584	0.000367	0.000933				-0.473157	1.204614	-41.093429
00078	1457324	-0.174710	-0.125059	9.809457				-0.007710	0.000903	-0.001011				-0.475372	1.204871	-41.093718
00079	1457374	-0.172412	-0.112076	9.795303				-0.004583	0.003150	-0.003158				-0.474638	1.205486	-41.093867
00080	1457424	-0.194678	-0.097954	9.796374				-0.004119	0.000034	0.000805				-0.475813	1.205497	-41.093635
00081	1457474	-0.190281	-0.108931	9.803783				-0.005314	-0.000998	-0.002728				-0.475286	1.204925	-41.093644
00082	1457524	-0.187049	-0.121782	9.795385				-0.003649	0.003006	-0.003990				-0.476355	1.205777	-41.094784
00083	1457574	-0.174984	-0.115566	9.804660				-0.001214	-0.000118	-0.003695				-0.474659	1.205455	-41.095053
00084	1457624	-0.173681	-0.109506	9.777577				-0.004392	-0.001013	-0.002888				-0.475935	1.205158	-41.095885
00085	1457674	-0.207918	-0.098822	9.811295				-0.003903	0.001969	-0.003223				-0.475007	1.205435	-41.096043
00086	1457724	-0.187897	-0.115986	9.805201				-0.002339	0.001960	-0.004737				-0.475706	1.205985	-41.097408
00087	1457774	-0.200371	-0.110244	9.781546				-0.000268	0.000611	-0.001703				-0.473728	1.205877	-41.097138
00088	1457824	-0.188160	-0.109302	9.810242				-0.006035	-0.001592	-0.002120				-0.475470	1.205415	-41.097746
00089	1457874	-0.200204	-0.117418	9.803833				0.001407	0.000522	0.001210				-0.472994	1.205289	-41.096594
00090	1457924	-0.199462	-0.133148	9.797357				-0.003672	-0.000990	0.001763				-0.474035	1.205009	-41.096082
00091	1457974	-0.183307	-0.116787	9.799192				-0.002757	0.002316	-0.000504				-0.472762	1.205392	-41.095441
00092	1458024	-0.197661	-0.136037	9.803341				-0.003517	0.001812	-0.003646				-0.473791	1.205903	-41.096484
00093	1458074	-0.210603	-0.105720	9.799333				-0.002060	0.000782	0.001223				-0.472309	1.205850	-41.095374
00094	1458124	-0.205470	-0.104794	9.818475				-0.003144	0.000600	0.000037				-0.473210	1.206022	-41.095360
00095	1458174	-0.191299	-0.115925	9.795158				-0.005747	-0.001588	-0.002246				-0.472805	1.205283	-41.095247
00096	1458224	-0.197237	-0.114507	9.806937				-0.004972	-0.005738	0.000618				-0.474225	1.203641	-41.095053
00097	1458274	-0.199202	-0.106797	9.811256				-0.005843	0.000316	-0.003584				-0.473855	1.203444	-41.095296
00098	1458324	-0.196894	-0.113029	9.802855				-0.005005	-0.001769	-0.003469				-0.475310	1.202929	-41.096285
00099	1458374	-0.179436	-0.121249	9.799412				-0.002374	0.001387	-0.000059				-0.473925	1.203047	-41.095550
00100	1458424	-0.192331	-0.120275	9.803069				-0.001521	0.000784	-0.001025				-0.474367	1.203269	-41.095852
00101	1458474	-0.171844	-0.127702	9.806566				-0.004861	0.003057	-0.000460				-0.473698	1.203865	-41.095209
00102	1458524	-0.175153	-0.116406	9.794124				-0.003576	0.000583	-0.003975				-0.474747	1.204023	-41.096358
00103	1458574	-0.196809	-0.117298	9.787041				-0.005601	-0.000031	-0.002401				-0.474300	1.203729	-41.096256
00104	1458624	-0.192877	-0.091368	9.800194				-0.006874	-0.001152	-0.000732				-0.476274	1.203398	-41.096461
00105	1458674	-0.167738	-0.114328	9.788091				-0.004386	-0.000077	-0.002982				-0.475484	1.203090	-41.096540
00106	1458724	-0.189117	-0.125028	9.790597				-0.003475	0.000720	-0.000477				-0.476482	1.203295	-41.096680
00107	1458774	-0.192371	-0.113009	9.808103				-0.003125	-0.001309	-0.000423				-0.475315	1.202640	-41.096023
00108	1458824	-0.194909	-0.101226	9.798524				0.000100	0.000402	0.002211				-0.475273	1.202760	-41.095387
00109	1458874	-0.190562	-0.126608	9.802346				-0.001813	-0.000057	0.000315				-0.473725	1.202466	-41.094556
00110	1458924	-0.180742	-0.119753	9.818831				-0.004039	0.000455	0.000229				-0.474881	1.202597	-41.094492
00111	1458974	-0.189654	-0.120527	9.787004				-0.004294	0.002158	-0.002487				-0.474061	1.202931	-41.094440
00112	1459024	-0.203796	-0.115232	9.804090				-0.003970	-0.000840	-0.000096				-0.475199	1.202690	-41.094470
00113	1459074	-0.214251	-0.117517	9.805581				-0.002991	-0.001463	-0.000038				-0.473992	1.201992	-41.093719
00114	1459124	-0.212646	-0.109578	9.798859				-0.003620	0.001039	-0.002078				-0.475042	1.202284	-41.094321
00115	1459174	-0.194078	-0.100031	9.799721				-0.002512	-0.003694	-0.002006				-0.473708	1.200943	-41.094117
00116	1459224	-0.196675	-0.112744	9.800700				-0.004347	0.000062	0.001220				-0.474947	1.200964	-41.093767
00117	1459274	-0.174351	-0.118364	9.785731				-0.002971	-0.000279	-0.002985				-0.473751	1.200598	-41.093852
00118	1459324	-0.196593	-0.106114	9.808116				-0.000980	0.000732	-0.002339				-0.474046	1.200802	-41.094526
00119	1459374	-0.175471	-0.130108	9.794365				-0.003117	-0.000731	-0.001097				-0.472882	1.200312	-41.094065
00120	1459424	-0.180016	-0.116949	9.798217				-0.001710	0.001529	-0.001115				-0.473379	1.200747	-41.094396
00121	1459474	-0.178496	-0.107774	9.815225				-0.004967	0.001673	0.003318				-0.472718	1.200956	-41.092674
00122	1459524	-0.175612	-0.119684	9.808024				-0.004869	-0.002056	-0.002220				-0.474126	1.200362	-41.093301
00123	1459574	-0.183884	-0.095364	9.812854				-0.002766	0.001601	-0.002047				-0.472868	1.200537	-41.093111
00124	1459624	-0.197031	-0.095767	9.799500				-0.002027	-0.001849	-0.003505				-0.473470	1.199998	-41.094112
00125	1459674	-0.186524	-0.120655	9.787706				-0.002249	0.001089	-0.005128				-0.472081	1.200020	-41.094793
00126	1459724	-0.168781	-0.126104	9.783541				-0.003216	-0.000405	0.000216				-0.473001	1.199904	-41.094733
00127	1459774	-0.177770	-0.110212	9.791977				-0.003709	-0.000865	0.001732				-0.471989	1.199382	-41.093456
00128	1459824	-0.186482	-0.122650	9.803287				-0.004923	-0.000914	0.003050				-0.473381	1.199127	-41.092589
00129	1459874	-0.200441	-0.129933	9.809159				-0.003865	0.001395	0.001617				-0.472417	1.199252	-41.091344
00130	1459924	-0.164171	-0.140522	9.804700				-0.006405	0.001341	-0.000688				-0.474256	1.199634	-41.091546
00131	1459974	-0.193360	-0.109402	9.811306				-0.004337	0.000825	-0.001464				-0.473444	1.199589	-41.091190
00132	1460024	-0.198680	-0.101293	9.806059				-0.002322	0.000895	-0.002075				-0.474121	1.199840	-41.091787
00133	1460074	-0.202313	-0.126671	9.802967				-0.001809	-0.002997	0.001755				-0.472567	1.198707	-41.090520
00134	1460124	-0.195030	-0.119606	9.795506				-0.005703	0.000452	-0.000177				-0.474201	1.198836	-41.090572
00135	1460174	-0.183380	-0.129058	9.820364				-0.003722	-0.001688	-0.004109				-0.473230	1.198064	-41.090960
00136	1460224	-0.194951	-0.133457	9.801495				-0.004499	0.002093	0.000502				-0.474516	1.198665	-41.090817
00137	1460274	-0.195000	-0.120220	9.792386				-0.001495	0.000071	-0.002656				-0.472899	1.198401	-41.090830
00138	1460324	-0.199568	-0.111461	9.785460				-0.005454	-0.002126	0.001960				-0.474449	1.197796	-41.090262
00139	1460374	-0.185219	-0.114180	9.804796				-0.002734	0.003056	-0.000428				-0.473172	1.198393	-41.089623
00140	1460424	-0.192146	-0.097904	9.819206				-0.005362	0.001745	-0.003890				-0.474732	1.198884	-41.090740
00141	1460474	-0.186568	-0.126852	9.804331				-0.008430	-0.002869	-0.003908				-0.475107	1.197774	-41.091091
00142	1460524	-0.183703	-0.115212	9.784417				-0.004367	0.002931	-0.000878				-0.476364	1.198612	-41.091348
00143	1460574	-0.175731	-0.112248	9.779346				-0.003986	-0.000131	0.000520				-0.475441	1.198297	-41.090411
00144	1460624	-0.175550	-0.110352	9.791328				-0.005848	-0.000270	-0.002556				-0.477131	1.198214	-41.091136
00145	1460674	-0.180600	-0.115015	9.802382				-0.002743	0.000308	0.000612				-0.475851	1.198026	-41.090191
00146	1460724	-0.196291	-0.116979	9.808444				-0.004166	-0.001296	0.001351				-0.477037	1.197657	-41.089804
00147	1460774	-0.179293	-0.114829	9.787988				-0.003628	-0.001392	-0.001992				-0.476025	1.196976	-41.089605
00148	1460824	-0.195869	-0.119972	9.777533				-0.001388	-0.000014	0.002118				-0.476410	1.196977	-41.089001
00149	1460874	-0.188335	-0.125948	9.795952				-0.004119	0.000796	-0.003357				-0.475549	1.196919	-41.089175
00150	1460924	-0.194473	-0.104393	9.792859				-0.005209	-0.000125	-0.002778				-0.477058	1.196876	-41.089971
00151	1460974	-0.193258	-0.117806	9.818256				-0.004627	-0.000148	-0.002397				-0.476335	1.196550	-41.089875
00152	1461024	-0.194469	-0.121819	9.782561				-0.005277	0.000099	-0.001784				-0.477858	1.196575	-41.090384
00153	1461074	-0.191524	-0.118165	9.795486				-0.004839	0.003500	-0.003178				-0.477202	1.197291	-41.090552
00154	1461124	-0.192899	-0.105958	9.803635				-0.004826	-0.000153	-0.004001				-0.478609	1.197238	-41.091699
00155	1461174	-0.201943	-0.106750	9.805126				-0.002267	0.000414	-0.000122				-0.477197	1.197078	-41.090951
00156	1461224	-0.201382	-0.119962	9.787620				0.000841	-0.002927	-0.002460				-0.476971	1.196234	-41.091648
00157	1461274	-0.205044	-0.125324	9.785487				-0.003362	-0.003009	-0.004470				-0.475900	1.195083	-41.092164
00158	1461324	-0.192383	-0.124060	9.808187				-0.005065	-0.001676	-0.003237				-0.477370	1.194596	-41.093094
00159	1461374	-0.200237	-0.098676	9.808218				-0.000676	0.002868	0.000498				-0.475499	1.195141	-41.092171
00160	1461424	-0.199467	-0.098257	9.807501				-0.003734	0.001162	-0.001013				-0.476575	1.195471	-41.092460
00161	1461474	-0.186034	-0.116959	9.789229				-0.002309	0.001407	-0.003938				-0.475200	1.195587	-41.092837
00162	1461524	-0.170668	-0.120230	9.809752				-0.003165	0.002635	0.001077				-0.476100	1.196345	-41.092537
00163	1461574	-0.191452	-0.108544	9.803155				-0.004911	0.000590	-0.002647				-0.475462	1.196229	-41.092538
00164	1461624	-0.184421	-0.118947	9.795447				-0.000604	0.004483	-0.001549				-0.475645	1.197510	-41.092984
00165	1461674	-0.191695	-0.118973	9.803873				-0.004427	-0.001171	0.001611				-0.474843	1.196901	-41.091745
00166	1461724	-0.184387	-0.111613	9.792333				-0.005173	-0.001226	-0.002562				-0.476340	1.196543	-41.092470
00167	1461774	-0.183630	-0.133744	9.793055				-0.006777	-0.000252	-0.002105				-0.476234	1.196188	-41.092310
00168	1461824	-0.179099	-0.117229	9.793509				-0.004151	0.001089	-0.000726				-0.477428	1.196498	-41.092519
00169	1461874	-0.170972	-0.124193	9.804492				-0.004333	-0.001304	-0.000772				-0.476614	1.195845	-41.091964
00170	1461924	-0.203048	-0.104006	9.791224				-0.003313	0.001884	-0.000814				-0.477568	1.196383	-41.092203
00171	1461974	-0.194045	-0.107726	9.808200				-0.005917	-0.001041	-0.002044				-0.477215	1.195802	-41.092015
00172	1462024	-0.201907	-0.109136	9.802727				-0.004430	0.000599	-0.003418				-0.478504	1.195965	-41.092993
00173	1462074	-0.186034	-0.137758	9.800492				-0.001245	0.001073	-0.004551				-0.476827	1.195984	-41.093566
00174	1462124	-0.186824	-0.123299	9.803845				-0.005211	0.004439	0.000904				-0.478315	1.197258	-41.093319
00175	1462174	-0.183545	-0.127946	9.800955				-0.008374	-0.001153	-0.001562				-0.478662	1.196646	-41.092985
00176	1462224	-0.198986	-0.126889	9.784983				-0.005621	0.002871	-0.003757				-0.480295	1.197460	-41.094064
00177	1462274	-0.179727	-0.120054	9.792784				-0.002129	-0.003143	-0.001106				-0.478851	1.196279	-41.093606
00178	1462324	-0.197099	-0.093179	9.802459				-0.004717	-0.000244	-0.002140				-0.480215	1.196204	-41.094215
00179	1462374	-0.189911	-0.099202	9.800744				0.000130	0.002594	-0.000855				-0.478123	1.196667	-41.093689
00180	1462424	-0.196168	-0.126283	9.798143				-0.002529	0.000641	0.001775				-0.478837	1.196855	-41.093187
00181	1462474	-0.195348	-0.115848	9.799095				-0.002129	-0.001397	-0.002697				-0.477404	1.196171	-41.093174
00182	1462524	-0.169648	-0.127257	9.788669				-0.004540	0.000211	-0.000729				-0.478709	1.196230	-41.093377
00183	1462574	-0.187306	-0.104870	9.785393				-0.004341	0.000823	-0.003931				-0.477916	1.196179	-41.093740
00184	1462624	-0.205814	-0.107264	9.807299				-0.002111	0.002482	-0.002007				-0.478533	1.196885	-41.094324
00185	1462674	-0.180302	-0.129639	9.800946				-0.000732	-0.002953	-0.002775				-0.476700	1.195756	-41.094335
00186	1462724	-0.184339	-0.131259	9.792098				-0.003672	-0.002906	-0.000362				-0.477754	1.194922	-41.094432
00187	1462774	-0.196695	-0.100971	9.796459				-0.006104	-0.000106	-0.002299				-0.477457	1.194609	-41.094328
00188	1462824	-0.165165	-0.104711	9.791511				-0.003934	0.000483	0.000133				-0.478583	1.194748	-41.094287
00189	1462874	-0.189582	-0.124165	9.798830				-0.005449	0.000389	-0.002391				-0.478100	1.194576	-41.094216
00190	1462924	-0.192943	-0.098288	9.797165				-0.005181	0.001332	-0.000973				-0.479590	1.194955	-41.094508
00191	1462974	-0.208840	-0.111722	9.794617				-0.004731	-0.000756	0.000556				-0.478883	1.194463	-41.093587
00192	1463024	-0.190825	-0.138033	9.795245				-0.002496	0.003152	-0.004729				-0.479627	1.195354	-41.094952
00193	1463074	-0.197154	-0.115504	9.786880				-0.004268	-0.000070	0.002033				-0.478777	1.195062	-41.093554
00194	1463124	-0.201764	-0.132805	9.799852				-0.002602	-0.000304	0.000167				-0.479522	1.194975	-41.093502
00195	1463174	-0.180787	-0.116554	9.811965				-0.002300	-0.002117	-0.004402				-0.478148	1.194081	-41.093981
00196	1463224	-0.202719	-0.110202	9.793140				-0.005899	-0.001393	0.000035				-0.479838	1.193682	-41.093975
00197	1463274	-0.200280	-0.122104	9.802720				-0.002047	-0.000884	-0.005203				-0.478397	1.193140	-41.094693
00198	1463324	-0.204536	-0.105615	9.802495				-0.003154	-0.000318	-0.003719				-0.479323	1.193040	-41.095760
00199	1463374	-0.180056	-0.115559	9.788475				-0.005344	0.000425	0.000270				-0.478793	1.192885	-41.094915
00200	1463424	-0.186783	-0.127785	9.793778				-0.003152	-0.002187	-0.000745				-0.479700	1.192257	-41.095123
00201	1463474	-0.176772	-0.116664	9.792530				-0.001413	0.002591	-0.001591				-0.478057	1.192718	-41.094815
00202	1463524	-0.195434	-0.111393	9.818036				-0.002041	-0.003073	-0.001714				-0.478651	1.191834	-41.095294
00203	1463574	-0.199039	-0.096095	9.804387				-0.005087	0.004236	-0.004391				-0.478077	1.192760	-41.095795
00204	1463624	-0.187177	-0.120999	9.801932				-0.001887	-0.000679	-0.002021				-0.478630	1.192560	-41.096377
00205	1463674	-0.161713	-0.129712	9.783591				-0.005581	-0.002559	-0.001320				-0.478180	1.191546	-41.095973
00206	1463724	-0.173563	-0.120562	9.779094				-0.003951	0.001806	-0.001267				-0.479320	1.192060	-41.096337
00207	1463774	-0.199396	-0.109888	9.794084				-0.002966	-0.000957	-0.001345				-0.478119	1.191506	-41.095947
00208	1463824	-0.197962	-0.105272	9.812527				-0.007201	0.000093	-0.004092				-0.480207	1.191523	-41.097116
00209	1463874	-0.177573	-0.118050	9.787505				-0.002887	-0.000834	-0.005069				-0.479005	1.190996	-41.097782
00210	1463924	-0.183781	-0.111372	9.813178				-0.001597	-0.001807	-0.002354				-0.479477	1.190473	-41.098449
00211	1463974	-0.203991	-0.112420	9.812322				-0.004570	-0.001054	-0.002979				-0.478747	1.189886	-41.098542
00212	1464024	-0.190791	-0.106764	9.813206				-0.003676	0.002290	-0.001971				-0.479812	1.190538	-41.099113
00213	1464074	-0.213812	-0.100390	9.795592				-0.004481	0.000471	-0.001106				-0.479044	1.190393	-41.098657
00214	1464124	-0.210839	-0.124038	9.788157				-0.005896	-0.001427	0.000773				-0.480728	1.189986	-41.098423
00215	1464174	-0.198729	-0.097390	9.810374				-0.006421	-0.000145	-0.001847				-0.480521	1.189664	-41.098180
00216	1464224	-0.185995	-0.110232	9.810314				-0.005524	0.002164	0.001051				-0.482097	1.190286	-41.097888
00217	1464274	-0.212852	-0.112979	9.801345				-0.002219	0.002903	-0.001071				-0.480682	1.190839	-41.097419
00218	1464324	-0.207798	-0.083455	9.796034				-0.003774	-0.002979	-0.003409				-0.481784	1.189977	-41.098392
00219	1464374	-0.197512	-0.115957	9.805098				-0.003634	-0.001191	-0.000414				-0.480770	1.189358	-41.097734
00220	1464424	-0.194165	-0.106368	9.787588				-0.002574	-0.002311	-0.001868				-0.481518	1.188692	-41.098270
00221	1464474	-0.186282	-0.126395	9.809836				-0.005405	0.002101	-0.002190				-0.481022	1.189012	-41.098122
00222	1464524	-0.192457	-0.111061	9.780637				-0.006118	0.001641	-0.000039				-0.482775	1.189482	-41.098127
00223	1464574	-0.185997	-0.121073	9.793058				-0.002728	0.000732	-0.000700				-0.481503	1.189414	-41.097560
00224	1464624	-0.190142	-0.128556	9.799305				-0.001308	-0.000892	-0.001737				-0.481888	1.189154	-41.098061
00225	1464674	-0.193799	-0.105927	9.787343				-0.005564	0.003998	-0.005005				-0.481454	1.190011	-41.098727
00226	1464724	-0.179798	-0.123821	9.789195				-0.003174	0.002728	0.000371				-0.482361	1.190793	-41.098628
00227	1464774	-0.194602	-0.115586	9.794295				-0.004983	0.000047	0.000558				-0.481728	1.190532	-41.097656
00228	1464824	-0.199411	-0.112380	9.800317				-0.003546	-0.001068	-0.001760				-0.482755	1.190222	-41.098164
00229	1464874	-0.181858	-0.113518	9.784888				-0.000697	-0.003318	-0.005022				-0.480926	1.188983	-41.098837
00230	1464924	-0.184920	-0.107860	9.798327				-0.002594	-0.000727	-0.002821				-0.481686	1.188768	-41.099646
00231	1464974	-0.157667	-0.122554	9.804897				-0.002501	-0.000630	-0.003114				-0.480363	1.188304	-41.099769
00232	1465024	-0.189130	-0.109489	9.777977				-0.001296	0.001945	-0.001723				-0.480745	1.188857	-41.100274
00233	1465074	-0.187916	-0.122644	9.797381				-0.002634	0.003064	0.000950				-0.479436	1.189461	-41.099214
00234	1465124	-0.189090	-0.101476	9.793553				-0.003669	0.001268	0.001267				-0.480480	1.189828	-41.098852
00235	1465174	-0.198620	-0.120893	9.790729				-0.000528	0.002223	0.000139				-0.478573	1.190188	-41.098054
00236	1465224	-0.214327	-0.103652	9.809018				-0.001143	-0.002088	-0.001968				-0.478912	1.189585	-41.098614
00237	1465274	-0.195104	-0.103734	9.819939				-0.000864	-0.001800	-0.003955				-0.477127	1.188784	-41.098954
00238	1465324	-0.189957	-0.121504	9.783014				-0.004675	0.001439	-0.001616				-0.478476	1.189192	-41.099415
00239	1465374	-0.198012	-0.102961	9.785451				-0.006270	-0.000920	-0.002816				-0.478233	1.188646	-41.099433
00240	1465424	-0.194173	-0.110855	9.777766				-0.006782	0.003473	0.001702				-0.480165	1.189645	-41.098955
00241	1465474	-0.191778	-0.124424	9.800756				-0.002203	-0.003658	0.001554				-0.478730	1.188325	-41.097746
00242	1465524	-0.193432	-0.108394	9.781116				-0.002732	0.000725	-0.002491				-0.479527	1.188526	-41.098464
00243	1465574	-0.179290	-0.133015	9.785601				-0.003909	-0.000586	-0.000510				-0.478594	1.188081	-41.097833
00244	1465624	-0.204861	-0.102393	9.809687				-0.005278	-0.001004	-0.004486				-0.480132	1.187783	-41.099111
00245	1465674	-0.179580	-0.125849	9.814605				-0.003061	-0.000153	-0.002369				-0.478967	1.187458	-41.099028
00246	1465724	-0.180566	-0.131507	9.798310				-0.002538	-0.002668	-0.004726				-0.479722	1.186682	-41.100381
00247	1465774	-0.181464	-0.132945	9.785132				-0.000567	0.001150	-0.001248				-0.477835	1.186733	-41.099956
00248	1465824	-0.191661	-0.114618	9.813696				-0.005028	-0.000438	0.001388				-0.479267	1.186610	-41.099557
00249	1465874	-0.195597	-0.095652	9.800044				-0.003850	-0.001160	0.001255				-0.478306	1.186006	-41.098393
00250	1465924	-0.183006	-0.123658	9.789928				-0.003947	-0.000390	-0.000864				-0.479441	1.185892	-41.098636
00251	1465974	-0.182446	-0.112880	9.782255				-0.005515	0.001615	-0.001586				-0.478975	1.186075	-41.098337
00252	1466024	-0.191982	-0.113819	9.790932				-0.005957	-0.001687	-0.001217				-0.480689	1.185588	-41.098678
00253	1466074	-0.208849	-0.122571	9.808758				-0.002953	-0.001409	-0.001571				-0.479488	1.184906	-41.098349
00254	1466124	-0.192134	-0.116419	9.789738				-0.006206	-0.000818	-0.000888				-0.481271	1.184669	-41.098601
00255	1466174	-0.190158	-0.115094	9.814407				-0.004729	-0.000986	-0.000890				-0.480576	1.184109	-41.098084
00256	1466224	-0.196549	-0.123435	9.785686				-0.001009	-0.000953	0.000799				-0.480860	1.183838	-41.097856
00257	1466274	-0.199531	-0.126268	9.798159				-0.001480	0.000524	-0.002816				-0.479245	1.183706	-41.097874
00258	1466324	-0.217881	-0.126874	9.803048				-0.003289	0.001105	-0.001430				-0.480196	1.184019	-41.098289
00259	1466374	-0.210338	-0.116216	9.805404				-0.004838	-0.001575	-0.001539				-0.479535	1.183289	-41.097985
00260	1466424	-0.199949	-0.105636	9.794330				-0.004008	-0.000324	-0.000054				-0.480684	1.183196	-41.098001
00261	1466474	-0.183397	-0.111669	9.788724				-0.002383	-0.000534	-0.004940				-0.479340	1.182755	-41.098649
00262	1466524	-0.188092	-0.113643	9.783487				-0.004295	-0.001496	0.000420				-0.480568	1.182328	-41.098524
00263	1466574	-0.183827	-0.089397	9.813410				-0.003599	-0.001358	-0.002469				-0.479558	1.181658	-41.098465
00264	1466624	-0.190058	-0.107874	9.810092				-0.003578	0.001330	0.000753				-0.480579	1.182041	-41.098250
00265	1466674	-0.181136	-0.118456	9.810294				-0.003016	0.000460	-0.003783				-0.479410	1.181888	-41.098554
00266	1466724	-0.184428	-0.124817	9.792093				-0.002608	-0.001111	-0.000612				-0.480160	1.181568	-41.098731
00267	1466774	-0.194960	-0.092859	9.810112				-0.006486	-0.002084	-0.000893				-0.479969	1.180694	-41.098198
00268	1466824	-0.169674	-0.112111	9.791532				-0.004497	0.001793	-0.002453				-0.481272	1.181202	-41.098911
00269	1466874	-0.173183	-0.121879	9.814085				-0.000559	0.000025	0.000319				-0.479376	1.180934	-41.098055
00270	1466924	-0.204602	-0.125775	9.799387				-0.006066	0.002835	-0.001192				-0.481121	1.181743	-41.098406
00271	1466974	-0.174215	-0.129969	9.788210				-0.006516	0.003926	-0.001569				-0.480942	1.182590	-41.098089
00272	1467024	-0.180909	-0.107290	9.793035				-0.004718	0.001527	-0.004181				-0.482318	1.183017	-41.099289
00273	1467074	-0.189646	-0.106044	9.795717				-0.005210	-0.003969	-0.000139				-0.481757	1.181604	-41.098542
00274	1467124	-0.193405	-0.120305	9.808199				-0.006171	-0.000212	-0.004446				-0.483551	1.181532	-41.099818
00275	1467174	-0.191266	-0.108450	9.813220				-0.006367	0.000440	-0.000241				-0.483322	1.181383	-41.099110
00276	1467224	-0.191558	-0.113551	9.810341				-0.002003	-0.002138	-0.001578				-0.483905	1.180767	-41.099555
00277	1467274	-0.192214	-0.119528	9.795485				-0.003280	0.000946	-0.000508				-0.482794	1.180761	-41.098940
00278	1467324	-0.183023	-0.116593	9.795197				-0.002898	0.003018	-0.001038				-0.483630	1.181624	-41.099237
00279	1467374	-0.207687	-0.104773	9.808262				-0.003700	0.001262	-0.000465				-0.482638	1.181709	-41.098588
00280	1467424	-0.190356	-0.121167	9.798119				-0.001478	0.003561	-0.003412				-0.483082	1.182720	-41.099579
00281	1467474	-0.192548	-0.120863	9.803404				-0.002193	0.003262	0.000536				-0.481653	1.183381	-41.098655
00282	1467524	-0.215848	-0.101023	9.819570				-0.003002	-0.001637	-0.000418				-0.482516	1.182911	-41.098774
00283	1467574	-0.194789	-0.108108	9.807244				-0.001480	0.000979	0.001256				-0.480877	1.182921	-41.097619
00284	1467624	-0.195763	-0.123103	9.807013				-0.003054	0.000655	-0.002012				-0.481764	1.183103	-41.098197
00285	1467674	-0.205097	-0.113301	9.795081				-0.002935	0.000142	-0.000638				-0.480555	1.182867	-41.097618
00286	1467724	-0.196984	-0.119858	9.793115				-0.004016	0.000704	-0.002461				-0.481720	1.183063	-41.098333
00287	1467774	-0.182090	-0.126918	9.790884				-0.002528	0.000144	-0.004712				-0.480418	1.182818	-41.098913
00288	1467824	-0.176523	-0.115248	9.803315				-0.003971	-0.001884	-0.004495				-0.481582	1.182268	-41.100194
00289	1467874	-0.186841	-0.128103	9.793787				-0.006355	0.002796	-0.001222				-0.481357	1.182791	-41.099784
00290	1467924	-0.186317	-0.113856	9.801929				-0.001913	-0.000640	0.001603				-0.481895	1.182612	-41.099328
00291	1467974	-0.179028	-0.101396	9.784390				-0.004283	-0.000722	-0.000094				-0.481069	1.182130	-41.098584
00292	1468024	-0.173904	-0.119415	9.805452				-0.000732	-0.000728	-0.001936				-0.481290	1.181917	-41.099130
00293	1468074	-0.179485	-0.109418	9.806202				-0.004665	-0.000892	-0.000864				-0.480578	1.181385	-41.098593
00294	1468124	-0.187207	-0.103292	9.792101				-0.002432	0.003251	-0.004821				-0.481303	1.182305	-41.099986
00295	1468174	-0.182883	-0.104725	9.806226				-0.005713	-0.001129	0.001546				-0.480878	1.181710	-41.098750
00296	1468224	-0.182379	-0.104548	9.799026				-0.003731	-0.000298	-0.004168				-0.481971	1.181614	-41.099940
00297	1468274	-0.199911	-0.115803	9.803915				-0.005031	0.001660	0.000921				-0.481354	1.181817	-41.098921
00298	1468324	-0.191557	-0.103876	9.810821				-0.002505	0.002572	-0.002866				-0.482089	1.182547	-41.099755
00299	1468374	-0.203881	-0.124951	9.803940				-0.007166	0.003103	-0.003271				-0.482108	1.183154	-41.099921
00300	1468424	-0.195694	-0.123915	9.799333				-0.004198	-0.001693	-0.002505				-0.483325	1.182663	-41.100634
00301	1468474	-0.192486	-0.110327	9.812500				-0.003375	0.002716	-0.003283				-0.482257	1.183159	-41.100796
00302	1468524	-0.212505	-0.112569	9.806372				-0.003407	-0.002257	-0.000866				-0.483239	1.182510	-41.101041
00303	1468574	-0.195037	-0.125259	9.797422				-0.003078	0.001732	0.001295				-0.482059	1.182735	-41.099918
00304	1468624	-0.198666	-0.107567	9.807737				-0.005823	0.001390	0.000952				-0.483722	1.183135	-41.099650
00305	1468674	-0.207274	-0.123696	9.820964				-0.004169	0.000538	-0.001560				-0.482872	1.183011	-41.099318
00306	1468724	-0.211420	-0.107674	9.803725				-0.006758	-0.000802	-0.003580				-0.484829	1.182773	-41.100348
00307	1468774	-0.170765	-0.123777	9.798018				-0.002042	0.003161	-0.003447				-0.483382	1.183396	-41.100561
00308	1468824	-0.201407	-0.097874	9.783068				-0.003343	-0.000352	-0.002209				-0.484352	1.183290	-41.101187
00309	1468874	-0.186792	-0.093626	9.791618				-0.005068	0.000886	0.001428				-0.483742	1.183273	-41.099982
00310	1468924	-0.198111	-0.121307	9.780175				-0.004439	0.002924	-0.003212				-0.485033	1.184103	-41.100907
00311	1468974	-0.177419	-0.121027	9.807159				-0.005026	-0.000897	-0.002304				-0.484434	1.183567	-41.100785
00312	1469024	-0.167460	-0.122233	9.804231				-0.004636	0.001445	0.001939				-0.485750	1.183986	-41.100233
00313	1469074	-0.201852	-0.115226	9.807992				0.001034	0.002146	-0.002751				-0.483418	1.184320	-41.100269
00314	1469124	-0.183150	-0.112040	9.793285				-0.002628	-0.001696	-0.002446				-0.484185	1.183828	-41.100965
00315	1469174	-0.185866	-0.110479	9.783951				-0.002147	0.002418	-0.002679				-0.482764	1.184240	-41.100967
00316	1469224	-0.179308	-0.105305	9.801891				-0.006168	0.000791	-0.003769				-0.484553	1.184458	-41.102042
00317	1469274	-0.165718	-0.121603	9.790323				-0.006234	0.001756	-0.004374				-0.484312	1.184676	-41.102578
00318	1469324	-0.196473	-0.100406	9.796704				-0.004688	-0.000311	-0.002813				-0.485672	1.184580	-41.103388
00319	1469374	-0.195935	-0.102761	9.782795				-0.002909	0.001173	-0.002778				-0.484468	1.184636	-41.103380
00320	1469424	-0.183957	-0.100209	9.799037				-0.000665	0.003449	-0.000305				-0.484661	1.185623	-41.103474
00321	1469474	-0.211784	-0.113229	9.798942				-0.003681	0.000191	-0.002488				-0.483677	1.185398	-41.103421
00322	1469524	-0.187693	-0.117577	9.799060				-0.000724	0.000921	-0.002885				-0.483901	1.185655	-41.104244
00323	1469574	-0.204495	-0.117582	9.810170				-0.003033	0.001373	0.000268				-0.482717	1.185775	-41.103415
00324	1469624	-0.195017	-0.116883	9.788318				-0.004091	-0.000075	-0.002590				-0.483904	1.185747	-41.104154
00325	1469674	-0.218378	-0.106391	9.780284				-0.004585	-0.000109	0.000782				-0.483159	1.185444	-41.103155
00326	1469724	-0.183489	-0.111370	9.799274				0.000162	-0.000351	0.001375				-0.483105	1.185346	-41.102765
00327	1469774	-0.202563	-0.105478	9.822854				-0.005691	0.001027	-0.002738				-0.482698	1.185361	-41.102772
00328	1469824	-0.195560	-0.101646	9.808919				-0.007629	-0.000293	0.000694				-0.484879	1.185278	-41.102576
00329	1469874	-0.193060	-0.106583	9.800761				-0.001682	-0.000158	-0.000196				-0.483309	1.184959	-41.101869
00330	1469924	-0.171360	-0.123236	9.802568				-0.005647	-0.003586	0.001621				-0.484917	1.183936	-41.101394
00331	1469974	-0.179057	-0.106399	9.784878				-0.002674	-0.004578	-0.002015				-0.483642	1.182346	-41.101182
00332	1470024	-0.184694	-0.114907	9.782265				0.000310	-0.002318	0.002223				-0.483540	1.181687	-41.100530
00333	1470074	-0.187659	-0.105343	9.800253				-0.004712	-0.000663	0.000095				-0.482837	1.181224	-41.099737
00334	1470124	-0.179644	-0.118483	9.776731				0.001638	-0.000170	-0.002679				-0.482384	1.181169	-41.100502
00335	1470174	-0.179963	-0.123675	9.799496				0.001399	-0.001267	0.001871				-0.479920	1.180537	-41.099195
00336	1470224	-0.182591	-0.120555	9.805256				-0.004762	-0.002018	0.001821				-0.481273	1.179963	-41.098667
00337	1470274	-0.193716	-0.098999	9.780875				-0.006199	-0.002438	-0.000517				-0.480999	1.178990	-41.098031
00338	1470324	-0.189750	-0.105091	9.797626				-0.003230	-0.000158	-0.001768				-0.481935	1.178940	-41.098535
00339	1470374	-0.190885	-0.118636	9.796444				-0.005822	0.003900	-0.002317				-0.481565	1.179778	-41.098427
00340	1470424	-0.187622	-0.134421	9.810327				-0.004128	0.002962	-0.003480				-0.482768	1.180618	-41.099433
00341	1470474	-0.185415	-0.114564	9.798085				-0.003102	0.000942	-0.002978				-0.481622	1.180607	-41.099520
00342	1470524	-0.183030	-0.113442	9.791606				-0.002006	0.002708	-0.003103				-0.482215	1.181375	-41.100416
00343	1470574	-0.197569	-0.122284	9.800312				-0.005007	-0.000773	-0.003526				-0.481618	1.180872	-41.100638
00344	1470624	-0.205033	-0.108237	9.804658				-0.003690	0.000583	0.001319				-0.482668	1.181042	-41.100268
00345	1470674	-0.203675	-0.109656	9.794346				-0.003222	-0.002349	-0.000043				-0.481540	1.180095	-41.099516
00346	1470724	-0.182475	-0.123882	9.781061				-0.001027	-0.000992	-0.001746				-0.481844	1.179806	-41.100012
00347	1470774	-0.195413	-0.118893	9.785196				-0.001597	0.000067	-0.000389				-0.480254	1.179551	-41.099343
00348	1470824	-0.180325	-0.119881	9.806211				-0.004791	-0.002445	-0.000622				-0.481631	1.178849	-41.099521
00349	1470874	-0.200034	-0.117139	9.820457				-0.002415	0.001668	-0.001728				-0.480281	1.179050	-41.099235
00350	1470924	-0.194087	-0.099197	9.793096				-0.005744	-0.000656	-0.003079				-0.481945	1.178854	-41.100114
00351	1470974	-0.206585	-0.103111	9.808975				-0.003388	0.002579	-0.006945				-0.480905	1.179303	-41.101335
00352	1471024	-0.182873	-0.107870	9.798314				-0.002559	0.003053	-0.002778				-0.481655	1.180171	-41.102137
00353	1471074	-0.174850	-0.114668	9.798275				-0.003732	-0.000292	-0.000516				-0.480675	1.179813	-41.101521
00354	1471124	-0.186846	-0.122889	9.782997				-0.005225	0.001464	0.000045				-0.482171	1.180232	-41.101503
00355	1471174	-0.181297	-0.110490	9.779373				-0.005621	0.002711	-0.001583				-0.481740	1.180732	-41.101208
00356	1471224	-0.202792	-0.110614	9.800569				-0.006250	0.000410	0.000012				-0.483531	1.180849	-41.101200
00357	1471274	-0.173469	-0.113683	9.810488				-0.003999	-0.000270	-0.002763				-0.482642	1.180492	-41.101235
00358	1471324	-0.171675	-0.120908	9.790828				-0.003333	-0.001938	-0.002194				-0.483610	1.179931	-41.101869
00359	1471374	-0.175347	-0.131874	9.791569				-0.002711	0.001861	-0.000736				-0.482340	1.180190	-41.101310
00360	1471424	-0.183172	-0.115815	9.789449				-0.004065	0.000224	0.002150				-0.483492	1.180259	-41.100691
00361	1471474	-0.197608	-0.119271	9.784254				-0.006683	0.000986	0.000241				-0.483354	1.180270	-41.099859
00362	1471524	-0.209150	-0.104178	9.798443				-0.003581	0.002001	-0.002266				-0.484394	1.180837	-41.100509
00363	1471574	-0.195345	-0.117230	9.793823				-0.004283	0.001631	-0.003550				-0.483591	1.181023	-41.100759
00364	1471624	-0.191050	-0.122429	9.816095				-0.002617	-0.001308	-0.001615				-0.484350	1.180644	-41.101218
00365	1471674	-0.222314	-0.123844	9.814332				-0.005969	0.003613	-0.000130				-0.484011	1.181406	-41.100494
00366	1471724	-0.194523	-0.098263	9.813705				-0.001784	0.001868	-0.003233				-0.484541	1.181933	-41.101421
00367	1471774	-0.203534	-0.111679	9.798661				-0.002345	0.002579	0.001328				-0.483156	1.182402	-41.100291
00368	1471824	-0.182265	-0.117003	9.794239				-0.002233	0.002360	0.003536				-0.483774	1.183086	-41.099276
00369	1471874	-0.185046	-0.126027	9.804079				-0.005323	0.000260	-0.001180				-0.483256	1.182885	-41.098850
00370	1471924	-0.195505	-0.126573	9.786399				-0.002264	-0.002567	-0.003163				-0.483923	1.182142	-41.099753
00371	1471974	-0.180431	-0.114361	9.790630				-0.002014	-0.003336	-0.003617				-0.482471	1.180905	-41.100004
00372	1472024	-0.180173	-0.120551	9.781766				-0.000475	0.000159	0.001464				-0.482598	1.180954	-41.099589
00373	1472074	-0.179257	-0.112636	9.798779				-0.006193	0.002440	-0.002549				-0.482338	1.181373	-41.099548
00374	1472124	-0.176651	-0.115736	9.790854				-0.001695	-0.002099	-0.000753				-0.482828	1.180770	-41.099756
00375	1472174	-0.183177	-0.122318	9.779384				-0.005960	-0.003148	-0.002354				-0.482498	1.179590	-41.099646
00376	1472224	-0.211824	-0.106315	9.780969				-0.005242	0.000977	0.000943				-0.483995	1.179872	-41.099381
00377	1472274	-0.173502	-0.115232	9.806652				-0.002690	-0.000861	-0.001770				-0.482725	1.179349	-41.099121
00378	1472324	-0.183295	-0.108878	9.798553				-0.005907	0.001442	-0.003099				-0.484436	1.179754	-41.100017
00379	1472374	-0.188983	-0.127596	9.782776				-0.004209	0.003410	-0.003383				-0.483613	1.180450	-41.100228
00380	1472424	-0.197550	-0.111079	9.794554				-0.004838	0.001074	-0.002491				-0.485013	1.180751	-41.100951
00381	1472474	-0.181720	-0.126668	9.787531				-0.002946	-0.000922	-0.000555				-0.483810	1.180213	-41.100336
00382	1472524	-0.192319	-0.106048	9.794530				-0.004219	0.000431	-0.005673				-0.485053	1.180323	-41.101960
00383	1472574	-0.207318	-0.107519	9.825521				0.000105	0.001977	-0.000960				-0.482979	1.180614	-41.101466
00384	1472624	-0.192179	-0.129999	9.781834				-0.002855	-0.000735	-0.001516				-0.483805	1.180400	-41.101897
00385	1472674	-0.212218	-0.116061	9.798702				-0.002345	-0.001592	-0.001265				-0.482435	1.179668	-41.101492
00386	1472724	-0.197738	-0.110452	9.786172				-0.003199	0.001041	-0.000700				-0.483356	1.179965	-41.101687
00387	1472774	-0.204681	-0.096420	9.805848				-0.004019	-0.001560	-0.002766				-0.482474	1.179239	-41.101700
00388	1472824	-0.206299	-0.118889	9.804667				-0.001096	-0.000830	-0.001935				-0.482799	1.178997	-41.102245
00389	1472874	-0.210523	-0.112033	9.817866				-0.002285	0.002280	-0.004962				-0.481434	1.179365	-41.102884
00390	1472924	-0.183808	-0.130801	9.809594				-0.003320	-0.000187	-0.001127				-0.482392	1.179309	-41.103208
00391	1472974	-0.191105	-0.107655	9.791644				-0.005572	-0.001103	-0.001860				-0.481950	1.178716	-41.102949
00392	1473024	-0.177401	-0.119154	9.800439				0.000361	-0.002030	0.001293				-0.481839	1.178138	-41.102574
00393	1473074	-0.181498	-0.123068	9.813890				-0.005427	-0.001719	-0.004372				-0.481371	1.177362	-41.103077
00394	1473124	-0.187759	-0.140102	9.785644				-0.006776	0.000193	-0.005542				-0.483344	1.177404	-41.104663
00395	1473174	-0.187343	-0.123756	9.788273				-0.006815	0.000851	0.000684				-0.483244	1.177377	-41.103702
00396	1473224	-0.194117	-0.122690	9.813471				-0.004329	0.001116	-0.003139				-0.484502	1.177689	-41.104598
00397	1473274	-0.198538	-0.103413	9.788565				-0.005447	0.000027	-0.003782				-0.484036	1.177416	-41.104931
00398	1473324	-0.178539	-0.110693	9.805477				-0.002632	0.000341	-0.000999				-0.484796	1.177511	-41.105215
00399	1473374	-0.186799	-0.118439	9.804325				-0.004584	0.000144	-0.001278				-0.484068	1.177277	-41.104810
00400	1473424	-0.174478	-0.115528	9.809295				-0.004391	0.001215	-0.002269				-0.485339	1.177620	-41.105459
00401	1473474	-0.177772	-0.112686	9.804527				-0.004505	-0.000345	-0.003660				-0.484603	1.177240	-41.105709
00402	1473524	-0.184557	-0.120985	9.795444				-0.006931	0.000394	-0.001175				-0.486596	1.177350	-41.106057
00403	1473574	-0.187028	-0.111422	9.787310				0.001416	0.001153	-0.000685				-0.484146	1.177406	-41.105479
00404	1473624	-0.202609	-0.124269	9.797941				-0.003971	-0.000940	-0.000259				-0.485285	1.177136	-41.105542
00405	1473674	-0.213903	-0.101693	9.799664				-0.006719	0.000816	-0.002423				-0.485176	1.177092	-41.105477
00406	1473724	-0.196026	-0.106475	9.785201				-0.007003	-0.001486	-0.003337				-0.487202	1.176658	-41.106432
00407	1473774	-0.195931	-0.112041	9.811084				-0.004967	-0.000668	-0.000162				-0.486577	1.176194	-41.105706
00408	1473824	-0.193255	-0.118204	9.802444				-0.000536	0.002769	-0.003456				-0.486751	1.176979	-41.106710
00409	1473874	-0.205057	-0.112064	9.812085				-0.009325	0.001156	-0.003347				-0.487394	1.177030	-41.106894
00410	1473924	-0.190784	-0.125853	9.817055				-0.003965	-0.000172	-0.002729				-0.488546	1.176974	-41.107676
00411	1473974	-0.211747	-0.103973	9.803728				-0.002529	0.001282	-0.000443				-0.487225	1.177069	-41.107024
00412	1474024	-0.205359	-0.114330	9.801781				-0.002614	-0.001340	-0.002382				-0.487988	1.176680	-41.107699
00413	1474074	-0.176958	-0.116170	9.792053				0.000355	-0.000094	-0.003667				-0.485860	1.176372	-41.107981
00414	1474124	-0.180886	-0.134030	9.787760				-0.003582	-0.003628	-0.005923				-0.486920	1.175318	-41.109670
00415	1474174	-0.189187	-0.108806	9.794516				-0.004122	-0.001172	-0.000424				-0.486055	1.174710	-41.109029
00416	1474224	-0.189080	-0.118877	9.794752				-0.004739	-0.001029	-0.003339				-0.487433	1.174407	-41.109978
00417	1474274	-0.181105	-0.112770	9.794470				-0.004370	0.002538	-0.002102				-0.486649	1.174857	-41.109835
00418	1474324	-0.160350	-0.129371	9.778079				-0.006919	0.002206	-0.000945				-0.488637	1.175487	-41.110107
00419	1474374	-0.160556	-0.123386	9.807071				-0.004503	0.002123	0.002481				-0.487865	1.175829	-41.108629
00420	1474424	-0.184790	-0.116062	9.800728				-0.005290	-0.000737	-0.000127				-0.489382	1.175618	-41.108666
00421	1474474	-0.195246	-0.110353	9.807727				-0.005919	0.001997	-0.000785				-0.489034	1.175916	-41.108116
00422	1474524	-0.172993	-0.134846	9.803059				-0.001981	-0.000268	-0.003925				-0.489624	1.175830	-41.109244
00423	1474574	-0.191465	-0.113867	9.791164				-0.006142	-0.001173	-0.000579				-0.489341	1.175221	-41.108637
00424	1474624	-0.185059	-0.109327	9.809587				-0.004654	0.000596	-0.000702				-0.490678	1.175390	-41.108842
00425	1474674	-0.195798	-0.125036	9.807492				-0.005136	0.000358	-0.003523				-0.490122	1.175213	-41.109082
00426	1474724	-0.195388	-0.115960	9.814672				-0.006744	-0.001612	-0.003850				-0.492076	1.174742	-41.110178
00427	1474774	-0.205021	-0.122495	9.807059				-0.002917	-0.001896	-0.001099				-0.490871	1.173924	-41.109726
00428	1474824	-0.191286	-0.118633	9.799795				-0.001766	0.000460	0.001086				-0.491371	1.174059	-41.109414
00429	1474874	-0.218782	-0.105271	9.800653				0.002095	0.000814	-0.000713				-0.488728	1.174019	-41.108840
00430	1474924	-0.210044	-0.107228	9.810914				-0.003180	-0.000472	-0.000420				-0.489642	1.173882	-41.108959
00431	1474974	-0.181687	-0.107711	9.811486				-0.001090	-0.002065	-0.003415				-0.487927	1.173011	-41.109180
00432	1475024	-0.197375	-0.129347	9.799586				0.000228	0.001938	-0.003691				-0.487883	1.173558	-41.110236
00433	1475074	-0.212171	-0.087219	9.801813				-0.006630	0.001044	-0.001778				-0.487747	1.173581	-41.109992
00434	1475124	-0.181880	-0.109784	9.797112				-0.004865	0.001147	0.001161				-0.489134	1.173912	-41.109656
00435	1475174	-0.211050	-0.101608	9.812834				-0.004246	-0.001370	-0.001671				-0.488313	1.173244	-41.109353
00436	1475224	-0.181508	-0.125560	9.775550				-0.004394	0.000445	0.001764				-0.489561	1.173376	-41.108848
00437	1475274	-0.181972	-0.113390	9.789207				-0.003508	0.000712	-0.000031				-0.488519	1.173309	-41.108070
00438	1475324	-0.190848	-0.128878	9.786135				-0.005229	0.001361	-0.001431				-0.490025	1.173696	-41.108477
00439	1475374	-0.179154	-0.108629	9.786073				-0.004813	0.000466	-0.000314				-0.489359	1.173557	-41.107823
00440	1475424	-0.167530	-0.128508	9.797043				-0.000887	-0.000342	-0.001070				-0.489620	1.173456	-41.108131
00441	1475474	-0.179979	-0.124030	9.788236				-0.003954	0.001475	-0.002079				-0.488718	1.173602	-41.107940
00442	1475524	-0.174883	-0.121704	9.806191				-0.004704	0.001948	-0.003710				-0.490088	1.174151	-41.108997
00443	1475574	-0.194694	-0.109055	9.792865				-0.001620	0.001815	-0.001118				-0.488512	1.174398	-41.108548
00444	1475624	-0.188836	-0.127538	9.808655				-0.004499	0.000233	-0.005420				-0.489833	1.174451	-41.110100
00445	1475674	-0.190148	-0.100157	9.800984				-0.004484	0.001243	-0.001919				-0.489082	1.174531	-41.109882
00446	1475724	-0.200167	-0.101500	9.816380				-0.003280	0.001754	-0.001208				-0.490029	1.175031	-41.110235
00447	1475774	-0.196306	-0.104958	9.817073				-0.001381	0.000201	-0.002506				-0.488393	1.174811	-41.110186
00448	1475824	-0.201963	-0.105560	9.804399				-0.002050	0.002386	-0.000244				-0.488982	1.175494	-41.110263
00449	1475874	-0.195637	-0.134932	9.800063				-0.006324	0.000466	-0.003295				-0.488767	1.175349	-41.110451
00450	1475924	-0.196715	-0.104747	9.808931				-0.007052	-0.000168	-0.006148				-0.490823	1.175286	-41.112208
00451	1475974	-0.195348	-0.111255	9.800289				0.000434	-0.001647	-0.003745				-0.488674	1.174534	-41.112533
00452	1476024	-0.208172	-0.101670	9.801785				0.002024	-0.000100	-0.004342				-0.488120	1.174495	-41.113778
00453	1476074	-0.182981	-0.110624	9.787289				0.002532	0.002372	-0.000420				-0.485350	1.174903	-41.113132
00454	1476124	-0.188642	-0.106174	9.801216				-0.006455	0.003595	-0.004047				-0.487223	1.175923	-41.114291
00455	1476174	-0.183381	-0.109200	9.811493				-0.000387	0.002187	-0.002148				-0.485300	1.176274	-41.114149
00456	1476224	-0.188533	-0.122051	9.788760				-0.004210	0.001504	-0.003068				-0.486525	1.176697	-41.115032
00457	1476274	-0.181756	-0.116895	9.801664				-0.003816	0.000351	-0.001024				-0.485577	1.176524	-41.114564
00458	1476324	-0.198267	-0.099390	9.798866				-0.006686	0.004315	0.001474				-0.487484	1.177764	-41.114151
00459	1476374	-0.179188	-0.122089	9.798298				-0.005078	-0.002847	-0.004280				-0.486918	1.176668	-41.114599
00460	1476424	-0.184637	-0.124047	9.800967				-0.002868	0.003562	-0.004125				-0.487764	1.177678	-41.115788
00461	1476474	-0.169865	-0.120113	9.804724				-0.002405	0.002384	-0.000855				-0.486411	1.178088	-41.115235
00462	1476524	-0.177783	-0.111467	9.816503				-0.006355	-0.002505	-0.000423				-0.488234	1.177370	-41.115348
00463	1476574	-0.174714	-0.117936	9.800672				-0.001575	0.004335	-0.001618				-0.486649	1.178337	-41.115047
00464	1476624	-0.192811	-0.106626	9.803151				-0.002926	-0.000705	-0.002860				-0.487504	1.178128	-41.115859
00465	1476674	-0.167840	-0.120897	9.784343				0.000005	0.001200	0.000478				-0.485454	1.178202	-41.114959
00466	1476724	-0.181393	-0.128418	9.794722				-0.003269	0.002235	-0.000791				-0.486395	1.178841	-41.115190
00467	1476774	-0.201811	-0.118547	9.819742				-0.000055	-0.000971	0.000472				-0.484362	1.178293	-41.114276
00468	1476824	-0.210015	-0.131560	9.803487				-0.005229	0.002364	-0.001905				-0.485871	1.178966	-41.114827
00469	1476874	-0.173019	-0.121157	9.804021				-0.004434	0.002736	0.000013				-0.485095	1.179479	-41.114050
00470	1476924	-0.188780	-0.105001	9.779894				-0.001563	0.004273	0.000402				-0.485541	1.180704	-41.113941
00471	1476974	-0.196372	-0.097861	9.809643				-0.005172	-0.000285	0.000033				-0.484977	1.180352	-41.113148
00472	1477024	-0.203202	-0.114863	9.803693				-0.004418	-0.001688	0.002721				-0.486226	1.179875	-41.112362
00473	1477074	-0.207780	-0.098523	9.806349				-0.000287	0.002058	-0.003139				-0.484282	1.180186	-41.112505
00474	1477124	-0.194998	-0.103928	9.798377				-0.002733	-0.000370	0.000861				-0.485060	1.180082	-41.112263
00475	1477174	-0.196668	-0.104172	9.798140				-0.000813	0.000600	-0.001355				-0.483255	1.179979	-41.111858
00476	1477224	-0.194958	-0.108726	9.807237				0.000966	-0.001691	0.002319				-0.482965	1.179500	-41.111197
00477	1477274	-0.200370	-0.121370	9.812788				-0.003907	0.000324	0.001352				-0.482030	1.179326	-41.110033
00478	1477324	-0.195742	-0.120995	9.792876				-0.004665	0.000922	0.000329				-0.483364	1.179591	-41.109937
00479	1477374	-0.192798	-0.109293	9.791179				-0.002523	-0.001081	0.000247				-0.482040	1.179011	-41.109093
00480	1477424	-0.179909	-0.109586	9.791825				-0.001651	0.001451	-0.003685				-0.482535	1.179418	-41.110153
00481	1477474	-0.169947	-0.120824	9.787463				-0.004360	-0.000954	-0.002635				-0.481755	1.178868	-41.110137
00482	1477524	-0.191306	-0.097227	9.793562				-0.003797	0.002676	-0.001685				-0.482852	1.179631	-41.110623
00483	1477574	-0.177171	-0.115403	9.797329				-0.005192	-0.002974	-0.002610				-0.482310	1.178502	-41.110570
00484	1477624	-0.189328	-0.108871	9.811044				-0.004623	0.001666	-0.000596				-0.483638	1.178978	-41.110748
00485	1477674	-0.192224	-0.122879	9.799088				-0.001840	0.003616	-0.001814				-0.482131	1.179738	-41.110490
00486	1477724	-0.186452	-0.110656	9.802882				-0.004978	0.003430	-0.003475				-0.483578	1.180713	-41.111492
00487	1477774	-0.188207	-0.120901	9.811288				-0.003366	-0.001873	-0.002162				-0.482509	1.179901	-41.111337
00488	1477824	-0.183644	-0.112513	9.799037				-0.007571	-0.001490	-0.000124				-0.484678	1.179474	-41.111368
00489	1477874	-0.170331	-0.130620	9.794420				-0.001851	-0.001300	-0.002970				-0.483181	1.178824	-41.111453
00490	1477924	-0.199021	-0.120179	9.786653				-0.001846	-0.000560	-0.004622				-0.483737	1.178652	-41.112779
00491	1477974	-0.198897	-0.114230	9.802716				-0.000973	-0.003035	-0.006180				-0.482007	1.177498	-41.113781
00492	1478024	-0.188866	-0.118337	9.806491				-0.006829	-0.001574	0.000609				-0.483959	1.177048	-41.113601
00493	1478074	-0.182191	-0.118206	9.792328				-0.004216	0.001027	0.000329				-0.483121	1.177073	-41.112751
00494	1478124	-0.198776	-0.114286	9.800551				-0.004145	0.002542	-0.001908				-0.484320	1.177796	-41.113301
00495	1478174	-0.200364	-0.103630	9.790494				-0.003176	-0.002541	0.001915				-0.483174	1.176802	-41.111972
00496	1478224	-0.192255	-0.113922	9.814176				-0.004062	0.005098	-0.000229				-0.484339	1.178262	-41.112044
00497	1478274	-0.191840	-0.117902	9.802680				-0.000875	0.002272	-0.005320				-0.482577	1.178630	-41.112805
00498	1478324	-0.187405	-0.124160	9.807204				-0.004751	0.000496	-0.001468				-0.483947	1.178769	-41.113227
00499	1478374	-0.169328	-0.112217	9.797282				-0.003155	-0.001480	-0.000557				-0.482810	1.178073	-41.112619
00500	1478424	-0.186038	-0.108228	9.784437				-0.006201	0.000665	-0.000790				-0.484591	1.178261	-41.112853
00501	1478474	-0.207806	-0.113521	9.809222				-0.004525	-0.000494	0.001123				-0.483836	1.177853	-41.111729
00502	1478524	-0.179811	-0.124270	9.806451				-0.002363	-0.001377	-0.003155				-0.484532	1.177450	-41.112638
00503	1478574	-0.184352	-0.133619	9.787786				-0.005726	0.000833	-0.001498				-0.484136	1.177415	-41.112307
00504	1478624	-0.185487	-0.103499	9.790899				-0.002505	0.000440	-0.001702				-0.484864	1.177537	-41.112790
00505	1478674	-0.198672	-0.113900	9.824285				-0.004113	0.001412	-0.002655				-0.484013	1.177666	-41.112800
00506	1478724	-0.160435	-0.129191	9.805631				-0.007419	-0.000263	-0.001373				-0.486147	1.177587	-41.113198
00507	1478774	-0.176681	-0.125947	9.793735				-0.002934	0.002894	0.000042				-0.484944	1.178146	-41.112431
00508	1478824	-0.179314	-0.126562	9.810762				-0.006994	0.001591	-0.001200				-0.486955	1.178599	-41.112782
00509	1478874	-0.195326	-0.116593	9.802216				-0.004172	-0.000562	-0.000738				-0.486110	1.178166	-41.112195
00510	1478924	-0.201903	-0.121614	9.796737				-0.003222	-0.000413	-0.001159				-0.487039	1.178045	-41.112526
00511	1478974	-0.194600	-0.107819	9.803644				-0.002982	0.003569	-0.000046				-0.485850	1.178797	-41.111783
00512	1479024	-0.203762	-0.119989	9.813757				-0.003110	0.000104	-0.003310				-0.486761	1.178819	-41.112726
00513	1479074	-0.179278	-0.105656	9.793020				-0.003847	-0.001042	-0.003827				-0.485841	1.178242	-41.113058
00514	1479124	-0.189812	-0.120172	9.808896				-0.004231	0.006416	-0.002209				-0.487067	1.180074	-41.113710
00515	1479174	-0.192761	-0.103761	9.771520				-0.002830	0.002502	-0.002298				-0.485847	1.180516	-41.113586
00516	1479224	-0.207619	-0.112324	9.814737				-0.004941	0.000625	-0.000025				-0.487262	1.180695	-41.113598
00517	1479274	-0.189457	-0.109380	9.795232				-0.005489	0.000384	-0.001759				-0.486801	1.180531	-41.113323
00518	1479324	-0.175542	-0.115978	9.806667				-0.003569	-0.003515	0.001294				-0.487816	1.179527	-41.112943
00519	1479374	-0.178089	-0.098322	9.816022				-0.001330	0.001818	-0.000061				-0.486154	1.179778	-41.112160
00520	1479424	-0.176259	-0.121356	9.799238				-0.006177	0.001186	0.000492				-0.487921	1.180118	-41.112025
00521	1479474	-0.181720	-0.134988	9.807427				-0.001819	-0.002367	-0.002968				-0.486415	1.179164	-41.112090
00522	1479524	-0.205324	-0.109055	9.814956				-0.000613	0.000411	0.000381				-0.486589	1.179282	-41.111976
00523	1479574	-0.184236	-0.115742	9.782027				-0.003190	-0.001844	-0.006075				-0.485495	1.178469	-41.112968
00524	1479624	-0.166890	-0.129252	9.793924				-0.005061	0.002205	-0.000823				-0.486950	1.179099	-41.113208
00525	1479674	-0.190300	-0.101892	9.801707				-0.006729	0.000335	0.000425				-0.486832	1.178926	-41.112337
00526	1479724	-0.177806	-0.105351	9.795409				-0.004122	-0.001337	-0.001931				-0.488025	1.178538	-41.112892
00527	1479774	-0.183498	-0.115659	9.810303				-0.003161	0.000817	-0.001443				-0.486895	1.178498	-41.112536
00528	1479824	-0.179234	-0.126976	9.795423				-0.004482	0.000115	-0.000194				-0.488181	1.178531	-41.112592
00529	1479874	-0.181601	-0.112950	9.801426				-0.006936	0.000620	-0.002227				-0.488138	1.178433	-41.112445
00530	1479924	-0.193025	-0.119713	9.823286				-0.002305	-0.001713	0.002052				-0.488786	1.177947	-41.111854
00531	1479974	-0.186912	-0.119354	9.802892				-0.003230	-0.003324	-0.002510				-0.487684	1.176719	-41.111782
00532	1480024	-0.203826	-0.117865	9.784761				-0.002748	0.000788	-0.003099				-0.488489	1.176937	-41.112672
00533	1480074	-0.203641	-0.116755	9.805372				-0.002943	-0.000285	-0.005541				-0.487321	1.176572	-41.113484
00534	1480124	-0.198461	-0.118724	9.814214				-0.003809	-0.001076	-0.004233				-0.488437	1.176254	-41.114691
00535	1480174	-0.185007	-0.129257	9.815590				-0.003590	0.000423	-0.001144				-0.487428	1.176103	-41.114263
00536	1480224	-0.196851	-0.115517	9.810607				-0.000470	0.000764	-0.003298				-0.487583	1.176313	-41.115211
00537	1480274	-0.193882	-0.102978	9.798126				-0.003862	0.001640	-0.004312				-0.486672	1.176503	-41.115673
00538	1480324	-0.175164	-0.131003	9.803789				-0.008778	-0.000797	-0.000015				-0.489187	1.176274	-41.115680
00539	1480374	-0.173809	-0.128660	9.798993				-0.003824	0.002582	-0.002096				-0.488252	1.176739	-41.115495
00540	1480424	-0.184470	-0.112821	9.798801				-0.003114	0.002696	-0.001229				-0.489151	1.177509	-41.115849
00541	1480474	-0.180050	-0.113018	9.806207				-0.007699	0.003744	-0.000795				-0.489319	1.178310	-41.115290
00542	1480524	-0.192737	-0.120799	9.813937				-0.001884	-0.002106	-0.001904				-0.489870	1.177702	-41.115831
00543	1480574	-0.201572	-0.109283	9.784027				-0.005161	0.002597	-0.000775				-0.489312	1.178174	-41.115274
00544	1480624	-0.190463	-0.119203	9.790201				-0.002658	-0.000694	-0.000285				-0.490075	1.177975	-41.115355
00545	1480674	-0.193338	-0.122610	9.806277				-0.004752	-0.001802	-0.002563				-0.489409	1.177183	-41.115306
00546	1480724	-0.196811	-0.105445	9.788556				-0.000422	-0.001619	-0.000490				-0.489533	1.176718	-41.115443
00547	1480774	-0.192648	-0.111882	9.791410				-0.004084	-0.001694	-0.004716				-0.488689	1.175952	-41.116014
00548	1480824	-0.203077	-0.090161	9.802965				-0.005358	0.000121	-0.006979				-0.490264	1.175969	-41.118008
00549	1480874	-0.171749	-0.134433	9.791553				-0.004282	0.000960	-0.001337				-0.489456	1.175972	-41.117619
00550	1480924	-0.176398	-0.121866	9.787026				-0.002767	0.001632	-0.002006				-0.490261	1.176435	-41.118202
00551	1480974	-0.202359	-0.103019	9.784994				-0.004329	0.001407	-0.002772				-0.489474	1.176562	-41.118234
00552	1481024	-0.194751	-0.101203	9.789507				-0.003063	0.001752	-0.002196				-0.490365	1.177058	-41.118864
00553	1481074	-0.197212	-0.123628	9.790487				-0.006790	0.003341	-0.000735				-0.490272	1.177745	-41.118304
00554	1481124	-0.195961	-0.093021	9.813478				-0.002380	0.001837	-0.000434				-0.490956	1.178270	-41.118438
00555	1481174	-0.196167	-0.110651	9.803174				-0.001730	0.001492	-0.000216				-0.489412	1.178427	-41.117741
00556	1481224	-0.188769	-0.104766	9.793547				-0.003091	-0.001478	-0.002374				-0.490311	1.177998	-41.118415
00557	1481274	-0.188672	-0.118045	9.795473				-0.002532	0.001312	-0.000182				-0.488996	1.178104	-41.117695
00558	1481324	-0.193281	-0.113687	9.793101				-0.005978	0.002999	-0.000803				-0.490713	1.178961	-41.117925
00559	1481374	-0.183994	-0.126798	9.793052				-0.004693	0.001695	-0.001388				-0.490024	1.179175	-41.117577
00560	1481424	-0.193167	-0.103026	9.812986				-0.005634	-0.000840	-0.000440				-0.491640	1.178933	-41.117700
00561	1481474	-0.194907	-0.114227	9.795504				-0.005030	0.001974	-0.004020				-0.491063	1.179220	-41.118084
00562	1481524	-0.183504	-0.101777	9.785374				-0.004860	-0.001255	-0.003073				-0.492473	1.178852	-41.118968
00563	1481574	-0.203537	-0.105801	9.794346				-0.007159	0.000718	-0.001065				-0.492487	1.178787	-41.118482
00564	1481624	-0.177258	-0.124574	9.787501				0.000109	-0.000831	0.002144				-0.492444	1.178554	-41.117864
00565	1481674	-0.185345	-0.116735	9.788510				-0.003169	0.003606	0.000892				-0.491305	1.179320	-41.116865
00566	1481724	-0.184867	-0.111208	9.802153				0.000194	0.006370	-0.001794				-0.491260	1.181140	-41.117392
00567	1481774	-0.184515	-0.120823	9.789933				-0.002393	0.000127	0.002284				-0.489890	1.180913	-41.115988
00568	1481824	-0.175899	-0.114834	9.779833				-0.003181	-0.002645	-0.001901				-0.490812	1.180151	-41.116527
00569	1481874	-0.184890	-0.117943	9.798567				-0.007686	0.002224	-0.002792				-0.490989	1.180512	-41.116544
00570	1481924	-0.184845	-0.118996	9.783945				-0.000569	-0.004475	-0.003426				-0.491172	1.179221	-41.117520
00571	1481974	-0.203063	-0.107089	9.804882				-0.005009	-0.001512	-0.002208				-0.490577	1.178514	-41.117381
00572	1482024	-0.198782	-0.113431	9.788327				-0.006358	0.004996	-0.000823				-0.492404	1.179943	-41.117632
00573	1482074	-0.190234	-0.130165	9.813693				-0.000188	0.000328	0.001188				-0.490408	1.179771	-41.116484
00574	1482124	-0.197400	-0.101314	9.796706				-0.000814	-0.000470	-0.003368				-0.490661	1.179628	-41.117455
00575	1482174	-0.194886	-0.111313	9.786388				0.000282	0.000527	0.001030				-0.488532	1.179513	-41.116383
00576	1482224	-0.195901	-0.113188	9.808208				-0.006598	0.001076	-0.003602				-0.490443	1.179813	-41.117420
00577	1482274	-0.191818	-0.117197	9.814897				-0.001646	-0.000615	-0.003174				-0.488891	1.179360	-41.117570
00578	1482324	-0.201407	-0.118363	9.803921				-0.003277	-0.004879	-0.002648				-0.489845	1.177956	-41.118319
00579	1482374	-0.186974	-0.115302	9.795698				-0.007074	-0.000329	-0.005820				-0.489864	1.177578	-41.119215
00580	1482424	-0.206717	-0.097446	9.792445				-0.005416	0.000457	0.000723				-0.491411	1.177711	-41.119011
00581	1482474	-0.200387	-0.128308	9.785467				-0.005417	0.001194	-0.003413				-0.490941	1.177776	-41.119207
00582	1482524	-0.177920	-0.130357	9.780078				-0.006638	0.000273	-0.000688				-0.492847	1.177853	-41.119409
00583	1482574	-0.200398	-0.105202	9.796244				-0.001995	-0.001489	-0.000933				-0.491382	1.177155	-41.118896
00584	1482624	-0.167551	-0.116617	9.807584				-0.005880	0.001473	-0.003571				-0.493087	1.177569	-41.119930
00585	1482674	-0.204187	-0.116638	9.806809				-0.006200	-0.000400	-0.001396				-0.492830	1.177182	-41.119578
00586	1482724	-0.194893	-0.107981	9.795022				-0.004286	-0.002820	0.001150				-0.494051	1.176377	-41.119242
00587	1482774	-0.184786	-0.109598	9.814141				-0.003996	0.000390	0.002324				-0.493140	1.176226	-41.117772
00588	1482824	-0.184280	-0.121172	9.800482				-0.002923	-0.000831	-0.002303				-0.493991	1.175982	-41.118426
00589	1482874	-0.184471	-0.105780	9.794248				-0.005740	0.000415	-0.001106				-0.493601	1.175830	-41.117966
00590	1482924	-0.191142	-0.116311	9.796676				-0.007218	0.003985	0.000907				-0.495663	1.176974	-41.117718
00591	1482974	-0.191335	-0.116448	9.803151				-0.008002	0.001927	-0.001827				-0.495925	1.177253	-41.117461
00592	1483024	-0.195289	-0.123223	9.798857				-0.005057	0.001343	0.001656				-0.497365	1.177642	-41.116987
00593	1483074	-0.202820	-0.113480	9.809200				-0.003749	0.000259	-0.000311				-0.496399	1.177447	-41.116327
00594	1483124	-0.191641	-0.132669	9.815140				-0.004642	0.000051	0.000205				-0.497727	1.177462	-41.116262
00595	1483174	-0.193732	-0.124270	9.798851				0.000052	-0.003488	-0.000339				-0.495673	1.176194	-41.115585
00596	1483224	-0.195210	-0.127912	9.806771				-0.004108	-0.000655	-0.002047				-0.496862	1.176001	-41.116171
00597	1483274	-0.194473	-0.110820	9.797177				-0.003508	0.001013	0.001745				-0.495816	1.176027	-41.114898
00598	1483324	-0.210966	-0.105240	9.788390				0.002703	0.002893	-0.001500				-0.495051	1.176852	-41.115334
00599	1483374	-0.181753	-0.122251	9.806702				-0.004409	0.001892	-0.000779				-0.494277	1.177125	-41.114779
00600	1483424	-0.184253	-0.123959	9.795927				-0.004529	-0.000630	-0.002460				-0.495589	1.176938	-41.115482
00601	1483474	-0.192480	-0.113012	9.789734				-0.001942	0.000971	-0.001722				-0.494114	1.176944	-41.115226
00602	1483524	-0.190449	-0.118863	9.792604				-0.004850	-0.002475	-0.000357				-0.495506	1.176234	-41.115322
00603	1483574	-0.206062	-0.104343	9.810658				-0.004108	0.000475	-0.001045				-0.494648	1.176099	-41.114877
00604	1483624	-0.182631	-0.113181	9.805262				-0.004213	0.001971	0.001013				-0.495849	1.176666	-41.114590
00605	1483674	-0.171801	-0.132003	9.802332				-0.002581	-0.001305	-0.001637				-0.494557	1.176021	-41.114273
00606	1483724	-0.190441	-0.119193	9.790689				-0.002388	-0.001331	-0.000065				-0.495241	1.175639	-41.114290
00607	1483774	-0.176390	-0.120796	9.777916				-0.005619	0.001612	-0.000910				-0.494815	1.175831	-41.113776
00608	1483824	-0.184824	-0.120333	9.806234				-0.003741	0.000969	-0.001847				-0.495898	1.176104	-41.114314
00609	1483874	-0.169392	-0.115562	9.785789				-0.003441	0.001550	-0.003769				-0.494865	1.176271	-41.114635
00610	1483924	-0.203111	-0.105331	9.801291				-0.004167	-0.000586	-0.000535				-0.496062	1.176102	-41.114789
00611	1483974	-0.179403	-0.127775	9.787037				-0.004472	0.000958	-0.000110				-0.495303	1.176108	-41.114058
00612	1484024	-0.203751	-0.092109	9.792427				-0.001965	0.000577	-0.002079				-0.495878	1.176268	-41.114648
00613	1484074	-0.208258	-0.112315	9.799880				-0.007148	-0.000346	0.002328				-0.495872	1.175907	-41.113222
00614	1484124	-0.192835	-0.103265	9.784703				-0.003313	0.001720	-0.000208				-0.496822	1.176400	-41.113277
00615	1484174	-0.177058	-0.110847	9.807391				-0.005078	-0.001647	-0.003298				-0.496256	1.175652	-41.113455
00616	1484224	-0.188717	-0.115830	9.808644				-0.000676	0.000411	-0.000250				-0.496451	1.175769	-41.113526
00617	1484274	-0.194227	-0.127181	9.782320				-0.004399	0.001633	-0.002164				-0.495683	1.175964	-41.113387
00618	1484324	-0.189488	-0.126168	9.801230				0.000172	0.000776	-0.002114				-0.495646	1.176181	-41.113991
00619	1484374	-0.193678	-0.113683	9.794771				-0.005280	0.002008	-0.003148				-0.495137	1.176481	-41.114122
00620	1484424	-0.196317	-0.112496	9.795745				-0.003558	-0.000678	-0.001469				-0.496165	1.176283	-41.114538
00621	1484474	-0.221178	-0.101328	9.790843				-0.002452	0.000834	-0.001111				-0.494833	1.176251	-41.114106
00622	1484524	-0.183014	-0.127838	9.791607				-0.001033	0.001470	-0.001593				-0.495139	1.176669	-41.114571
00623	1484574	-0.176934	-0.116527	9.788942				-0.007544	0.000510	-0.003186				-0.495279	1.176539	-41.114711
00624	1484624	-0.199774	-0.125095	9.812307				-0.001237	-0.000279	-0.001826				-0.495644	1.176455	-41.115234
00625	1484674	-0.190700	-0.123501	9.823283				-0.004198	0.001445	-0.000755				-0.494811	1.176599	-41.114679
00626	1484724	-0.182063	-0.115784	9.809093				-0.001094	0.000138	-0.003430				-0.495145	1.176630	-41.115664
00627	1484774	-0.186162	-0.127756	9.796179				-0.003888	0.001179	-0.005887				-0.494253	1.176685	-41.116577
00628	1484824	-0.183082	-0.125795	9.806471				-0.003346	-0.001482	-0.001831				-0.495222	1.176256	-41.117103
00629	1484874	-0.161985	-0.121315	9.798208				-0.003781	0.002058	-0.004283				-0.494291	1.176568	-41.117551
00630	1484924	-0.181528	-0.117431	9.800941				-0.003879	0.000384	0.000172				-0.495401	1.176678	-41.117498
00631	1484974	-0.175738	-0.121472	9.794683				-0.002255	-0.000229	0.001253				-0.493999	1.176348	-41.116373
00632	1485024	-0.172045	-0.109562	9.774773				-0.006479	0.002566	-0.001767				-0.495865	1.177079	-41.116884
00633	1485074	-0.204841	-0.101534	9.788599				-0.001578	0.003561	-0.001868				-0.494289	1.177827	-41.116662
00634	1485124	-0.205191	-0.106713	9.786918				-0.000284	0.001966	-0.003835				-0.494393	1.178380	-41.117770
00635	1485174	-0.175949	-0.130867	9.803559				-0.003736	0.002909	-0.001834				-0.493434	1.178942	-41.117523
00636	1485224	-0.190145	-0.107750	9.789959				-0.002523	0.000960	-0.001434				-0.494165	1.179213	-41.117929
00637	1485274	-0.193858	-0.116980	9.792860				-0.005344	-0.001130	-0.001530				-0.493665	1.178618	-41.117560
00638	1485324	-0.185498	-0.102265	9.800248				-0.004359	-0.000393	0.002319				-0.494900	1.178511	-41.116887
00639	1485374	-0.188786	-0.123052	9.791393				-0.003543	0.000747	-0.002037				-0.493887	1.178453	-41.116700
00640	1485424	-0.193399	-0.117108	9.799080				0.001615	-0.000101	-0.000739				-0.493429	1.178422	-41.116912
00641	1485474	-0.187148	-0.124328	9.804093				-0.001492	0.000972	-0.000861				-0.491822	1.178430	-41.116388
00642	1485524	-0.192285	-0.130821	9.795014				-0.006921	-0.000734	-0.000951				-0.493810	1.178218	-41.116656
00643	1485574	-0.191516	-0.111033	9.791410				-0.008525	-0.000373	0.002365				-0.494199	1.177850	-41.115210
00644	1485624	-0.190711	-0.130703	9.807461				-0.004032	0.000962	-0.003675				-0.495376	1.178116	-41.116266
00645	1485674	-0.197780	-0.114744	9.809653				-0.005776	-0.001855	-0.005677				-0.495025	1.177303	-41.117134
00646	1485724	-0.180106	-0.114744	9.798304				-0.005688	0.001413	-0.004627				-0.496682	1.177696	-41.118461
00647	1485774	-0.174316	-0.106475	9.788442				-0.004880	0.000759	0.000881				-0.496035	1.177649	-41.117429
00648	1485824	-0.192618	-0.107494	9.796205				-0.004569	0.000890	-0.001235				-0.497352	1.177900	-41.117788
00649	1485874	-0.176338	-0.131602	9.794448				-0.001769	0.001291	-0.002844				-0.495834	1.177996	-41.117812
00650	1485924	-0.194260	-0.100812	9.792378				-0.004154	-0.001104	-0.000667				-0.497028	1.177678	-41.118003
00651	1485974	-0.177361	-0.121723	9.789422				-0.005618	-0.000490	-0.002620				-0.496614	1.177264	-41.117955
00652	1486024	-0.189701	-0.114915	9.803626				-0.004543	0.001116	-0.001428				-0.497923	1.177581	-41.118363
00653	1486074	-0.178910	-0.122866	9.807164				-0.002571	0.001638	-0.000788				-0.496625	1.177780	-41.117804
00654	1486124	-0.202656	-0.116913	9.795065				-0.006008	-0.000269	-0.001426				-0.498355	1.177700	-41.118212
00655	1486174	-0.201264	-0.116967	9.799842				-0.005134	-0.000608	-0.001176				-0.497792	1.177256	-41.117763
00656	1486224	-0.193596	-0.111258	9.810827				-0.002160	0.001939	0.000723				-0.498407	1.177813	-41.117565
00657	1486274	-0.186997	-0.115262	9.795940				-0.003964	-0.000333	-0.003775				-0.497525	1.177441	-41.117849
00658	1486324	-0.190845	-0.119116	9.800033				-0.003510	0.001880	-0.002197				-0.498544	1.177974	-41.118481
00659	1486374	-0.183836	-0.120856	9.797125				-0.000212	0.000871	-0.000509				-0.496568	1.177955	-41.117867
00660	1486424	-0.195948	-0.103663	9.796465				-0.001096	0.000567	-0.000734				-0.496887	1.178116	-41.118083
00661	1486474	-0.169231	-0.127920	9.798488				-0.004747	0.002237	-0.003603				-0.496229	1.178481	-41.118344
00662	1486524	-0.210086	-0.101137	9.801798				-0.004783	-0.000542	-0.003229				-0.497618	1.178318	-41.119265
00663	1486574	-0.201211	-0.118896	9.791938				-0.002023	0.001124	-0.004287				-0.496184	1.178362	-41.119737
00664	1486624	-0.186904	-0.101655	9.790904				-0.004973	0.001231	-0.004085				-0.497632	1.178704	-41.120911
00665	1486674	-0.192745	-0.116088	9.785897				-0.003884	0.002384	-0.003184				-0.496726	1.179112	-41.121079
00666	1486724	-0.195805	-0.094720	9.793825				-0.005057	0.000172	0.000077				-0.498174	1.179161	-41.121052
00667	1486774	-0.175623	-0.123462	9.796843				-0.005808	-0.002492	0.000580				-0.497795	1.178181	-41.120120
00668	1486824	-0.187793	-0.114280	9.797384				-0.002728	0.002437	-0.002357				-0.498591	1.178873	-41.120810
00669	1486874	-0.191125	-0.112387	9.800997				0.001019	0.002344	-0.002462				-0.496275	1.179272	-41.120739
00670	1486924	-0.192748	-0.103393	9.785183				-0.006832	-0.000374	0.000627				-0.498228	1.179166	-41.120549
00671	1486974	-0.204219	-0.108688	9.791236				-0.002321	0.000637	-0.002077				-0.496866	1.179077	-41.120380
00672	1487024	-0.180062	-0.119013	9.804530				-0.000849	-0.001313	-0.002253				-0.497123	1.178695	-41.121025
00673	1487074	-0.186418	-0.126382	9.808638				-0.006766	-0.001607	-0.001726				-0.497032	1.177963	-41.120730
00674	1487124	-0.185941	-0.123424	9.793297				-0.001337	0.001618	-0.005471				-0.497447	1.178413	-41.122299
00675	1487174	-0.188659	-0.118826	9.798107				-0.002575	0.001930	0.000916				-0.496141	1.178701	-41.121288
00676	1487224	-0.197824	-0.110279	9.801508				-0.005449	0.000129	-0.001876				-0.497713	1.178733	-41.121829
00677	1487274	-0.185186	-0.124692	9.808393				-0.006008	0.005069	-0.000825				-0.497400	1.179916	-41.121302
00678	1487324	-0.185089	-0.119417	9.802407				-0.006549	0.000397	-0.004506				-0.499303	1.180019	-41.122597
00679	1487374	-0.199161	-0.125318	9.792170				-0.004675	-0.002189	-0.003559				-0.498624	1.179116	-41.122831
00680	1487424	-0.200583	-0.115404	9.795055				-0.003836	0.001769	-0.004504				-0.499750	1.179612	-41.124127
00681	1487474	-0.190726	-0.121962	9.793084				-0.005732	0.000960	-0.003607				-0.499374	1.179611	-41.124379
00682	1487524	-0.195821	-0.116906	9.805091				-0.004599	-0.001442	-0.003050				-0.500709	1.179190	-41.125247
00683	1487574	-0.193530	-0.124387	9.801006				-0.002481	-0.001634	-0.003306				-0.499401	1.178447	-41.125429
00684	1487624	-0.209716	-0.097951	9.810667				-0.003957	-0.000430	-0.004162				-0.500559	1.178313	-41.126619
00685	1487674	-0.218332	-0.096825	9.815504				-0.006572	0.001469	-0.002124				-0.500416	1.178463	-41.126453
00686	1487724	-0.185140	-0.091385	9.787536				-0.004014	0.002544	-0.003119				-0.501584	1.179184	-41.127349
00687	1487774	-0.181960	-0.099196	9.802382				-0.004826	-0.001056	0.000071				-0.500927	1.178615	-41.126551
00688	1487824	-0.172703	-0.130754	9.794193				-0.005832	0.000317	-0.001845				-0.502609	1.178701	-41.127075
00689	1487874	-0.173834	-0.132826	9.806664				-0.006042	0.001833	-0.002608				-0.502317	1.178953	-41.127049
00690	1487924	-0.176330	-0.118511	9.803314				-0.002946	0.001010	-0.003167				-0.503179	1.179235	-41.127951
00691	1487974	-0.178997	-0.129223	9.803573				-0.002237	-0.001407	-0.005715				-0.501816	1.178550	-41.128802
00692	1488024	-0.186928	-0.105083	9.794263				-0.005428	0.002783	-0.001543				-0.503380	1.179344	-41.129257
00693	1488074	-0.190518	-0.110498	9.810338				-0.003932	0.001296	0.001846				-0.502458	1.179452	-41.127963
00694	1488124	-0.173301	-0.118131	9.798987				-0.001477	-0.003912	-0.002488				-0.502896	1.178325	-41.128669
00695	1488174	-0.177974	-0.104975	9.811471				-0.006989	0.000626	0.000309				-0.502858	1.178239	-41.127796
00696	1488224	-0.174982	-0.111340	9.799713				-0.003798	0.002908	-0.000073				-0.503947	1.179071	-41.127834
00697	1488274	-0.185260	-0.108686	9.815104				-0.005963	0.000250	-0.002037				-0.503628	1.178871	-41.127637
00698	1488324	-0.193976	-0.117599	9.818263				-0.004984	-0.001218	-0.001017				-0.505062	1.178520	-41.127924
00699	1488374	-0.182582	-0.108282	9.795438				-0.003896	0.000768	-0.000823				-0.504145	1.178471	-41.127397
00700	1488424	-0.197952	-0.114678	9.801031				-0.000678	-0.001048	-0.004622				-0.504366	1.178159	-41.128711
00701	1488474	-0.185733	-0.122848	9.799533				-0.002392	0.000796	-0.001753				-0.503024	1.178116	-41.128450
00702	1488524	-0.183323	-0.121299	9.794008				-0.000887	0.000082	0.000291				-0.503276	1.178140	-41.128370
00703	1488574	-0.204159	-0.110583	9.786684				-0.005642	0.000453	-0.000685				-0.502859	1.178002	-41.127798
00704	1488624	-0.188602	-0.107287	9.805053				-0.003489	0.000195	-0.001210				-0.503865	1.178055	-41.128139
00705	1488674	-0.193946	-0.117848	9.801252				-0.004762	0.001659	-0.003827				-0.503214	1.178253	-41.128467
00706	1488724	-0.190584	-0.111607	9.794277				-0.002322	0.000032	0.002892				-0.503862	1.178270	-41.127643
00707	1488774	-0.194152	-0.122663	9.782557				-0.003476	-0.001585	-0.003272				-0.502839	1.177540	-41.127806
00708	1488824	-0.174994	-0.127293	9.799719				-0.003632	0.001520	-0.001942				-0.503891	1.177971	-41.128354
00709	1488874	-0.188220	-0.115350	9.794751				-0.006838	0.002658	-0.001860				-0.503822	1.178461	-41.128134
00710	1488924	-0.192360	-0.097001	9.788294				-0.006223	0.000338	-0.003606				-0.505626	1.178549	-41.129165
00711	1488974	-0.176222	-0.102786	9.795882				-0.004235	0.001673	-0.000399				-0.504804	1.178760	-41.128525
00712	1489024	-0.187755	-0.107770	9.788992				-0.002945	-0.000464	0.003244				-0.505629	1.178635	-41.127600
00713	1489074	-0.178907	-0.120709	9.805484				-0.002162	-0.000194	0.000706				-0.504205	1.178315	-41.126613
00714	1489124	-0.205390	-0.106624	9.789083				-0.005244	-0.000090	-0.000656				-0.505712	1.178287	-41.126804
00715	1489174	-0.188624	-0.118541	9.791636				-0.004815	0.000795	0.002391				-0.505039	1.178254	-41.125336
00716	1489224	-0.193951	-0.121096	9.808672				-0.007953	0.002608	-0.000124				-0.507319	1.179001	-41.125378
00717	1489274	-0.179276	-0.121411	9.790396				-0.002871	-0.000142	-0.000383				-0.506106	1.178693	-41.124726
00718	1489324	-0.207642	-0.098040	9.798198				-0.007103	-0.002295	-0.002622				-0.508157	1.178029	-41.125466
00719	1489374	-0.204472	-0.119724	9.812564				-0.001613	0.002722	-0.000943				-0.506586	1.178539	-41.124979
00720	1489424	-0.197440	-0.117569	9.791201				-0.000481	0.000281	-0.002402				-0.506738	1.178614	-41.125664
00721	1489474	-0.197636	-0.097151	9.815402				-0.003708	0.001904	-0.003314				-0.505782	1.178884	-41.125859
00722	1489524	-0.187738	-0.119180	9.786594				-0.004385	0.003020	-0.004079				-0.507062	1.179739	-41.127038
00723	1489574	-0.176988	-0.130766	9.795894				-0.004836	-0.000793	0.000041				-0.506410	1.179245	-41.126258
00724	1489624	-0.192828	-0.111120	9.796213				-0.006625	0.002916	-0.004683				-0.508335	1.180069	-41.127602
00725	1489674	-0.173219	-0.111292	9.794671				-0.006025	0.000476	-0.000303				-0.508026	1.179937	-41.126936
00726	1489724	-0.182154	-0.106817	9.808375				-0.004012	0.000384	-0.001815				-0.509187	1.180043	-41.127465
00727	1489774	-0.186912	-0.125424	9.790671				-0.004468	0.002933	0.000957				-0.508423	1.180618	-41.126426
00728	1489824	-0.176058	-0.111112	9.792289				-0.007158	-0.001089	0.001617				-0.510464	1.180311	-41.125960
00729	1489874	-0.187879	-0.109779	9.779164				-0.003748	-0.000025	-0.004034				-0.509524	1.180027	-41.126335
00730	1489924	-0.197219	-0.097584	9.795991				-0.003237	0.000872	-0.006308				-0.510488	1.180261	-41.128150
00731	1489974	-0.186153	-0.128922	9.780600				-0.001151	-0.002384	-0.003443				-0.508801	1.179302	-41.128359
00732	1490024	-0.205815	-0.093363	9.787396				0.001853	0.001559	0.000806				-0.508265	1.179751	-41.128132
00733	1490074	-0.172652	-0.124029	9.796105				-0.001169	0.000662	-0.001539				-0.506571	1.179670	-41.127805
00734	1490124	-0.194951	-0.104735	9.800532				-0.003304	-0.001832	-0.001767				-0.507528	1.179141	-41.128301
00735	1490174	-0.181280	-0.120188	9.785845				-0.002035	0.002909	-0.000943				-0.506078	1.179705	-41.127809
00736	1490224	-0.183109	-0.117434	9.785372				-0.003853	0.000685	0.000396				-0.507180	1.179903	-41.127695
00737	1490274	-0.200824	-0.111908	9.791935				-0.001260	0.000461	-0.001729				-0.505514	1.179764	-41.127420
00738	1490324	-0.195737	-0.104446	9.791906				-0.005211	0.002114	0.000474				-0.507004	1.180371	-41.127286
00739	1490374	-0.190298	-0.121004	9.796440				-0.003334	0.001211	-0.001846				-0.505932	1.180446	-41.127065
00740	1490424	-0.208424	-0.106074	9.810903				-0.007178	0.002269	-0.001568				-0.507998	1.181092	-41.127519
00741	1490474	-0.184339	-0.092464	9.795681				-0.004997	0.004572	-0.000414				-0.507394	1.182134	-41.126872
00742	1490524	-0.194641	-0.116771	9.807481				0.000895	-0.001120	-0.005139				-0.507168	1.181800	-41.128340
00743	1490574	-0.200553	-0.114629	9.792404				-0.004192	-0.001068	-0.000729				-0.506335	1.181226	-41.127769
00744	1490624	-0.200239	-0.119614	9.787139				-0.005038	0.000167	-0.004477				-0.507805	1.181263	-41.129051
00745	1490674	-0.193474	-0.120042	9.811072				-0.003713	0.000036	-0.001371				-0.506840	1.181003	-41.128692
00746	1490724	-0.184876	-0.135589	9.795457				-0.004499	0.000537	-0.002681				-0.508144	1.181150	-41.129464
00747	1490774	-0.188282	-0.136405	9.813210				-0.003609	-0.000087	0.000364				-0.507139	1.180859	-41.128582
00748	1490824	-0.176869	-0.126908	9.803558				-0.005976	-0.000869	0.002769				-0.508834	1.180617	-41.127785
00749	1490874	-0.178562	-0.126980	9.808599				-0.004839	-0.001692	0.001126				-0.508177	1.179869	-41.126704
00750	1490924	-0.195764	-0.104415	9.802210				-0.000968	-0.000524	0.000995				-0.508449	1.179721	-41.126417
00751	1490974	-0.181558	-0.131693	9.788253				-0.004226	0.002162	-0.001357				-0.507630	1.180071	-41.126042
00752	1491024	-0.187352	-0.115688	9.787075				0.000300	-0.002055	0.001080				-0.507538	1.179485	-41.125730
00753	1491074	-0.183415	-0.103762	9.795442				-0.001518	0.003495	-0.004021				-0.505960	1.180210	-41.126108
00754	1491124	-0.173654	-0.138532	9.793481				-0.002870	0.002568	-0.003573				-0.506803	1.180936	-41.127135
00755	1491174	-0.194165	-0.106008	9.776801				-0.002974	0.000983	-0.001303				-0.505626	1.180948	-41.126755
00756	1491224	-0.170599	-0.115419	9.819825				-0.005385	0.003465	-0.000547				-0.507172	1.181939	-41.126915
00757	1491274	-0.187687	-0.099909	9.785872				-0.002650	0.001964	0.000046				-0.505895	1.182235	-41.126151
00758	1491324	-0.186009	-0.109301	9.814629				-0.003435	0.000531	0.000556				-0.506876	1.182389	-41.125992
00759	1491374	-0.180296	-0.096086	9.802854				-0.005071	-0.001541	-0.000671				-0.506295	1.181679	-41.125405
00760	1491424	-0.181068	-0.127136	9.786325				-0.004387	0.000285	0.000139				-0.507551	1.181762	-41.125364
00761	1491474	-0.192972	-0.116658	9.791410				-0.003294	0.001983	-0.001332				-0.506464	1.182060	-41.124959
00762	1491524	-0.194380	-0.111315	9.793816				-0.006424	-0.001272	-0.000180				-0.508306	1.181695	-41.125013
00763	1491574	-0.204002	-0.106549	9.786438				-0.005466	0.000978	0.000050				-0.507834	1.181708	-41.124246
00764	1491624	-0.215075	-0.099135	9.799912				-0.006928	0.001299	-0.002793				-0.509836	1.182073	-41.125048
00765	1491674	-0.209715	-0.098949	9.814739				-0.003866	-0.001227	-0.002596				-0.508921	1.181449	-41.125025
00766	1491724	-0.192368	-0.116278	9.812263				-0.003742	0.002307	0.001241				-0.509986	1.182113	-41.124675
00767	1491774	-0.215334	-0.119711	9.798955				-0.005372	0.001045	0.001368				-0.509480	1.182149	-41.123512
00768	1491824	-0.199828	-0.098094	9.800314				-0.002930	-0.000405	-0.000153				-0.510320	1.182033	-41.123559
00769	1491874	-0.185333	-0.112511	9.803604				-0.005072	-0.001573	-0.000892				-0.509741	1.181313	-41.123040
00770	1491924	-0.199107	-0.106547	9.807497				-0.004809	0.000273	-0.002232				-0.511132	1.181386	-41.123682
00771	1491974	-0.187131	-0.107045	9.803604				-0.003242	0.000134	-0.002781				-0.510039	1.181151	-41.123724
00772	1492024	-0.193993	-0.121787	9.780400				-0.005949	0.001002	0.000986				-0.511738	1.181441	-41.123441
00773	1492074	-0.181655	-0.123148	9.802149				-0.006463	-0.000341	-0.004379				-0.511578	1.181065	-41.123922
00774	1492124	-0.162780	-0.130688	9.795820				-0.006907	0.000653	-0.001904				-0.513568	1.181248	-41.124464
00775	1492174	-0.190646	-0.102027	9.792599				0.001137	-0.002235	-0.000177				-0.511206	1.180341	-41.123772
00776	1492224	-0.194401	-0.123340	9.779205				-0.002494	-0.000305	-0.004546				-0.511948	1.180242	-41.125075
00777	1492274	-0.181283	-0.118155	9.806212				-0.003289	-0.001516	-0.004496				-0.510878	1.179530	-41.125583
00778	1492324	-0.182937	-0.137389	9.794964				-0.001795	0.001269	-0.000922				-0.511398	1.179891	-41.125850
00779	1492374	-0.190315	-0.113444	9.784216				-0.003692	0.002491	-0.000972				-0.510424	1.180336	-41.125368
00780	1492424	-0.191228	-0.111696	9.789966				-0.005411	-0.002131	-0.002082				-0.511986	1.179720	-41.125953
00781	1492474	-0.194551	-0.121397	9.802210				-0.005072	-0.002506	0.000416				-0.511400	1.178737	-41.125078
00782	1492524	-0.202821	-0.106775	9.788830				-0.003785	0.000325	-0.001080				-0.512491	1.178828	-41.125384
00783	1492574	-0.173568	-0.108531	9.802585				-0.003789	0.000653	0.000650				-0.511536	1.178750	-41.124458
00784	1492624	-0.192639	-0.124176	9.803879				-0.003088	-0.000604	-0.003751				-0.512442	1.178568	-41.125538
00785	1492674	-0.202843	-0.131835	9.809920				-0.005542	0.000100	-0.001234				-0.512000	1.178327	-41.125128
00786	1492724	-0.190940	-0.119595	9.786137				-0.002274	-0.000009	-0.003875				-0.512674	1.178314	-41.126237
00787	1492774	-0.184031	-0.118138	9.819894				-0.002600	-0.000722	-0.002020				-0.511395	1.177836	-41.126057
00788	1492824	-0.191401	-0.118909	9.832152				-0.001991	-0.001745	-0.001960				-0.511976	1.177331	-41.126613
00789	1492874	-0.195006	-0.111853	9.781117				-0.004339	-0.001660	-0.002117				-0.511195	1.176584	-41.126469
00790	1492924	-0.195259	-0.113841	9.818027				-0.005943	0.000706	-0.001839				-0.512909	1.176782	-41.126995
00791	1492974	-0.197787	-0.123117	9.795757				-0.001038	-0.001535	-0.001703				-0.511179	1.176072	-41.126684
00792	1493024	-0.200892	-0.093479	9.787853				-0.004841	0.003442	-0.001925				-0.512577	1.177053	-41.127241
00793	1493074	-0.175089	-0.101843	9.786289				-0.001695	-0.004298	-0.002780				-0.511041	1.175549	-41.127258
00794	1493124	-0.198034	-0.129371	9.811092				-0.003449	0.005054	-0.000253				-0.512031	1.176996	-41.127336
00795	1493174	-0.185818	-0.118000	9.811505				-0.001583	-0.001576	-0.001448				-0.510456	1.176275	-41.127009
00796	1493224	-0.178925	-0.111425	9.784630				-0.002927	0.001471	-0.001205				-0.511301	1.176693	-41.127355
00797	1493274	-0.186753	-0.101279	9.790180				-0.007719	0.002097	-0.002728				-0.511493	1.177021	-41.127365
00798	1493324	-0.193860	-0.122034	9.800053				-0.004334	0.001346	-0.003509				-0.512755	1.177398	-41.128366
00799	1493374	-0.175544	-0.115301	9.791091				-0.004156	0.001099	0.001072				-0.511902	1.177449	-41.127294
00800	1493424	-0.208862	-0.088605	9.801792				-0.005495	0.001686	-0.000583				-0.513479	1.177931	-41.127463
00801	1493474	-0.192806	-0.120458	9.788779				-0.006387	-0.001600	-0.001758				-0.513283	1.177202	-41.127204
00802	1493524	-0.178108	-0.131490	9.815069				-0.001515	0.000262	-0.005613				-0.513750	1.177262	-41.128813
00803	1493574	-0.171822	-0.125435	9.793227				-0.001387	-0.000802	-0.002216				-0.512123	1.176761	-41.128693
00804	1493624	-0.184100	-0.135025	9.786581				-0.004800	0.001184	-0.000045				-0.513499	1.177100	-41.128707
00805	1493674	-0.178889	-0.123370	9.801896				-0.006827	0.002471	0.000285				-0.513417	1.177543	-41.127862
00806	1493724	-0.170455	-0.133043	9.810240				-0.002913	0.001180	-0.000436				-0.514254	1.177880	-41.127988
00807	1493774	-0.185966	-0.129219	9.797139				-0.002503	0.004320	-0.002313				-0.512947	1.178845	-41.127882
00808	1493824	-0.217038	-0.104414	9.782668				-0.001556	0.000851	-0.001180				-0.513400	1.179086	-41.128223
00809	1493874	-0.180258	-0.135287	9.794712				-0.003824	-0.002815	-0.004144				-0.512482	1.178004	-41.128622
00810	1493924	-0.173284	-0.115099	9.780056				-0.004885	-0.000569	-0.002654				-0.513897	1.177834	-41.129373
00811	1493974	-0.183525	-0.126121	9.808867				-0.004943	-0.001832	-0.003077				-0.513295	1.177035	-41.129499
00812	1494024	-0.189948	-0.111422	9.811536				-0.000327	-0.000945	-0.003984				-0.513412	1.176754	-41.130644
00813	1494074	-0.188435	-0.127105	9.807692				-0.004588	0.002642	0.000411				-0.512688	1.177246	-41.129737
00814	1494124	-0.188449	-0.115145	9.788277				-0.005077	-0.004616	-0.002385				-0.514156	1.175918	-41.130414
00815	1494174	-0.187485	-0.100181	9.804564				-0.001842	-0.000715	-0.004107				-0.512671	1.175437	-41.130828
00816	1494224	-0.190416	-0.107394	9.790201				-0.004655	0.000408	-0.000854				-0.514010	1.175552	-41.131067
00817	1494274	-0.187339	-0.122544	9.775572				-0.003465	0.002431	-0.002000				-0.512979	1.175976	-41.130923
00818	1494324	-0.183092	-0.126327	9.796641				-0.002189	0.000419	-0.001536				-0.513615	1.176092	-41.131363
00819	1494374	-0.185664	-0.114472	9.808877				-0.004266	0.001417	-0.000561				-0.512803	1.176231	-41.130734
00820	1494424	-0.191312	-0.123918	9.816331				-0.006337	0.001323	0.001885				-0.514608	1.176615	-41.130191
00821	1494474	-0.183570	-0.121822	9.794970				-0.001810	0.000915	0.001033				-0.513084	1.176614	-41.129106
00822	1494524	-0.180741	-0.128633	9.805497				-0.005499	0.002749	-0.002731				-0.514676	1.177395	-41.129893
00823	1494574	-0.176424	-0.132137	9.796130				-0.002590	0.003998	-0.001775				-0.513392	1.178270	-41.129625
00824	1494624	-0.172827	-0.129169	9.792752				-0.002711	0.000830	-0.000279				-0.514170	1.178507	-41.129704
00825	1494674	-0.205433	-0.099654	9.817598				-0.002216	0.000422	-0.001052				-0.512774	1.178359	-41.129228
00826	1494724	-0.196654	-0.107427	9.796942				-0.000220	0.000094	-0.001600				-0.512847	1.178382	-41.129691
00827	1494774	-0.190601	-0.135652	9.791644				-0.003605	0.001954	0.002810				-0.511827	1.178683	-41.128137
00828	1494824	-0.180310	-0.120084	9.788956				-0.004757	0.004096	0.001925				-0.513178	1.179861	-41.127597
00829	1494874	-0.207648	-0.107482	9.805872				-0.001115	0.001283	0.000780				-0.511457	1.179965	-41.126581
00830	1494924	-0.212445	-0.108370	9.808521				-0.000477	0.000092	-0.001695				-0.511603	1.179988	-41.127074
00831	1494974	-0.185099	-0.110985	9.794010				-0.006443	-0.001117	-0.003291				-0.511433	1.179393	-41.127234
00832	1495024	-0.186953	-0.112047	9.815113				-0.005516	0.002428	-0.001162				-0.513020	1.180086	-41.127576
00833	1495074	-0.193199	-0.130560	9.785192				-0.003534	0.002427	-0.002643				-0.512012	1.180508	-41.127578
00834	1495124	-0.183467	-0.116962	9.813653				-0.005971	-0.001585	-0.000633				-0.513727	1.180053	-41.127759
00835	1495174	-0.173618	-0.114676	9.782455				-0.004867	0.000819	-0.004188				-0.513110	1.180011	-41.128200
00836	1495224	-0.199508	-0.107438	9.790722				-0.004368	0.001743	0.000987				-0.514356	1.180513	-41.127918
00837	1495274	-0.188905	-0.112305	9.788520				-0.004389	0.000857	-0.004186				-0.513601	1.180481	-41.128352
00838	1495324	-0.186781	-0.119904	9.779635				0.000829	-0.001630	0.001013				-0.513358	1.180017	-41.128055
00839	1495374	-0.171565	-0.121312	9.813836				-0.006040	0.000607	-0.002583				-0.513067	1.179919	-41.128026
00840	1495424	-0.172252	-0.118220	9.799939				-0.004292	0.000991	-0.002935				-0.514314	1.180195	-41.128869
00841	1495474	-0.180477	-0.109225	9.793510				-0.004753	0.002371	-0.004214				-0.513664	1.180597	-41.129310
00842	1495524	-0.185169	-0.103373	9.785620				-0.000161	-0.001270	-0.006492				-0.513749	1.180217	-41.131160
00843	1495574	-0.184919	-0.108036	9.794968				-0.002192	-0.000655	-0.003623				-0.512362	1.179754	-41.131445
00844	1495624	-0.201288	-0.113234	9.787864				0.000408	0.001629	-0.000156				-0.512246	1.180220	-41.131497
00845	1495674	-0.197715	-0.106014	9.804853				-0.002373	0.001486	0.001682				-0.510880	1.180384	-41.130252
00846	1495724	-0.182149	-0.109488	9.800942				-0.000353	0.001261	-0.000864				-0.510986	1.180743	-41.130501
00847	1495774	-0.178576	-0.116086	9.783195				-0.003687	-0.000774	-0.000574				-0.510010	1.180254	-41.129896
00848	1495824	-0.184414	-0.117339	9.800715				0.000221	0.001033	-0.004455				-0.509973	1.180539	-41.131174
00849	1495874	-0.181467	-0.122429	9.809331				-0.000949	-0.001371	-0.002769				-0.508224	1.179873	-41.131184
00850	1495924	-0.207656	-0.098879	9.786456				-0.001360	0.001823	0.000076				-0.508614	1.180396	-41.131167
00851	1495974	-0.201516	-0.117706	9.807515				-0.001201	-0.001438	-0.001355				-0.506929	1.179715	-41.130804
00852	1496024	-0.193141	-0.113750	9.797892				-0.006261	-0.001793	-0.004453				-0.508749	1.179190	-41.132079
00853	1496074	-0.193288	-0.117042	9.801962				-0.004010	0.004061	-0.005905				-0.507896	1.180072	-41.133004
00854	1496124	-0.191628	-0.112508	9.797881				-0.005412	0.002436	0.002208				-0.509434	1.180776	-41.132380
00855	1496174	-0.182778	-0.117330	9.798798				-0.002206	-0.004539	-0.005696				-0.508064	1.179195	-41.133255
00856	1496224	-0.188510	-0.104583	9.784441				-0.003046	0.001141	-0.003419				-0.508957	1.179513	-41.134236
00857	1496274	-0.179364	-0.122180	9.807398				-0.001519	-0.000806	-0.006357				-0.507394	1.179000	-41.135268
00858	1496324	-0.181197	-0.123372	9.796866				-0.000337	-0.000029	0.002054				-0.507478	1.178997	-41.134676
00859	1496374	-0.180706	-0.113586	9.804775				-0.000608	0.001222	-0.000475				-0.505619	1.179080	-41.134048
00860	1496424	-0.195056	-0.112241	9.792384				-0.005797	-0.001204	-0.004321				-0.507305	1.178724	-41.135291
00861	1496474	-0.191095	-0.107623	9.802428				-0.005867	-0.003944	-0.000937				-0.506954	1.177327	-41.134745
00862	1496524	-0.186674	-0.115688	9.794496				-0.000966	-0.002667	-0.001296				-0.507238	1.176559	-41.135112
00863	1496574	-0.215811	-0.089351	9.799197				-0.004727	0.004897	-0.001083				-0.506563	1.177694	-41.134676
00864	1496624	-0.185931	-0.122209	9.793536				-0.000057	-0.000937	-0.001253				-0.506587	1.177422	-41.135039
00865	1496674	-0.186425	-0.102532	9.784675				-0.004232	0.003190	-0.003307				-0.505782	1.178062	-41.135211
00866	1496724	-0.180752	-0.125878	9.781772				-0.004562	-0.003596	0.000023				-0.507089	1.177032	-41.135202
00867	1496774	-0.198488	-0.112830	9.795764				-0.005475	0.000169	-0.000242				-0.506623	1.176814	-41.134504
00868	1496824	-0.177060	-0.125483	9.791579				-0.003517	-0.002325	-0.002860				-0.507647	1.176141	-41.135319
00869	1496874	-0.189347	-0.117164	9.794999				-0.003043	0.002213	-0.001840				-0.506494	1.176504	-41.135088
00870	1496924	-0.174919	-0.130816	9.799959				-0.004619	0.000276	-0.002174				-0.507830	1.176578	-41.135711
00871	1496974	-0.176485	-0.121583	9.801168				-0.003728	-0.000610	-0.001405				-0.506871	1.176133	-41.135329
00872	1497024	-0.187078	-0.109086	9.800251				-0.002607	-0.000627	-0.001504				-0.507626	1.175950	-41.135758
00873	1497074	-0.204372	-0.104643	9.802734				-0.003595	0.001922	0.003166				-0.506602	1.176243	-41.134093
00874	1497124	-0.187336	-0.105058	9.796658				-0.002489	-0.001203	-0.001252				-0.507323	1.175895	-41.134442
00875	1497174	-0.193140	-0.120449	9.787582				-0.005373	0.000875	-0.003002				-0.506844	1.175872	-41.134557
00876	1497224	-0.182086	-0.130595	9.799041				-0.002625	0.002157	-0.001713				-0.507606	1.176486	-41.135051
00877	1497274	-0.196714	-0.102273	9.799334				-0.001933	0.000585	-0.001246				-0.506132	1.176384	-41.134660
00878	1497324	-0.191800	-0.109679	9.787576				-0.001788	0.000077	0.001289				-0.506637	1.176410	-41.134293
00879	1497374	-0.182592	-0.125330	9.791602				-0.003466	0.001463	0.001012				-0.505588	1.176566	-41.133230
00880	1497424	-0.157861	-0.127397	9.791474				-0.004698	0.003058	0.000282				-0.506933	1.177442	-41.133156
00881	1497474	-0.189382	-0.096861	9.792592				-0.001684	0.000981	0.001450				-0.505371	1.177461	-41.131977
00882	1497524	-0.190561	-0.122546	9.772478				-0.004495	-0.000689	-0.001662				-0.506669	1.177260	-41.132453
00883	1497574	-0.188725	-0.104369	9.796429				-0.004490	-0.002087	-0.004648				-0.505946	1.176384	-41.133004
00884	1497624	-0.189633	-0.119745	9.805539				-0.005039	0.000331	-0.003161				-0.507408	1.176471	-41.133906
00885	1497674	-0.187308	-0.124172	9.787319				-0.006075	-0.000066	0.000878				-0.507109	1.176188	-41.132883
00886	1497724	-0.178071	-0.125300	9.795899				-0.001431	0.001787	-0.002133				-0.507531	1.176695	-41.133498
00887	1497774	-0.187280	-0.107769	9.789469				-0.004520	-0.000591	0.000358				-0.506788	1.176261	-41.132626
00888	1497824	-0.194891	-0.116810	9.802687				-0.000543	-0.000813	0.000123				-0.506942	1.176028	-41.132590
00889	1497874	-0.187862	-0.123813	9.798343				-0.004187	-0.000002	0.000846				-0.506101	1.175764	-41.131586
00890	1497924	-0.190469	-0.137612	9.800271				-0.003221	0.004495	-0.005869				-0.507059	1.177037	-41.133272
00891	1497974	-0.187395	-0.123437	9.803374				-0.002872	-0.000042	0.000585				-0.505842	1.176760	-41.132335
00892	1498024	-0.185556	-0.109287	9.781556				-0.003714	0.000199	-0.000052				-0.506907	1.176817	-41.132349
00893	1498074	-0.177218	-0.119711	9.784869				-0.004961	0.003020	-0.000617				-0.506297	1.177415	-41.131771
00894	1498124	-0.188661	-0.118702	9.800742				-0.003531	0.001428	-0.001617				-0.507318	1.177820	-41.132235
00895	1498174	-0.181030	-0.113263	9.778179				-0.004715	0.002607	0.000507				-0.506630	1.178302	-41.131334
00896	1498224	-0.191205	-0.130729	9.813461				-0.004836	-0.000758	-0.000571				-0.508019	1.178084	-41.131494
00897	1498274	-0.196708	-0.107266	9.810840				-0.002328	-0.000004	0.000682				-0.506647	1.177819	-41.130521
00898	1498324	-0.193197	-0.099167	9.795249				-0.003400	0.001534	0.002165				-0.507608	1.178263	-41.129903
00899	1498374	-0.183134	-0.111289	9.817003				-0.004224	0.001129	-0.000301				-0.506784	1.178320	-41.129200
00900	1498424	-0.196420	-0.108908	9.806771				-0.003776	-0.000029	-0.000982				-0.507871	1.178310	-41.129479
00901	1498474	-0.174119	-0.111065	9.784846				-0.002099	-0.000555	-0.003558				-0.506458	1.177875	-41.129682
00902	1498524	-0.186536	-0.130084	9.785878				-0.005077	0.002091	0.003743				-0.507891	1.178484	-41.128616
00903	1498574	-0.173570	-0.117264	9.778852				-0.006969	0.000524	-0.003125				-0.507871	1.178360	-41.128736
00904	1498624	-0.177356	-0.117556	9.787028				-0.003253	0.000423	-0.003678				-0.508825	1.178472	-41.129801
00905	1498674	-0.190494	-0.122363	9.791162				-0.003701	0.001588	-0.001585				-0.507858	1.178657	-41.129472
00906	1498724	-0.170176	-0.132849	9.794181				-0.005559	0.000848	-0.000241				-0.509452	1.178899	-41.129544
00907	1498774	-0.193931	-0.116124	9.799335				-0.005666	0.001231	-0.000042				-0.509042	1.178985	-41.128789
00908	1498824	-0.207424	-0.130015	9.802044				-0.002796	0.002708	0.000758				-0.509838	1.179763	-41.128571
00909	1498874	-0.179935	-0.123004	9.786077				-0.001296	-0.000601	-0.003496				-0.508195	1.179316	-41.128800
00910	1498924	-0.186686	-0.114501	9.792583				-0.004467	-0.001433	-0.001120				-0.509481	1.178903	-41.129112
00911	1498974	-0.187012	-0.120853	9.804088				-0.005667	0.001036	-0.001652				-0.509079	1.178930	-41.128819
00912	1499024	-0.181522	-0.107385	9.795426				-0.005819	-0.002399	-0.002342				-0.510760	1.178236	-41.129483
00913	1499074	-0.201628	-0.116661	9.798644				-0.004063	0.002799	-0.004978				-0.509918	1.178760	-41.130151
00914	1499124	-0.211752	-0.106020	9.814033				-0.000291	0.001423	-0.000919				-0.510007	1.179165	-41.130417
00915	1499174	-0.201247	-0.114591	9.806079				-0.004380	0.004298	0.000160				-0.509226	1.180131	-41.129608
00916	1499224	-0.206413	-0.105498	9.794597				-0.003377	0.000690	-0.001430				-0.510202	1.180325	-41.130016
00917	1499274	-0.209075	-0.087998	9.785262				-0.001574	-0.001673	-0.000616				-0.508621	1.179579	-41.129423
00918	1499324	-0.178967	-0.126853	9.787271				-0.001989	0.002196	-0.002867				-0.509208	1.180201	-41.130254
00919	1499374	-0.184097	-0.122836	9.805280				-0.007848	0.000191	-0.001135				-0.509427	1.179987	-41.129809
00920	1499424	-0.187409	-0.125244	9.795465				-0.004637	0.003191	0.001277				-0.510748	1.180904	-41.129451
00921	1499474	-0.166824	-0.114124	9.810452				-0.000778	-0.000492	-0.000002				-0.508937	1.180497	-41.128673
00922	1499524	-0.197410	-0.117552	9.777294				-0.005440	0.001945	-0.001452				-0.510504	1.181051	-41.129092
00923	1499574	-0.181970	-0.120720	9.801424				-0.005440	0.000940	-0.001171				-0.510034	1.181052	-41.128654
00924	1499624	-0.183074	-0.107899	9.790404				-0.000719	0.003611	-0.001938				-0.510251	1.182081	-41.129215
00925	1499674	-0.179932	-0.129912	9.798790				-0.004131	0.001130	-0.001043				-0.509406	1.182136	-41.128761
00926	1499724	-0.186840	-0.116472	9.800012				-0.003722	0.001356	-0.002620				-0.510488	1.182518	-41.129510
00927	1499774	-0.204192	-0.111021	9.786445				-0.003519	0.002880	-0.004400				-0.509488	1.183066	-41.130010
00928	1499824	-0.181093	-0.121940	9.789196				-0.003175	0.004476	-0.000294				-0.510399	1.184348	-41.130102
00929	1499874	-0.217919	-0.092497	9.805193				-0.003354	0.004530	0.002441				-0.509311	1.185386	-41.128641
00930	1499924	-0.192998	-0.109207	9.788535				-0.003078	0.001501	0.001045				-0.510186	1.185818	-41.128340
00931	1499974	-0.179290	-0.130262	9.777214				-0.003258	-0.000251	-0.002465				-0.509099	1.185475	-41.128299
00932	1500024	-0.181183	-0.119365	9.793270				-0.003292	-0.001160	-0.001797				-0.510053	1.185138	-41.128817
00933	1500074	-0.194703	-0.127985	9.790711				-0.000816	0.001698	-0.002459				-0.508266	1.185353	-41.128755
00934	1500124	-0.192155	-0.120515	9.795974				-0.002792	0.001636	0.001073				-0.509060	1.185824	-41.128451
00935	1500174	-0.200926	-0.108784	9.801762				-0.002810	0.000819	-0.003353				-0.507851	1.185784	-41.128634
00936	1500224	-0.199245	-0.108753	9.824518				-0.004937	0.004503	-0.002336				-0.509280	1.187068	-41.129321
00937	1500274	-0.205703	-0.104221	9.790045				-0.004491	0.001340	-0.002866				-0.508548	1.187180	-41.129368
00938	1500324	-0.195883	-0.116355	9.800541				-0.002822	0.002310	-0.000943				-0.509362	1.187839	-41.129645
00939	1500374	-0.181893	-0.123785	9.799512				-0.005380	-0.000736	0.000969				-0.508863	1.187365	-41.128597
00940	1500424	-0.167683	-0.126558	9.795603				-0.001904	0.003847	0.000440				-0.509406	1.188468	-41.128479
00941	1500474	-0.188377	-0.128128	9.788756				-0.001585	-0.002650	-0.002383				-0.507838	1.187437	-41.128361
00942	1500524	-0.168189	-0.124780	9.815256				-0.003391	0.000973	-0.001815				-0.508821	1.187711	-41.128881
00943	1500574	-0.195628	-0.113022	9.798623				-0.003861	0.000807	-0.001203				-0.507899	1.187674	-41.128475
00944	1500624	-0.192988	-0.120061	9.804121				-0.008923	0.000188	-0.006454				-0.510493	1.187711	-41.130321
00945	1500674	-0.178416	-0.107440	9.788942				-0.003749	-0.000811	-0.001085				-0.509539	1.187211	-41.129835
00946	1500724	-0.180743	-0.114847	9.793983				-0.001075	-0.001543	-0.004244				-0.509872	1.186758	-41.131048
00947	1500774	-0.178751	-0.107576	9.797816				-0.004196	-0.000750	-0.000156				-0.509041	1.186277	-41.130312
00948	1500824	-0.179371	-0.106435	9.786794				-0.003462	-0.000703	0.000227				-0.510032	1.186077	-41.130243
00949	1500874	-0.194207	-0.115866	9.801724				-0.002272	0.001223	-0.000403				-0.508650	1.186160	-41.129576
00950	1500924	-0.178111	-0.121587	9.794462				-0.006082	-0.000882	0.000747				-0.510387	1.185910	-41.129354
00951	1500974	-0.187349	-0.103479	9.791388				-0.002552	0.001190	0.000175				-0.509084	1.185985	-41.128548
00952	1501024	-0.192323	-0.122142	9.789256				-0.005170	-0.000571	-0.001206				-0.510572	1.185818	-41.128895
00953	1501074	-0.184986	-0.127868	9.795933				-0.006760	0.002337	-0.000773				-0.510478	1.186220	-41.128350
00954	1501124	-0.192533	-0.127536	9.822568				-0.003286	0.001852	-0.000428				-0.511422	1.186750	-41.128477
00955	1501174	-0.173012	-0.119894	9.814796				-0.003276	0.001432	-0.001652				-0.510337	1.186890	-41.128202
00956	1501224	-0.201315	-0.113094	9.797205				-0.002418	-0.000430	-0.002818				-0.511046	1.186759	-41.129013
00957	1501274	-0.187786	-0.108567	9.795221				-0.002676	-0.001276	-0.001542				-0.509787	1.186124	-41.128696
00958	1501324	-0.197077	-0.117392	9.823553				-0.003220	-0.002354	-0.001930				-0.510721	1.185445	-41.129248
00959	1501374	-0.209171	-0.102769	9.801329				-0.003555	0.003100	-0.004497				-0.509732	1.186056	-41.129765
00960	1501424	-0.211113	-0.101346	9.811638				-0.005784	0.002299	0.001955				-0.511377	1.186719	-41.129214
00961	1501474	-0.186867	-0.128033	9.800732				-0.001821	0.000070	0.000515				-0.509861	1.186475	-41.128298
00962	1501524	-0.181215	-0.124277	9.791602				0.000083	0.003983	0.001593				-0.509828	1.187620	-41.127856
00963	1501574	-0.194857	-0.100012	9.804600				-0.001521	-0.000551	-0.004300				-0.508255	1.187186	-41.128312
00964	1501624	-0.190439	-0.113082	9.808423				-0.003771	-0.001101	-0.001220				-0.509342	1.186867	-41.128658
00965	1501674	-0.187983	-0.116756	9.800259				-0.003581	0.000167	0.000328				-0.508331	1.186650	-41.127796
00966	1501724	-0.194620	-0.113123	9.799574				-0.007337	-0.001681	0.000364				-0.510430	1.186170	-41.127687
00967	1501774	-0.187409	-0.113383	9.780125				-0.006124	0.001377	-0.002287				-0.510164	1.186293	-41.127577
00968	1501824	-0.187472	-0.111121	9.791862				-0.001789	-0.000872	-0.000259				-0.510678	1.186042	-41.127652
00969	1501874	-0.203127	-0.111834	9.810639				-0.001346	0.001273	-0.002907				-0.509047	1.186133	-41.127722
00970	1501924	-0.198170	-0.124197	9.804387				-0.001758	0.002102	-0.002262				-0.509564	1.186729	-41.128379
00971	1501974	-0.184425	-0.114168	9.790894				-0.002039	0.002807	-0.003475				-0.508135	1.187259	-41.128619
00972	1502024	-0.182422	-0.105850	9.805504				-0.003745	0.001429	0.002072				-0.509195	1.187674	-41.128028
00973	1502074	-0.194587	-0.119678	9.802444				-0.002379	-0.000653	-0.000542				-0.507846	1.187219	-41.127411
00974	1502124	-0.197700	-0.118876	9.798631				-0.001318	0.001367	-0.000921				-0.508229	1.187609	-41.127683
00975	1502174	-0.196438	-0.115991	9.805811				-0.003322	0.004012	-0.002309				-0.507160	1.188487	-41.127556
00976	1502224	-0.182575	-0.115254	9.783456				-0.003455	-0.002065	-0.000741				-0.508154	1.187893	-41.127761
00977	1502274	-0.191088	-0.116099	9.799793				-0.004474	-0.000044	-0.000053				-0.507402	1.187615	-41.126986
00978	1502324	-0.183769	-0.099812	9.780103				-0.005019	-0.000115	0.000142				-0.508839	1.187582	-41.126945
00979	1502374	-0.186283	-0.114506	9.794979				-0.003611	0.000939	-0.001558				-0.507848	1.187581	-41.126598
00980	1502424	-0.218402	-0.091061	9.789861				-0.003638	-0.001559	-0.004645				-0.508918	1.187123	-41.127919
00981	1502474	-0.179076	-0.122141	9.806207				-0.003554	-0.002173	-0.004559				-0.507929	1.186223	-41.128486
00982	1502524	-0.200974	-0.123882	9.805357				-0.004460	-0.000957	-0.004935				-0.509236	1.185936	-41.129903
00983	1502574	-0.200877	-0.121140	9.808001				-0.005693	0.002036	-0.001674				-0.508842	1.186250	-41.129605
00984	1502624	-0.197904	-0.119489	9.797427				-0.006527	-0.000080	-0.001202				-0.510719	1.186224	-41.129941
00985	1502674	-0.210782	-0.101521	9.799411				-0.001828	0.000589	0.002062				-0.509196	1.186132	-41.128587
00986	1502724	-0.192551	-0.134046	9.789024				-0.006200	0.004899	-0.001659				-0.510982	1.187531	-41.129067
00987	1502774	-0.186957	-0.110734	9.782755				-0.001397	-0.001185	-0.000418				-0.509351	1.186925	-41.128420
00988	1502824	-0.179989	-0.119841	9.796870				-0.000541	-0.000516	0.004103				-0.509481	1.186788	-41.127240
00989	1502874	-0.194379	-0.114904	9.798138				-0.003961	-0.001332	-0.002014				-0.508593	1.186136	-41.127046
00990	1502924	-0.173273	-0.125677	9.795393				-0.001998	-0.000555	-0.001474				-0.509174	1.185973	-41.127464
00991	1502974	-0.189490	-0.111402	9.804336				-0.003122	0.000750	-0.001012				-0.508041	1.185920	-41.126992
00992	1503024	-0.197564	-0.104982	9.802936				-0.001731	-0.003175	-0.004598				-0.508564	1.184999	-41.128307
00993	1503074	-0.176178	-0.117190	9.807387				-0.003890	0.004616	-0.003689				-0.507666	1.186046	-41.128599
00994	1503124	-0.189813	-0.125534	9.806743				0.000034	0.000259	-0.000930				-0.507662	1.186118	-41.128874
00995	1503174	-0.186715	-0.122996	9.808879				-0.001729	-0.000133	-0.004006				-0.506147	1.185804	-41.129250
00996	1503224	-0.201785	-0.117543	9.801523				-0.001471	-0.000094	-0.003557				-0.506590	1.185768	-41.130264
00997	1503274	-0.174420	-0.126057	9.787725				-0.001292	-0.000637	-0.001191				-0.504932	1.185317	-41.129819
00998	1503324	-0.191018	-0.103685	9.800752				-0.001945	0.000999	-0.001048				-0.505496	1.185601	-41.130117
00999	1503374	-0.199947	-0.108797	9.801273				-0.002865	-0.000470	-0.000858				-0.504288	1.185198	-41.129607
01000	1503424	-0.189176	-0.138877	9.801709				-0.003906	0.002259	-0.001329				-0.505415	1.185842	-41.129995
01001	1503474	-0.175978	-0.123961	9.790132				-0.001685	0.002981	0.000240				-0.503862	1.186431	-41.129186
01002	1503524	-0.176159	-0.123191	9.794685				-0.007042	-0.000060	-0.001426				-0.505888	1.186411	-41.129593
01003	1503574	-0.198099	-0.102621	9.782336				-0.004999	0.003237	-0.004397				-0.505312	1.187061	-41.130084
01004	1503624	-0.196092	-0.109709	9.781369				-0.005316	0.002103	-0.002828				-0.506852	1.187656	-41.130901
01005	1503674	-0.182233	-0.117057	9.791840				-0.003175	0.001198	-0.003002				-0.505745	1.187726	-41.130998
01006	1503724	-0.174092	-0.127676	9.781263				-0.004330	-0.000759	-0.002015				-0.506998	1.187504	-41.131577
01007	1503774	-0.188330	-0.120471	9.799543				-0.002109	-0.002234	-0.001901				-0.505580	1.186593	-41.131344
01008	1503824	-0.185525	-0.119937	9.793300				-0.005592	0.000743	-0.000753				-0.507186	1.186804	-41.131558
01009	1503874	-0.178320	-0.118419	9.791102				-0.004307	-0.002400	0.000542				-0.506383	1.185852	-41.130631
01010	1503924	-0.180769	-0.108813	9.785120				-0.002652	-0.002515	-0.005365				-0.507175	1.185118	-41.132163
01011	1503974	-0.193276	-0.119640	9.814422				-0.003229	0.000072	-0.001567				-0.506074	1.184870	-41.131813
01012	1504024	-0.181893	-0.117600	9.799270				-0.003541	-0.002589	-0.003021				-0.507106	1.184120	-41.132677
01013	1504074	-0.189514	-0.102897	9.792347				-0.005040	0.000953	0.002132				-0.506504	1.184133	-41.131307
01014	1504124	-0.173201	-0.119859	9.789160				-0.001183	0.004312	-0.000329				-0.506845	1.185368	-41.131413
01015	1504174	-0.195398	-0.110253	9.806287				-0.004316	-0.001884	0.001351				-0.506040	1.184566	-41.130242
01016	1504224	-0.171040	-0.126091	9.802332				-0.005165	0.000760	0.002548				-0.507504	1.184790	-41.129514
01017	1504274	-0.187234	-0.111632	9.793303				-0.004085	0.000504	-0.003900				-0.506664	1.184659	-41.129887
01018	1504324	-0.177791	-0.135323	9.799008				-0.001524	0.002950	-0.000561				-0.507104	1.185503	-41.130051
01019	1504374	-0.193226	-0.111534	9.805559				-0.005253	-0.002839	-0.000678				-0.506580	1.184422	-41.129474
01020	1504424	-0.193436	-0.117078	9.808192				-0.000242	-0.003634	-0.003645				-0.506671	1.183372	-41.130507
01021	1504474	-0.178966	-0.132172	9.793028				-0.003418	0.003041	-0.000811				-0.505621	1.183975	-41.129984
01022	1504524	-0.188570	-0.111308	9.803615				-0.003088	0.000691	-0.000501				-0.506508	1.184172	-41.130130
01023	1504574	-0.190487	-0.103170	9.791164				-0.005797	0.001224	-0.001328				-0.506144	1.184254	-41.129770
01024	1504624	-0.180836	-0.125724	9.783685				-0.006440	-0.000697	-0.000601				-0.507992	1.184053	-41.129936
01025	1504674	-0.176352	-0.110654	9.800195				-0.002372	-0.000683	0.000609				-0.506634	1.183593	-41.129010
01026	1504724	-0.193609	-0.118818	9.798364				-0.000066	-0.000809	-0.001960				-0.506665	1.183356	-41.129573
01027	1504774	-0.198766	-0.106761	9.791444				-0.001641	0.000424	-0.000571				-0.505104	1.183211	-41.128972
01028	1504824	-0.171840	-0.136950	9.774060				-0.001187	0.000104	-0.002915				-0.505462	1.183233	-41.129808
01029	1504874	-0.179020	-0.106217	9.792064				0.000633	0.001299	-0.002788				-0.503263	1.183332	-41.129843
01030	1504924	-0.169633	-0.096911	9.802077				-0.006051	-0.001080	-0.002462				-0.505011	1.183017	-41.130545
01031	1504974	-0.186600	-0.108531	9.806718				-0.004074	-0.003683	0.001080				-0.504138	1.181699	-41.129467
01032	1505024	-0.198694	-0.119080	9.800072				-0.006835	0.003660	-0.002240				-0.506110	1.182742	-41.130117
01033	1505074	-0.177041	-0.106269	9.823208				-0.003430	0.000659	0.001004				-0.505053	1.182667	-41.129060
01034	1505124	-0.197033	-0.103780	9.812524				-0.003836	-0.000103	-0.002170				-0.506165	1.182632	-41.129682
01035	1505174	-0.187614	-0.133747	9.810570				-0.004061	0.001898	-0.002707				-0.505310	1.182903	-41.129712
01036	1505224	-0.195765	-0.124301	9.804609				-0.004599	-0.000048	0.000492				-0.506625	1.182890	-41.129572
01037	1505274	-0.185438	-0.124894	9.788744				-0.006185	-0.000016	-0.003352				-0.506382	1.182612	-41.129737
01038	1505324	-0.197481	-0.114022	9.796950				-0.006679	-0.000343	-0.001071				-0.508302	1.182510	-41.130045
01039	1505374	-0.188502	-0.131966	9.800982				-0.005641	0.002029	-0.004946				-0.507914	1.182813	-41.130690
01040	1505424	-0.176571	-0.141682	9.811710				-0.005212	0.001846	-0.002738				-0.509424	1.183335	-41.131483
01041	1505474	-0.188774	-0.104358	9.790426				0.001270	-0.000564	-0.003602				-0.507047	1.182899	-41.131739
01042	1505524	-0.179835	-0.119292	9.800218				-0.003464	0.001489	-0.000527				-0.508043	1.183324	-41.131896
01043	1505574	-0.179649	-0.123473	9.799741				-0.002979	-0.003960	0.000403				-0.506860	1.181925	-41.130989
01044	1505624	-0.165379	-0.122162	9.786727				-0.003825	-0.000817	-0.003014				-0.507974	1.181683	-41.131845
01045	1505674	-0.181742	-0.112297	9.790643				-0.005755	-0.000035	0.000110				-0.507588	1.181407	-41.131064
01046	1505724	-0.191632	-0.118434	9.784942				-0.003793	-0.000287	0.001033				-0.508669	1.181328	-41.130770
01047	1505774	-0.186144	-0.108839	9.799766				-0.004156	-0.001175	-0.002563				-0.507841	1.180719	-41.130731
01048	1505824	-0.185735	-0.124790	9.800968				-0.003853	0.000285	-0.003389				-0.508965	1.180792	-41.131701
01049	1505874	-0.186257	-0.111516	9.784673				-0.005365	0.000420	-0.003479				-0.508489	1.180637	-41.131968
01050	1505924	-0.199635	-0.085020	9.796953				-0.003993	0.001998	-0.001875				-0.509644	1.181205	-41.132505
01051	1505974	-0.172185	-0.118959	9.805211				-0.003835	-0.001097	0.000295				-0.508707	1.180626	-41.131652
01052	1506024	-0.181044	-0.104884	9.809081				-0.001807	0.000777	0.000002				-0.509225	1.180848	-41.131651
01053	1506074	-0.182813	-0.110594	9.822510				-0.001388	0.002628	-0.002390				-0.507603	1.181329	-41.131579
01054	1506124	-0.188341	-0.121449	9.797138				-0.004116	-0.002425	0.000574				-0.508779	1.180636	-41.131403
01055	1506174	-0.185061	-0.112814	9.806713				-0.005944	0.004133	0.000647				-0.508444	1.181555	-41.130451
01056	1506224	-0.195545	-0.111700	9.795018				-0.001051	-0.003191	-0.002163				-0.508758	1.180635	-41.131061
01057	1506274	-0.179375	-0.120865	9.800463				-0.002577	0.001766	-0.000402				-0.507466	1.180873	-41.130415
01058	1506324	-0.196949	-0.114357	9.795747				-0.000446	-0.000978	-0.002315				-0.507607	1.180587	-41.131071
01059	1506374	-0.193346	-0.103010	9.797163				-0.001644	-0.000346	0.000260				-0.506044	1.180223	-41.130229
01060	1506424	-0.193276	-0.126779	9.816103				-0.003456	0.004005	-0.004878				-0.507063	1.181357	-41.131638
01061	1506474	-0.201637	-0.112904	9.801531				-0.003733	0.001711	-0.002418				-0.506113	1.181576	-41.131564
01062	1506524	-0.187597	-0.120468	9.792588				-0.005475	-0.001542	0.003631				-0.507660	1.181143	-41.130512
01063	1506574	-0.180485	-0.102423	9.795661				-0.005668	0.000098	-0.001525				-0.507260	1.180901	-41.130206
01064	1506624	-0.176604	-0.127805	9.783666				0.000186	0.001428	-0.000381				-0.507210	1.181309	-41.130323
01065	1506674	-0.196428	-0.109828	9.802213				-0.005587	0.001649	-0.001867				-0.506787	1.181511	-41.130075
01066	1506724	-0.188065	-0.114420	9.774377				-0.001847	0.001004	0.000106				-0.507315	1.181799	-41.130041
01067	1506774	-0.177034	-0.125325	9.785828				-0.001718	0.000614	-0.004067				-0.505798	1.181699	-41.130448
01068	1506824	-0.179532	-0.130376	9.816996				-0.002439	0.000510	-0.000090				-0.506497	1.181845	-41.130476
01069	1506874	-0.177554	-0.125654	9.787505				-0.002696	0.000436	0.000330				-0.505234	1.181705	-41.129606
01070	1506924	-0.180086	-0.117582	9.802612				-0.002985	-0.000733	-0.002277				-0.506102	1.181489	-41.130255
01071	1506974	-0.202626	-0.113633	9.816628				-0.002569	-0.000796	-0.004426				-0.504831	1.180984	-41.130779
01072	1507024	-0.172993	-0.115866	9.787480				-0.002249	0.004581	-0.001418				-0.505484	1.182293	-41.131195
01073	1507074	-0.182138	-0.099721	9.776258				-0.007230	0.002137	-0.000547				-0.505526	1.182637	-41.130583
01074	1507124	-0.211471	-0.112140	9.780717				-0.000423	0.001446	-0.001144				-0.505654	1.183048	-41.130907
01075	1507174	-0.185902	-0.122892	9.788747				-0.002299	0.000192	0.000264				-0.504278	1.182838	-41.130088
01076	1507224	-0.192207	-0.122520	9.803638				-0.003713	0.000032	-0.001661				-0.505352	1.182843	-41.130569
01077	1507274	-0.197626	-0.111799	9.795272				-0.003532	-0.003522	-0.000589				-0.504334	1.181567	-41.129957
01078	1507324	-0.176985	-0.113255	9.797325				-0.004070	-0.001784	-0.000545				-0.505502	1.181054	-41.130107
01079	1507374	-0.217719	-0.104462	9.810952				-0.003143	0.001565	0.000246				-0.504368	1.181238	-41.129265
01080	1507424	-0.197402	-0.121364	9.796469				-0.003456	-0.000801	0.001223				-0.505351	1.181011	-41.128909
01081	1507474	-0.182125	-0.126597	9.802869				-0.002584	-0.000145	-0.001343				-0.504065	1.180700	-41.128536
01082	1507524	-0.191165	-0.124629	9.785896				-0.002699	0.001670	0.001008				-0.504833	1.181181	-41.128258
01083	1507574	-0.194703	-0.104161	9.795263				-0.003815	0.000153	-0.002556				-0.503909	1.180952	-41.128221
01084	1507624	-0.193822	-0.131934	9.812271				-0.003594	0.002559	-0.000525				-0.504941	1.181684	-41.128378
01085	1507674	-0.194354	-0.123375	9.806049				-0.005515	-0.000311	0.004021				-0.504465	1.181339	-41.126462
01086	1507724	-0.180209	-0.115173	9.807167				-0.007080	0.001495	0.000669				-0.506489	1.181769	-41.126281
01087	1507774	-0.160958	-0.140592	9.804441				-0.003096	-0.002121	-0.000295				-0.505345	1.180894	-41.125591
01088	1507824	-0.190257	-0.115026	9.790449				-0.005278	-0.000227	-0.002840				-0.506874	1.180822	-41.126405
01089	1507874	-0.185200	-0.095888	9.803354				-0.005063	0.002598	-0.000102				-0.506293	1.181300	-41.125667
01090	1507924	-0.184055	-0.108602	9.809581				-0.004271	-0.000663	-0.003684				-0.507539	1.181101	-41.126723
01091	1507974	-0.178812	-0.105344	9.803084				-0.006069	-0.000499	-0.002875				-0.507261	1.180684	-41.126782
01092	1508024	-0.200827	-0.118969	9.802719				0.001162	0.002094	-0.000186				-0.506930	1.181284	-41.126840
01093	1508074	-0.184046	-0.121275	9.789930				-0.003359	-0.000061	-0.002817				-0.505875	1.180993	-41.126888
01094	1508124	-0.192901	-0.118289	9.785183				-0.004312	0.001703	-0.001939				-0.507122	1.181476	-41.127447
01095	1508174	-0.183229	-0.114966	9.787775				-0.000419	0.003187	-0.004571				-0.505236	1.182112	-41.127976
01096	1508224	-0.188154	-0.118262	9.786360				-0.006077	0.003096	-0.000287				-0.506979	1.182998	-41.128071
01097	1508274	-0.201048	-0.107016	9.780425				0.000071	-0.000229	-0.002662				-0.504942	1.182659	-41.128081
01098	1508324	-0.198390	-0.108408	9.787130				-0.004414	-0.002476	-0.005230				-0.506238	1.181937	-41.129568
01099	1508374	-0.191120	-0.116522	9.800276				-0.002331	0.002963	-0.002162				-0.504886	1.182514	-41.129447
01100	1508424	-0.190213	-0.126109	9.790924				-0.002117	0.001223	-0.003614				-0.505514	1.182855	-41.130484
01101	1508474	-0.204091	-0.123110	9.794833				-0.005731	0.002293	-0.000036				-0.505123	1.183246	-41.129745
01102	1508524	-0.174594	-0.133493	9.797313				0.000580	-0.001226	-0.004502				-0.504983	1.182884	-41.131033
01103	1508574	-0.181856	-0.130158	9.796154				-0.005543	0.001062	-0.002899				-0.504556	1.182915	-41.131100
