// General information: 
//  MT Manager version: 2022.0.0 
//  XDA version: 2022.0.0 build 7085 rev 119802 built on 2022-11-08
// Device information: 
//  DeviceId: 037004D1
//  ProductCode: MTi-300-2A5G4
//  Firmware Version: 1.4.1
//  Hardware Version: 2.1.0
// Device settings: 
//  Filter Profile: general(39.16)
//  Option Flags: Orientation Smoother Disabled, Position/Velocity Smoother Disabled, Continuous Zero Rotation Update Disabled, AHS Disabled, ICC Disabled
// Coordinate system: ENU
PacketCounter	SampleTimeFine	Acc_X	Acc_Y	Acc_Z	AccHR_X	AccHR_Y	AccHR_Z	Gyr_X	Gyr_Y	Gyr_Z	GyrHR_X	GyrHR_Y	GyrHR_Z	Roll	Pitch	Yaw
00001	14412262	0.189180	-9.787519	-0.124840				-0.005791	-0.000764	-0.002897				-90.768629	-0.623611	-41.997937
00002	14412312	0.183621	-9.790689	-0.091947				-0.004096	-0.002239	0.002482				-90.769815	-0.622897	-41.997306
00003	14412362	0.171762	-9.777633	-0.118060				-0.006485	0.001367	0.001031				-90.769302	-0.621861	-41.997297
00004	14412412	0.187925	-9.797367	-0.102046				-0.005191	-0.000325	-0.000679				-90.770794	-0.622050	-41.997204
00005	14412462	0.187643	-9.795878	-0.106427				-0.004518	-0.000183	0.000893				-90.769691	-0.621049	-41.996752
00006	14412512	0.186536	-9.804944	-0.104258				-0.006738	0.002239	0.000525				-90.771620	-0.620913	-41.997397
00007	14412562	0.182787	-9.799460	-0.109291				-0.006114	0.001365	-0.003719				-90.770986	-0.621234	-41.997357
00008	14412612	0.187679	-9.794913	-0.107544				-0.003657	-0.001498	-0.003994				-90.772029	-0.622371	-41.996905
00009	14412662	0.187122	-9.797420	-0.098884				-0.002452	-0.000729	0.000240				-90.770371	-0.621551	-41.996321
00010	14412712	0.184848	-9.794006	-0.122417				-0.004701	-0.000639	0.000022				-90.771708	-0.621541	-41.996130
00011	14412762	0.201171	-9.805016	-0.118341				-0.002370	0.001597	-0.001259				-90.770005	-0.621163	-41.996196
00012	14412812	0.180729	-9.783372	-0.123373				-0.005051	0.000386	-0.001091				-90.771445	-0.621474	-41.996296
00013	14412862	0.201611	-9.800745	-0.118052				-0.002109	0.002535	-0.002535				-90.769679	-0.621470	-41.996623
00014	14412912	0.198721	-9.788973	-0.098892				-0.002094	-0.001952	-0.000763				-90.770302	-0.621685	-41.996072
00015	14412962	0.186902	-9.801893	-0.132373				-0.001399	-0.000513	0.002128				-90.768306	-0.620325	-41.995506
00016	14413012	0.187489	-9.800256	-0.099850				-0.003935	-0.000628	-0.001486				-90.769441	-0.620754	-41.995321
00017	14413062	0.174372	-9.795199	-0.115111				-0.002155	0.001121	0.000251				-90.767678	-0.619938	-41.995235
00018	14413112	0.178521	-9.794640	-0.117289				-0.004136	0.001460	-0.006225				-90.768861	-0.621730	-41.995630
00019	14413162	0.189189	-9.798135	-0.112859				-0.004934	-0.001553	-0.002483				-90.767903	-0.621683	-41.994785
00020	14413212	0.176841	-9.786369	-0.101297				-0.005025	-0.002489	-0.001174				-90.769354	-0.622006	-41.994074
00021	14413262	0.170787	-9.800861	-0.104809				-0.003207	-0.000256	-0.000428				-90.767884	-0.621380	-41.993592
00022	14413312	0.180378	-9.783416	-0.105589				-0.004488	-0.002319	-0.001463				-90.769173	-0.621784	-41.992921
00023	14413362	0.177287	-9.796269	-0.120416				-0.002328	-0.000568	0.000012				-90.767462	-0.621036	-41.992395
00024	14413412	0.180757	-9.807255	-0.113250				-0.004491	-0.000512	-0.003665				-90.768746	-0.622088	-41.992231
00025	14413462	0.182409	-9.787003	-0.117255				-0.000783	-0.001028	-0.002460				-90.766610	-0.622043	-41.991536
00026	14413512	0.188907	-9.798777	-0.102276				-0.004677	-0.000511	-0.001580				-90.767940	-0.622491	-41.991378
00027	14413562	0.182087	-9.779937	-0.114194				-0.004055	0.001147	-0.002567				-90.766728	-0.622487	-41.991256
00028	14413612	0.180856	-9.784872	-0.117903				-0.006888	0.001041	0.001163				-90.768698	-0.622155	-41.991560
00029	14413662	0.192401	-9.793038	-0.101993				-0.003479	0.002318	-0.001189				-90.767289	-0.621754	-41.991839
00030	14413712	0.184865	-9.795260	-0.118079				-0.005826	0.001505	-0.001374				-90.768961	-0.622153	-41.992265
00031	14413762	0.194630	-9.775646	-0.120962				-0.003581	0.000413	-0.001803				-90.767598	-0.621926	-41.991981
00032	14413812	0.189567	-9.803208	-0.121909				-0.002267	0.000303	-0.002967				-90.768244	-0.622777	-41.992055
00033	14413862	0.187436	-9.794558	-0.115454				-0.004207	-0.004121	0.000131				-90.767085	-0.621988	-41.990472
00034	14413912	0.195367	-9.798301	-0.112357				-0.003514	0.000350	-0.001197				-90.768093	-0.622335	-41.990568
00035	14413962	0.182077	-9.793844	-0.120013				-0.005409	-0.001626	-0.002351				-90.767270	-0.622248	-41.989705
00036	14414012	0.183610	-9.797783	-0.125271				-0.004652	0.003751	-0.003900				-90.768601	-0.623378	-41.990768
00037	14414062	0.198642	-9.791808	-0.115506				-0.003126	-0.001808	-0.000566				-90.767137	-0.622791	-41.989860
00038	14414112	0.189976	-9.789976	-0.133695				-0.003526	0.000441	-0.004272				-90.768149	-0.624013	-41.989971
00039	14414162	0.180967	-9.791989	-0.102421				-0.002278	0.000557	-0.004438				-90.766417	-0.624546	-41.989719
00040	14414212	0.194791	-9.802238	-0.103251				-0.005086	0.000717	0.001887				-90.767876	-0.624009	-41.989941
00041	14414262	0.194544	-9.800094	-0.119790				-0.003603	0.002090	-0.002660				-90.766522	-0.624036	-41.990037
00042	14414312	0.180849	-9.782913	-0.106822				-0.005802	-0.000305	-0.001545				-90.768174	-0.624477	-41.989930
00043	14414362	0.177045	-9.779249	-0.116536				-0.002117	0.005096	0.000781				-90.766380	-0.623526	-41.990999
00044	14414412	0.191885	-9.805757	-0.108488				-0.002363	0.002341	-0.002248				-90.767042	-0.624173	-41.991669
00045	14414462	0.194366	-9.794734	-0.129580				-0.003015	0.000945	0.000185				-90.765540	-0.623381	-41.991548
00046	14414512	0.187928	-9.793571	-0.102182				-0.000869	0.000718	-0.002486				-90.765792	-0.624096	-41.991744
00047	14414562	0.183688	-9.790241	-0.121320				-0.001026	-0.001454	-0.002050				-90.763708	-0.623938	-41.990923
00048	14414612	0.190709	-9.785150	-0.107933				-0.000031	-0.002633	-0.003818				-90.763727	-0.625021	-41.990150
00049	14414662	0.189889	-9.783692	-0.110445				-0.006168	0.000208	0.000380				-90.763105	-0.624172	-41.989818
00050	14414712	0.178577	-9.801582	-0.097104				-0.001375	0.000978	0.001755				-90.763495	-0.623675	-41.990101
00051	14414762	0.193038	-9.784554	-0.113502				-0.000926	0.000654	-0.001074				-90.761378	-0.623230	-41.989878
00052	14414812	0.183472	-9.799948	-0.107495				-0.005049	0.001226	-0.001378				-90.762822	-0.623632	-41.990225
00053	14414862	0.175012	-9.795322	-0.106897				-0.000295	0.002902	-0.000929				-90.760528	-0.623168	-41.990660
00054	14414912	0.176820	-9.793744	-0.114791				0.000170	0.001385	-0.002224				-90.760487	-0.623811	-41.991059
00055	14414962	0.179097	-9.773695	-0.105810				-0.002789	0.003652	-0.003552				-90.758880	-0.624104	-41.991674
00056	14415012	0.179596	-9.795405	-0.112980				-0.003257	-0.000746	-0.001262				-90.759828	-0.624465	-41.991461
00057	14415062	0.186999	-9.805161	-0.104989				-0.008537	0.002431	0.000370				-90.759864	-0.623609	-41.991748
00058	14415112	0.194986	-9.782997	-0.120747				-0.003111	-0.000161	-0.001524				-90.760751	-0.624046	-41.991693
00059	14415162	0.168734	-9.786958	-0.115673				-0.006742	0.000361	0.001863				-90.760323	-0.622777	-41.991423
00060	14415212	0.173013	-9.773109	-0.118190				-0.002097	0.001018	-0.002091				-90.760922	-0.623383	-41.991708
00061	14415262	0.179224	-9.781295	-0.120692				-0.004870	-0.000186	0.000122				-90.759937	-0.622606	-41.991265
00062	14415312	0.189345	-9.798997	-0.118409				-0.005730	0.000770	0.002340				-90.761574	-0.621937	-41.991497
00063	14415362	0.191079	-9.781515	-0.096966				-0.003250	0.000928	-0.003729				-90.760140	-0.622260	-41.991366
00064	14415412	0.174535	-9.800236	-0.095896				-0.001840	-0.001042	-0.002360				-90.760672	-0.622933	-41.991060
00065	14415462	0.189202	-9.793976	-0.120762				-0.003192	0.005430	-0.001521				-90.759193	-0.622653	-41.992232
00066	14415512	0.200391	-9.784098	-0.106336				-0.001066	-0.001065	-0.001083				-90.759485	-0.622954	-41.991909
00067	14415562	0.189876	-9.799353	-0.110135				-0.003058	0.003269	-0.001726				-90.757977	-0.622716	-41.992473
00068	14415612	0.169958	-9.793186	-0.110555				-0.003593	0.000099	0.001980				-90.759002	-0.622152	-41.992512
00069	14415662	0.195280	-9.803357	-0.091982				-0.005905	0.003383	0.000782				-90.758309	-0.621198	-41.993090
00070	14415712	0.165427	-9.796080	-0.127050				-0.001784	-0.001752	-0.001401				-90.758823	-0.621592	-41.992579
00071	14415762	0.178905	-9.803616	-0.103924				-0.006641	0.001137	0.000647				-90.758341	-0.620665	-41.992506
00072	14415812	0.193656	-9.784099	-0.096775				-0.003505	0.000122	-0.000652				-90.759351	-0.620853	-41.992543
00073	14415862	0.196992	-9.796178	-0.110772				-0.007764	-0.001050	-0.001610				-90.759198	-0.620566	-41.991837
00074	14415912	0.184064	-9.797793	-0.108457				-0.005570	-0.000298	0.001308				-90.760779	-0.620192	-41.991747
00075	14415962	0.196600	-9.798181	-0.103759				-0.005338	-0.003082	-0.003807				-90.759955	-0.620524	-41.990466
00076	14416012	0.192532	-9.777940	-0.112112				-0.002520	-0.000635	-0.000306				-90.760681	-0.620609	-41.990280
00077	14416062	0.188656	-9.783464	-0.095073				-0.002497	0.002760	-0.001731				-90.759020	-0.620379	-41.990700
00078	14416112	0.184387	-9.802435	-0.130499				-0.004147	-0.000115	-0.002640				-90.760220	-0.621134	-41.990660
00079	14416162	0.193848	-9.785035	-0.112643				-0.004212	0.002079	-0.003207				-90.759015	-0.621315	-41.990833
00080	14416212	0.186542	-9.789735	-0.105605				-0.003156	-0.000672	0.001334				-90.759933	-0.620928	-41.990655
00081	14416262	0.191800	-9.797229	-0.123068				-0.002392	-0.000532	0.000751				-90.758228	-0.619976	-41.990090
00082	14416312	0.197147	-9.797229	-0.103267				-0.003541	0.001421	0.000671				-90.759241	-0.619789	-41.990502
00083	14416362	0.183996	-9.790643	-0.110620				-0.004656	0.004442	0.001591				-90.758183	-0.618611	-41.991383
00084	14416412	0.184255	-9.779272	-0.093906				-0.003690	-0.000139	-0.001101				-90.759239	-0.618921	-41.991343
00085	14416462	0.191689	-9.793077	-0.116009				-0.005559	0.000320	0.001121				-90.758451	-0.617861	-41.991019
00086	14416512	0.191975	-9.799944	-0.116371				-0.002469	-0.000916	0.002775				-90.759166	-0.617062	-41.990766
00087	14416562	0.180612	-9.796675	-0.106831				-0.006084	0.001598	-0.001372				-90.758523	-0.616715	-41.990813
00088	14416612	0.191202	-9.798839	-0.127187				-0.001352	-0.000358	-0.003549				-90.758913	-0.617731	-41.990694
00089	14416662	0.190097	-9.799488	-0.101038				-0.003284	-0.002845	-0.000601				-90.757493	-0.617154	-41.989470
00090	14416712	0.190329	-9.792479	-0.125094				-0.005839	0.002125	0.000940				-90.759164	-0.616896	-41.990086
00091	14416762	0.165492	-9.793759	-0.123922				-0.002649	-0.000096	-0.006875				-90.757526	-0.618117	-41.989635
00092	14416812	0.178088	-9.773795	-0.115866				-0.004239	0.000051	-0.000101				-90.758729	-0.618145	-41.989648
00093	14416862	0.179432	-9.786777	-0.103705				-0.003763	0.002187	-0.001696				-90.757447	-0.617905	-41.989868
00094	14416912	0.179924	-9.803668	-0.115354				-0.002887	-0.002027	0.001775				-90.758270	-0.617385	-41.989289
00095	14416962	0.183505	-9.785741	-0.106119				-0.004733	0.001430	-0.000800				-90.757259	-0.616877	-41.989318
00096	14417012	0.186675	-9.776724	-0.103238				-0.003308	0.000870	-0.002537				-90.758203	-0.617610	-41.989560
00097	14417062	0.181956	-9.791885	-0.108778				-0.007141	-0.001559	-0.002415				-90.757878	-0.617557	-41.988702
00098	14417112	0.183909	-9.781972	-0.103939				-0.004673	0.001621	-0.001603				-90.759205	-0.618021	-41.989156
00099	14417162	0.186552	-9.805497	-0.099089				-0.000977	-0.003006	-0.002252				-90.757108	-0.617905	-41.987869
00100	14417212	0.188111	-9.782859	-0.104106				-0.000256	-0.003106	0.002980				-90.757187	-0.617037	-41.986990
00101	14417262	0.190320	-9.799870	-0.107324				-0.005404	0.001485	0.001125				-90.756384	-0.615988	-41.987025
00102	14417312	0.187815	-9.792213	-0.129145				-0.003096	-0.003205	-0.004485				-90.757274	-0.617262	-41.986084
00103	14417362	0.198356	-9.798171	-0.102843				-0.004022	-0.001693	0.001135				-90.756040	-0.616182	-41.985195
00104	14417412	0.198968	-9.780396	-0.117033				-0.007163	0.001322	-0.000831				-90.758088	-0.616429	-41.985568
00105	14417462	0.178174	-9.796690	-0.107634				-0.001375	0.003780	-0.001729				-90.756090	-0.616194	-41.986280
00106	14417512	0.204971	-9.811598	-0.103848				-0.006722	0.001458	-0.001530				-90.758024	-0.616640	-41.986701
00107	14417562	0.174956	-9.792770	-0.103202				-0.003945	-0.001174	-0.000111				-90.756768	-0.615925	-41.985969
00108	14417612	0.179232	-9.782447	-0.107657				-0.002729	-0.000286	-0.002035				-90.757551	-0.616508	-41.985879
00109	14417662	0.176321	-9.801475	-0.121806				-0.002024	0.004326	0.001871				-90.755738	-0.615253	-41.986735
00110	14417712	0.179857	-9.793209	-0.116596				-0.004385	0.000593	-0.000931				-90.756986	-0.615518	-41.986903
00111	14417762	0.185110	-9.790209	-0.122386				-0.003112	-0.000418	-0.001871				-90.755509	-0.615315	-41.986390
00112	14417812	0.200170	-9.803906	-0.114559				-0.005657	0.000247	-0.001097				-90.757126	-0.615628	-41.986458
00113	14417862	0.195631	-9.799644	-0.117735				-0.008664	0.004201	-0.001834				-90.757205	-0.615423	-41.987252
00114	14417912	0.182447	-9.803026	-0.109040				-0.008395	0.002111	0.001296				-90.759614	-0.615064	-41.987864
00115	14417962	0.182606	-9.808308	-0.104383				-0.002916	-0.001483	-0.001497				-90.758081	-0.614741	-41.986971
00116	14418012	0.171350	-9.795531	-0.111278				-0.004445	0.003269	-0.004608				-90.759336	-0.616073	-41.987884
00117	14418062	0.186304	-9.794050	-0.118607				-0.004794	0.000164	-0.002059				-90.758355	-0.615930	-41.987547
00118	14418112	0.184564	-9.788317	-0.122407				-0.006578	0.000037	-0.000417				-90.760243	-0.616053	-41.987550
00119	14418162	0.183945	-9.791159	-0.107406				-0.000725	-0.000468	0.001743				-90.758073	-0.614808	-41.987036
00120	14418212	0.179422	-9.803811	-0.106749				-0.002630	-0.001378	-0.001592				-90.758831	-0.615259	-41.986638
00121	14418262	0.188442	-9.810738	-0.095429				0.000822	-0.001995	0.000127				-90.756217	-0.614479	-41.985651
00122	14418312	0.186280	-9.791989	-0.113698				-0.002560	0.000591	-0.001740				-90.756963	-0.614985	-41.985822
00123	14418362	0.184164	-9.783985	-0.127205				-0.005433	-0.000078	-0.003593				-90.756137	-0.615267	-41.985388
00124	14418412	0.186017	-9.807793	-0.104420				-0.004776	0.002180	0.003052				-90.757500	-0.614404	-41.986023
00125	14418462	0.200313	-9.790058	-0.120060				-0.003441	-0.002006	-0.001274				-90.756115	-0.614016	-41.984997
00126	14418512	0.179574	-9.810129	-0.111941				-0.006666	0.002619	-0.004219				-90.758011	-0.615231	-41.985723
00127	14418562	0.191271	-9.796890	-0.114919				-0.003766	0.001452	0.001664				-90.756705	-0.614020	-41.985783
00128	14418612	0.200619	-9.803236	-0.110996				-0.004486	0.001854	0.000513				-90.757991	-0.613881	-41.986316
00129	14418662	0.181558	-9.796097	-0.113120				-0.000797	0.000555	-0.002516				-90.755845	-0.613865	-41.986073
00130	14418712	0.174855	-9.775836	-0.109369				-0.003061	0.002296	-0.002082				-90.756717	-0.614470	-41.986718
00131	14418762	0.202395	-9.794630	-0.098984				-0.003289	0.000226	-0.002191				-90.755278	-0.614367	-41.986371
00132	14418812	0.184903	-9.797231	-0.113203				-0.001710	0.000024	-0.001168				-90.755784	-0.614702	-41.986374
00133	14418862	0.180866	-9.779679	-0.116292				-0.003743	0.002605	-0.002240				-90.754467	-0.614608	-41.986729
00134	14418912	0.216894	-9.808565	-0.106678				-0.002461	-0.001665	-0.001085				-90.755189	-0.614915	-41.986251
00135	14418962	0.186846	-9.800138	-0.107693				-0.001122	0.001650	-0.001709				-90.753115	-0.614672	-41.986309
00136	14419012	0.178991	-9.797920	-0.119619				0.000373	0.000033	-0.001591				-90.753006	-0.615133	-41.986309
00137	14419062	0.178710	-9.801335	-0.113630				-0.001533	0.002582	-0.001927				-90.751058	-0.614954	-41.986647
00138	14419112	0.187424	-9.792547	-0.122852				-0.003909	-0.000365	0.000150				-90.752188	-0.614913	-41.986551
00139	14419162	0.187448	-9.790013	-0.118408				-0.006479	0.002012	-0.001950				-90.751649	-0.614732	-41.986751
00140	14419212	0.181421	-9.804591	-0.115653				-0.004917	-0.000869	-0.000011				-90.753058	-0.614734	-41.986493
00141	14419262	0.184065	-9.795742	-0.133682				-0.003941	0.001469	-0.001862				-90.751807	-0.614533	-41.986512
00142	14419312	0.203069	-9.822729	-0.106946				-0.007430	0.001472	-0.004006				-90.753933	-0.615689	-41.986914
00143	14419362	0.186751	-9.794427	-0.109458				-0.004040	-0.000276	-0.002095				-90.752714	-0.615553	-41.986429
00144	14419412	0.186315	-9.789112	-0.100318				-0.004323	-0.001211	0.001846				-90.753961	-0.615023	-41.986095
00145	14419462	0.200237	-9.788011	-0.114290				-0.002763	0.000844	-0.002062				-90.752359	-0.614875	-41.985929
00146	14419512	0.188011	-9.806011	-0.095288				-0.002886	0.001752	-0.001603				-90.753188	-0.615342	-41.986429
00147	14419562	0.172641	-9.809012	-0.097651				-0.003725	-0.001273	-0.003578				-90.751871	-0.615624	-41.985640
00148	14419612	0.194933	-9.788901	-0.107046				-0.001645	0.002192	-0.001191				-90.752329	-0.615967	-41.986267
00149	14419662	0.173870	-9.793194	-0.107268				-0.004726	0.002201	-0.002719				-90.751321	-0.616022	-41.986492
00150	14419712	0.181722	-9.803919	-0.128543				-0.003017	0.000843	-0.001638				-90.752186	-0.616495	-41.986728
00151	14419762	0.185051	-9.799544	-0.101505				-0.002237	0.000565	-0.000044				-90.750435	-0.615769	-41.986487
00152	14419812	0.174483	-9.771070	-0.110875				-0.005713	0.001159	0.000677				-90.752074	-0.615577	-41.986821
00153	14419862	0.173871	-9.795839	-0.096411				-0.002037	0.002410	-0.001319				-90.750271	-0.615229	-41.987088
00154	14419912	0.195004	-9.802403	-0.118006				-0.004081	0.001505	0.002848				-90.751433	-0.614415	-41.987528
00155	14419962	0.184845	-9.801122	-0.117203				-0.003353	-0.000427	0.000816				-90.750000	-0.613441	-41.987008
00156	14420012	0.193627	-9.777667	-0.092023				-0.001269	-0.000647	0.000808				-90.750365	-0.613209	-41.986826
00157	14420062	0.198929	-9.810231	-0.099067				-0.004169	0.000784	-0.002163				-90.749202	-0.613099	-41.986625
00158	14420112	0.186347	-9.793146	-0.109519				-0.002909	0.002714	-0.000034				-90.750023	-0.613119	-41.987405
00159	14420162	0.200501	-9.786690	-0.101778				-0.006427	-0.001711	-0.000118				-90.749485	-0.612405	-41.986484
00160	14420212	0.176020	-9.784863	-0.101191				-0.006366	-0.000745	-0.003317				-90.751324	-0.613355	-41.986267
00161	14420262	0.189648	-9.783931	-0.104687				-0.001572	-0.001571	-0.004779				-90.749386	-0.613981	-41.985383
00162	14420312	0.184767	-9.802814	-0.114466				-0.002969	0.000749	0.001876				-90.750237	-0.613444	-41.985610
00163	14420362	0.188638	-9.797977	-0.102838				-0.003229	-0.001758	-0.003909				-90.748791	-0.613819	-41.984701
00164	14420412	0.176183	-9.797133	-0.121012				-0.004862	-0.000285	0.001815				-90.750190	-0.613300	-41.984627
00165	14420462	0.196061	-9.810862	-0.106931				-0.002886	0.000905	-0.000720				-90.748633	-0.612780	-41.984475
00166	14420512	0.197219	-9.803951	-0.107603				-0.001039	0.001192	-0.002392				-90.748937	-0.613467	-41.984812
00167	14420562	0.192068	-9.786748	-0.104749				-0.004245	-0.000840	-0.002971				-90.747775	-0.613580	-41.984165
00168	14420612	0.190135	-9.795378	-0.100071				0.000247	-0.003047	-0.000940				-90.747716	-0.613837	-41.983283
00169	14420662	0.172163	-9.798754	-0.111453				-0.006263	0.000364	-0.000037				-90.747127	-0.613109	-41.983013
00170	14420712	0.168861	-9.781425	-0.099112				-0.003638	-0.001895	-0.003296				-90.748167	-0.614043	-41.982453
00171	14420762	0.188948	-9.773857	-0.112379				-0.001827	-0.000042	0.001516				-90.746323	-0.612882	-41.982045
00172	14420812	0.183510	-9.798795	-0.099582				-0.001038	0.002135	-0.001870				-90.746607	-0.613426	-41.982651
00173	14420862	0.189229	-9.785977	-0.126401				-0.008772	0.004711	-0.002030				-90.746741	-0.613288	-41.983590
00174	14420912	0.186032	-9.793011	-0.119087				-0.002853	0.002711	-0.003278				-90.747545	-0.614237	-41.984358
00175	14420962	0.180504	-9.787452	-0.129818				-0.002079	-0.001576	-0.002822				-90.745770	-0.614305	-41.983489
00176	14421012	0.199739	-9.811519	-0.107354				-0.000764	0.000488	-0.001565				-90.745995	-0.614757	-41.983623
00177	14421062	0.187974	-9.786849	-0.117220				-0.004295	-0.001188	-0.000630				-90.744836	-0.614199	-41.982874
00178	14421112	0.189462	-9.790325	-0.120697				0.000149	0.001349	-0.000083				-90.744789	-0.614227	-41.983258
00179	14421162	0.200320	-9.803653	-0.109433				-0.005945	-0.001865	-0.001914				-90.744115	-0.614022	-41.982335
00180	14421212	0.180283	-9.799769	-0.116037				-0.005450	0.000955	-0.001384				-90.745680	-0.614427	-41.982604
00181	14421262	0.182852	-9.799587	-0.110206				-0.001071	-0.000778	-0.000895				-90.743612	-0.613942	-41.981964
00182	14421312	0.171938	-9.767027	-0.107549				-0.002825	0.000004	0.000046				-90.744406	-0.613925	-41.981967
00183	14421362	0.183276	-9.793695	-0.107430				-0.005136	0.002091	-0.001637				-90.743511	-0.613665	-41.982167
00184	14421412	0.197198	-9.779268	-0.108883				-0.005668	-0.000406	-0.002194				-90.745130	-0.614293	-41.982038
00185	14421462	0.188459	-9.798239	-0.100433				-0.003117	0.002226	-0.001066				-90.743633	-0.613872	-41.982247
00186	14421512	0.207545	-9.807787	-0.112227				-0.002714	0.002456	-0.001390				-90.744406	-0.614281	-41.982953
00187	14421562	0.183571	-9.788444	-0.124806				-0.001839	0.007424	-0.000270				-90.742530	-0.613644	-41.984659
00188	14421612	0.195457	-9.797975	-0.112426				-0.003359	-0.000327	0.000752				-90.743501	-0.613426	-41.984574
00189	14421662	0.168567	-9.769877	-0.125925				-0.002100	-0.000698	-0.000507				-90.741720	-0.612834	-41.983953
00190	14421712	0.189799	-9.783595	-0.110782				-0.007854	0.002079	-0.000893				-90.743967	-0.613098	-41.984544
00191	14421762	0.161932	-9.783861	-0.116089				-0.002747	0.000847	0.001400				-90.742383	-0.611961	-41.984398
00192	14421812	0.192019	-9.805615	-0.111595				0.001315	-0.000316	-0.001442				-90.741996	-0.612368	-41.984295
00193	14421862	0.164951	-9.794890	-0.106034				-0.000879	-0.000705	0.000007				-90.739874	-0.611633	-41.983727
00194	14421912	0.192953	-9.799319	-0.119580				-0.002001	-0.000858	-0.001532				-90.740448	-0.612066	-41.983478
00195	14421962	0.180512	-9.796719	-0.114041				-0.002421	0.003402	-0.002083				-90.738751	-0.611941	-41.984039
00196	14422012	0.200681	-9.792809	-0.120424				-0.004523	-0.000966	0.000172				-90.740056	-0.611889	-41.983769
00197	14422062	0.179734	-9.785744	-0.102556				-0.003412	0.000611	0.002363				-90.738659	-0.610475	-41.983551
00198	14422112	0.158539	-9.773184	-0.088327				-0.004338	0.000429	0.001208				-90.739903	-0.610131	-41.983681
00199	14422162	0.172596	-9.797785	-0.112269				-0.001302	0.003614	-0.001928				-90.737882	-0.609953	-41.984311
00200	14422212	0.173533	-9.782177	-0.092747				-0.004721	0.000159	-0.000880				-90.739234	-0.610211	-41.984352
00201	14422262	0.189765	-9.787497	-0.104059				-0.004922	-0.001455	0.001520				-90.738261	-0.609027	-41.983539
00202	14422312	0.195002	-9.796882	-0.106988				-0.005259	0.002927	-0.001954				-90.739754	-0.609595	-41.984363
00203	14422362	0.212674	-9.801737	-0.100522				-0.001685	0.003182	-0.003825				-90.737845	-0.609975	-41.984835
00204	14422412	0.181194	-9.796276	-0.110750				-0.005320	-0.000236	-0.001011				-90.739371	-0.610262	-41.984766
00205	14422462	0.180621	-9.788016	-0.108566				-0.003401	-0.002276	-0.001408				-90.737974	-0.609921	-41.983724
00206	14422512	0.199076	-9.802573	-0.119219				-0.005009	-0.000709	0.001652				-90.739412	-0.609451	-41.983523
00207	14422562	0.187866	-9.798971	-0.115361				-0.005133	0.000259	0.001463				-90.738528	-0.608294	-41.983213
00208	14422612	0.169912	-9.801509	-0.103930				-0.003905	0.002059	0.003110				-90.739645	-0.607412	-41.983818
00209	14422662	0.192804	-9.807507	-0.096591				-0.002677	-0.001137	-0.005994				-90.738001	-0.608382	-41.983044
00210	14422712	0.187624	-9.795848	-0.118120				-0.002520	-0.002576	0.001085				-90.738733	-0.608063	-41.982311
00211	14422762	0.178399	-9.792907	-0.100861				-0.003173	-0.000038	0.001301				-90.737256	-0.606956	-41.981902
00212	14422812	0.188095	-9.809999	-0.123417				-0.003668	-0.000657	-0.000116				-90.738312	-0.606987	-41.981714
00213	14422862	0.178136	-9.779183	-0.114513				-0.005496	0.004445	-0.000820				-90.737506	-0.606512	-41.982593
00214	14422912	0.173829	-9.792183	-0.090109				-0.005294	0.000187	-0.000265				-90.739017	-0.606587	-41.982646
00215	14422962	0.167447	-9.804939	-0.114002				-0.002916	-0.000195	-0.000822				-90.737478	-0.606093	-41.982179
00216	14423012	0.199642	-9.804673	-0.105506				-0.003394	-0.000469	-0.002843				-90.738450	-0.606905	-41.982033
00217	14423062	0.186791	-9.799794	-0.124327				-0.001298	-0.000709	0.000072				-90.736447	-0.606146	-41.981443
00218	14423112	0.168006	-9.790857	-0.119019				-0.004202	0.002375	0.001223				-90.737640	-0.605804	-41.982131
00219	14423162	0.184646	-9.799682	-0.133528				-0.004590	-0.003036	-0.000061				-90.736571	-0.605075	-41.980859
00220	14423212	0.169564	-9.785378	-0.103935				-0.006103	0.004469	-0.000884				-90.738307	-0.605341	-41.982138
00221	14423262	0.182993	-9.792953	-0.109370				-0.006064	0.002241	0.000259				-90.737672	-0.604546	-41.982336
00222	14423312	0.186598	-9.795667	-0.099727				-0.003064	0.000450	-0.000656				-90.738546	-0.604735	-41.982460
00223	14423362	0.180014	-9.798674	-0.110405				-0.002113	0.000724	-0.001303				-90.736757	-0.604380	-41.982260
00224	14423412	0.196051	-9.790800	-0.131137				-0.002319	-0.000127	-0.003839				-90.737417	-0.605482	-41.982199
00225	14423462	0.179326	-9.794859	-0.112091				-0.001106	0.003257	-0.003087				-90.735353	-0.605651	-41.982712
00226	14423512	0.192748	-9.791499	-0.103573				-0.002136	0.000270	-0.002525				-90.735959	-0.606373	-41.982781
00227	14423562	0.184642	-9.797317	-0.117588				-0.000671	-0.000384	-0.002661				-90.733782	-0.606392	-41.982263
00228	14423612	0.198794	-9.803089	-0.101004				-0.005772	0.000951	-0.001644				-90.735427	-0.606865	-41.982526
00229	14423662	0.197845	-9.806706	-0.082589				-0.007243	0.001925	-0.001251				-90.735122	-0.606509	-41.982664
00230	14423712	0.188187	-9.795801	-0.120587				-0.004338	0.000001	-0.002614				-90.736364	-0.607258	-41.982653
00231	14423762	0.206521	-9.796864	-0.129408				0.000446	-0.000100	0.000322				-90.733853	-0.606423	-41.982203
00232	14423812	0.186222	-9.797393	-0.111257				-0.004483	-0.000286	-0.000853				-90.735136	-0.606663	-41.982122
00233	14423862	0.213867	-9.802994	-0.110472				-0.006504	0.003009	-0.001150				-90.734615	-0.606278	-41.982588
00234	14423912	0.190762	-9.792094	-0.112848				-0.002788	0.000107	0.002612				-90.735412	-0.605532	-41.982627
00235	14423962	0.179578	-9.788645	-0.115022				-0.003932	-0.000175	0.001200				-90.734158	-0.604446	-41.982176
00236	14424012	0.176535	-9.800933	-0.135891				-0.005718	0.001669	0.002631				-90.735792	-0.603695	-41.982660
00237	14424062	0.169872	-9.791679	-0.095225				-0.000414	0.002594	-0.003409				-90.733523	-0.603952	-41.983000
00238	14424112	0.172803	-9.779582	-0.092914				-0.004031	-0.000571	-0.001816				-90.734677	-0.604470	-41.982837
00239	14424162	0.182582	-9.808776	-0.114817				-0.003359	0.002509	-0.003211				-90.733232	-0.604660	-41.983081
00240	14424212	0.200743	-9.805407	-0.118606				-0.008372	0.001933	-0.004806				-90.735627	-0.606047	-41.983623
00241	14424262	0.197560	-9.802192	-0.114383				-0.003840	0.004435	-0.005126				-90.734352	-0.606802	-41.984422
00242	14424312	0.180450	-9.805470	-0.130807				-0.002351	0.000012	-0.001142				-90.735025	-0.607129	-41.984424
00243	14424362	0.193393	-9.778764	-0.129097				0.000376	0.002331	0.002388				-90.732526	-0.605718	-41.984661
00244	14424412	0.184668	-9.788049	-0.118937				-0.005789	-0.001442	0.000013				-90.734194	-0.605711	-41.984250
00245	14424462	0.176650	-9.792275	-0.112358				-0.003965	0.001629	-0.001223				-90.732951	-0.605338	-41.984311
00246	14424512	0.164079	-9.799060	-0.113181				-0.001621	-0.001752	-0.000446				-90.733433	-0.605462	-41.983816
00247	14424562	0.182709	-9.774332	-0.102069				-0.004785	0.000356	-0.000526				-90.732401	-0.604873	-41.983515
00248	14424612	0.200007	-9.784581	-0.100185				-0.002186	0.003955	-0.003175				-90.733017	-0.605800	-41.984636
00249	14424662	0.204351	-9.797220	-0.092595				-0.004032	0.000890	0.000631				-90.731808	-0.604884	-41.984501
00250	14424712	0.196509	-9.789392	-0.099077				-0.005748	0.002275	-0.001510				-90.733452	-0.605324	-41.985145
00251	14424762	0.203992	-9.803385	-0.092908				-0.004885	0.000452	0.000438				-90.732451	-0.604469	-41.984872
00252	14424812	0.197616	-9.777808	-0.110708				0.000077	0.000474	-0.000634				-90.732432	-0.604652	-41.985003
00253	14424862	0.169881	-9.786151	-0.115457				-0.003691	-0.000012	-0.000751				-90.731092	-0.604134	-41.984573
00254	14424912	0.167951	-9.781157	-0.117544				-0.002278	-0.000121	-0.002455				-90.731731	-0.604837	-41.984519
00255	14424962	0.195863	-9.799367	-0.098586				-0.003909	0.000081	0.001457				-90.730489	-0.603687	-41.984163
00256	14425012	0.183471	-9.785148	-0.107831				-0.003974	0.002722	-0.003050				-90.731625	-0.604575	-41.984931
00257	14425062	0.175950	-9.795997	-0.102524				-0.002284	0.001110	-0.002356				-90.729900	-0.604521	-41.984831
00258	14425112	0.170634	-9.788643	-0.122919				-0.004976	0.002161	-0.000576				-90.731318	-0.604693	-41.985453
00259	14425162	0.198145	-9.800718	-0.117035				-0.004288	0.001822	0.001661				-90.730166	-0.603498	-41.985577
00260	14425212	0.182792	-9.783474	-0.109309				-0.004409	0.002758	0.001188				-90.731418	-0.603169	-41.986358
00261	14425262	0.180942	-9.816360	-0.115883				-0.002021	-0.001112	0.000328				-90.729618	-0.602335	-41.985686
00262	14425312	0.191034	-9.809664	-0.096165				-0.005809	0.002148	-0.001732				-90.731272	-0.602842	-41.986292
00263	14425362	0.170315	-9.782279	-0.104475				-0.005932	-0.001387	-0.004924				-90.730624	-0.603512	-41.985498
00264	14425412	0.177023	-9.798826	-0.102422				-0.006284	-0.000457	-0.004954				-90.732430	-0.604926	-41.985353
00265	14425462	0.195426	-9.800087	-0.097780				-0.001579	0.001255	-0.000469				-90.730485	-0.604333	-41.985290
00266	14425512	0.173534	-9.788504	-0.113367				0.001460	-0.000992	-0.003053				-90.730066	-0.605207	-41.984985
00267	14425562	0.180557	-9.786255	-0.114962				-0.000780	0.000527	0.001773				-90.727895	-0.603969	-41.984748
00268	14425612	0.183725	-9.780094	-0.096559				-0.004825	0.000644	0.000694				-90.729275	-0.603774	-41.984930
00269	14425662	0.195975	-9.798654	-0.114186				-0.003736	-0.001794	-0.000674				-90.727997	-0.603233	-41.984004
00270	14425712	0.191752	-9.798298	-0.109845				-0.006551	0.000060	-0.004242				-90.729883	-0.604449	-41.984011
00271	14425762	0.186672	-9.788010	-0.119743				0.000017	-0.003253	-0.004568				-90.727505	-0.605018	-41.982651
00272	14425812	0.194062	-9.794656	-0.113664				-0.004369	0.000036	-0.000658				-90.728762	-0.605208	-41.982663
00273	14425862	0.193094	-9.792258	-0.115988				-0.001274	-0.001660	-0.003272				-90.726747	-0.605404	-41.981804
00274	14425912	0.195085	-9.807628	-0.101878				-0.001219	-0.001263	-0.002244				-90.727095	-0.606040	-41.981426
00275	14425962	0.197350	-9.779884	-0.099440				-0.000823	0.001491	-0.000978				-90.724947	-0.605601	-41.981480
00276	14426012	0.190846	-9.795898	-0.112268				-0.007367	-0.002173	0.002226				-90.727063	-0.604956	-41.980873
00277	14426062	0.176666	-9.813225	-0.123349				-0.003572	0.003380	-0.000349				-90.725700	-0.604344	-41.981428
00278	14426112	0.174239	-9.794394	-0.115501				-0.004060	-0.000276	0.001589				-90.726862	-0.603885	-41.981350
00279	14426162	0.189077	-9.790750	-0.093437				-0.003406	-0.001721	0.000616				-90.725480	-0.602977	-41.980452
00280	14426212	0.199089	-9.801822	-0.106000				-0.002699	0.000940	-0.002648				-90.726252	-0.603745	-41.980709
00281	14426262	0.186579	-9.812939	-0.103086				-0.004651	0.000873	-0.001836				-90.725190	-0.603535	-41.980557
00282	14426312	0.182320	-9.813069	-0.113079				-0.003023	0.001259	0.000630				-90.726044	-0.603357	-41.980912
00283	14426362	0.181380	-9.799245	-0.102749				-0.001281	-0.000968	0.001545				-90.724036	-0.602186	-41.980241
00284	14426412	0.184356	-9.788735	-0.105482				-0.004626	0.001293	-0.000519				-90.725351	-0.602342	-41.980614
00285	14426462	0.188148	-9.784550	-0.111971				-0.004847	0.002295	0.000609				-90.724356	-0.601443	-41.980938
00286	14426512	0.193413	-9.805789	-0.114936				0.001656	-0.001794	0.000312				-90.723893	-0.601349	-41.980423
00287	14426562	0.171731	-9.794923	-0.098206				-0.003446	0.001807	0.002532				-90.722519	-0.599909	-41.980546
00288	14426612	0.174206	-9.790964	-0.107268				-0.003769	0.002602	-0.000644				-90.723586	-0.600099	-41.981289
00289	14426662	0.195619	-9.807597	-0.103375				-0.004712	0.001843	-0.001100				-90.722533	-0.599696	-41.981384
00290	14426712	0.177715	-9.793975	-0.093771				-0.006784	-0.001591	-0.001395				-90.724494	-0.600095	-41.980926
00291	14426762	0.189905	-9.785931	-0.113460				-0.007921	0.000906	-0.003818				-90.724392	-0.600458	-41.980776
00292	14426812	0.181875	-9.791072	-0.124604				-0.001879	0.000503	0.000173				-90.724932	-0.600411	-41.980916
00293	14426862	0.173757	-9.794615	-0.116588				-0.002810	-0.003485	0.001153				-90.723377	-0.599342	-41.979525
00294	14426912	0.180472	-9.788272	-0.092056				-0.004903	0.000773	-0.001482				-90.724780	-0.599772	-41.979736
00295	14426962	0.200787	-9.802769	-0.120493				-0.006033	0.000303	0.000887				-90.724122	-0.598791	-41.979451
00296	14427012	0.194074	-9.800278	-0.102701				-0.005199	0.000895	-0.001260				-90.725607	-0.599157	-41.979701
00297	14427062	0.194207	-9.801131	-0.124073				-0.001907	-0.001960	-0.002564				-90.723776	-0.599156	-41.978717
00298	14427112	0.174712	-9.788437	-0.101128				-0.004196	-0.001416	-0.003005				-90.724987	-0.600017	-41.978303
00299	14427162	0.177468	-9.786571	-0.112595				-0.004281	0.000559	0.000181				-90.723827	-0.599238	-41.978096
00300	14427212	0.180890	-9.805643	-0.119472				-0.000855	0.003491	-0.001997				-90.724060	-0.599824	-41.979086
00301	14427262	0.179779	-9.782364	-0.122190				-0.003597	0.002823	-0.004715				-90.722705	-0.600451	-41.979472
00302	14427312	0.193788	-9.791665	-0.107364				-0.001476	-0.002535	-0.003113				-90.723129	-0.601334	-41.978730
00303	14427362	0.197648	-9.801108	-0.107414				-0.001889	0.000662	-0.001623				-90.721306	-0.601069	-41.978537
00304	14427412	0.181003	-9.792088	-0.105530				-0.005979	0.001664	0.001729				-90.723012	-0.600581	-41.979019
00305	14427462	0.184285	-9.798656	-0.107828				-0.002892	0.001231	0.000211				-90.721468	-0.599800	-41.978976
00306	14427512	0.175910	-9.792262	-0.114312				-0.005899	0.000981	-0.002158				-90.723161	-0.600426	-41.979255
00307	14427562	0.199072	-9.792870	-0.117330				-0.006700	0.001934	-0.002278				-90.722691	-0.600357	-41.979394
00308	14427612	0.170208	-9.785227	-0.097970				-0.004800	-0.002392	-0.000537				-90.724068	-0.600505	-41.978700
00309	14427662	0.172413	-9.780640	-0.101560				-0.004080	0.001072	-0.002673				-90.722868	-0.600548	-41.978583
00310	14427712	0.181741	-9.797387	-0.115771				-0.005680	0.001949	-0.002726				-90.724487	-0.601333	-41.979129
00311	14427762	0.171206	-9.788175	-0.121438				-0.001581	-0.000144	-0.003165				-90.722558	-0.601516	-41.978648
00312	14427812	0.183159	-9.796443	-0.114140				-0.006208	0.000326	-0.003248				-90.724328	-0.602450	-41.978727
00313	14427862	0.193638	-9.801725	-0.116512				-0.002137	-0.003771	-0.001293				-90.722593	-0.602079	-41.977209
00314	14427912	0.190638	-9.789391	-0.119177				-0.005310	-0.000525	0.000433				-90.724107	-0.601947	-41.977055
00315	14427962	0.189977	-9.788772	-0.114164				-0.005187	-0.001467	-0.002042				-90.723234	-0.601803	-41.976220
00316	14428012	0.199686	-9.809011	-0.116581				-0.004919	0.000256	-0.001714				-90.724641	-0.602295	-41.976281
00317	14428062	0.186552	-9.788270	-0.102866				-0.005151	-0.001594	-0.003036				-90.723747	-0.602436	-41.975446
00318	14428112	0.199599	-9.796812	-0.123038				-0.003374	0.000960	-0.001295				-90.724708	-0.602805	-41.975728
00319	14428162	0.160387	-9.769743	-0.109884				-0.004556	-0.004167	-0.001028				-90.723663	-0.602374	-41.974122
00320	14428212	0.176940	-9.788963	-0.126942				-0.003120	0.002125	-0.003117				-90.724543	-0.603274	-41.974711
00321	14428262	0.172551	-9.795405	-0.128334				-0.003420	0.003312	-0.005645				-90.723142	-0.604175	-41.975243
00322	14428312	0.178553	-9.796655	-0.119655				-0.008684	0.001503	-0.005674				-90.725633	-0.605810	-41.975659
00323	14428362	0.186752	-9.790696	-0.130144				-0.004007	-0.000447	-0.003961				-90.724392	-0.606212	-41.975076
00324	14428412	0.193967	-9.793566	-0.107178				-0.002349	-0.000989	-0.000538				-90.725058	-0.606364	-41.974788
00325	14428462	0.171792	-9.796395	-0.126487				-0.002994	0.000061	-0.003386				-90.723563	-0.606602	-41.974414
00326	14428512	0.165261	-9.782175	-0.115446				-0.004513	0.002915	0.000583				-90.724853	-0.606443	-41.975256
00327	14428562	0.186872	-9.799438	-0.101072				-0.001762	0.003096	0.000960				-90.722966	-0.605452	-41.975776
00328	14428612	0.176053	-9.792807	-0.109276				-0.004686	-0.000796	0.001780				-90.724307	-0.604941	-41.975548
00329	14428662	0.185783	-9.800155	-0.116965				-0.002678	-0.000577	0.000075				-90.722705	-0.604193	-41.974965
00330	14428712	0.183757	-9.798959	-0.103905				0.001032	0.001719	0.000495				-90.722403	-0.604057	-41.975465
00331	14428762	0.187213	-9.806596	-0.113682				-0.005603	0.002865	0.000387				-90.721614	-0.603230	-41.975864
00332	14428812	0.187999	-9.797113	-0.112895				-0.004516	-0.002621	-0.004230				-90.722908	-0.604432	-41.975101
00333	14428862	0.159476	-9.781066	-0.114946				-0.003811	0.003225	0.001899				-90.721633	-0.603169	-41.975643
00334	14428912	0.179303	-9.786160	-0.107040				-0.000594	-0.001669	0.000222				-90.721814	-0.603099	-41.975164
00335	14428962	0.194329	-9.797983	-0.112535				-0.005128	0.003999	-0.002205				-90.720889	-0.603028	-41.975876
00336	14429012	0.186457	-9.787958	-0.107856				-0.003342	0.002520	0.001888				-90.721841	-0.602494	-41.976610
00337	14429062	0.189834	-9.787299	-0.101614				-0.003019	0.002000	-0.002284				-90.720317	-0.602431	-41.976714
00338	14429112	0.191092	-9.796164	-0.110248				-0.001575	-0.003012	0.001533				-90.720778	-0.601982	-41.975860
00339	14429162	0.173289	-9.790227	-0.125254				-0.003428	0.000996	0.001562				-90.719376	-0.600816	-41.975771
00340	14429212	0.185729	-9.801072	-0.103746				-0.002702	0.002232	-0.001486				-90.720143	-0.601252	-41.976406
00341	14429262	0.184641	-9.808483	-0.116266				-0.005157	-0.001200	0.001133				-90.719255	-0.600204	-41.975661
00342	14429312	0.185306	-9.786161	-0.102177				-0.007040	-0.001432	-0.000594				-90.721277	-0.600373	-41.975249
00343	14429362	0.168731	-9.785310	-0.109273				-0.005061	0.001507	-0.002987				-90.720347	-0.600501	-41.975268
00344	14429412	0.184597	-9.796102	-0.119576				-0.003558	-0.000143	-0.001751				-90.721362	-0.600999	-41.975225
00345	14429462	0.176793	-9.799335	-0.131668				-0.009535	0.000366	-0.001730				-90.721723	-0.600775	-41.974912
00346	14429512	0.173048	-9.797837	-0.108755				-0.003165	0.002846	0.001282				-90.722624	-0.600419	-41.975735
00347	14429562	0.157775	-9.791629	-0.108414				-0.003795	0.002279	-0.001411				-90.721340	-0.600112	-41.975999
00348	14429612	0.173049	-9.783431	-0.104494				-0.005253	0.003066	0.002059				-90.722836	-0.599531	-41.976889
00349	14429662	0.189775	-9.798179	-0.119019				-0.001019	-0.001352	0.000545				-90.720748	-0.598648	-41.976101
00350	14429712	0.179204	-9.777418	-0.104512				-0.005314	0.002901	0.000807				-90.722260	-0.598423	-41.976935
00351	14429762	0.168193	-9.785796	-0.108949				-0.001697	-0.000240	-0.001592				-90.720378	-0.598157	-41.976444
00352	14429812	0.181975	-9.780825	-0.127634				-0.000689	0.002693	0.001913				-90.720567	-0.597618	-41.977219
00353	14429862	0.187466	-9.786350	-0.111885				-0.003543	-0.000791	-0.002103				-90.719219	-0.597497	-41.976575
00354	14429912	0.200061	-9.809220	-0.123685				-0.004060	0.000437	-0.000428				-90.720384	-0.597624	-41.976699
00355	14429962	0.193465	-9.795460	-0.113512				-0.002899	0.000966	-0.003437				-90.718816	-0.597874	-41.976549
00356	14430012	0.186010	-9.789326	-0.101846				-0.006734	-0.000934	0.002202				-90.720753	-0.597241	-41.976287
00357	14430062	0.173942	-9.769184	-0.094990				-0.004249	0.002432	-0.002014				-90.719597	-0.597106	-41.976600
00358	14430112	0.169550	-9.789216	-0.107001				-0.004238	0.002915	-0.002497				-90.720813	-0.597835	-41.977431
00359	14430162	0.189211	-9.803240	-0.104722				-0.008421	0.000513	-0.002082				-90.720822	-0.597705	-41.977154
00360	14430212	0.195078	-9.784405	-0.106142				-0.004281	0.003766	0.001197				-90.722042	-0.597377	-41.978237
00361	14430262	0.166188	-9.774355	-0.104573				-0.004458	0.002009	-0.000736				-90.720943	-0.596868	-41.978392
00362	14430312	0.168139	-9.798120	-0.099982				-0.004728	-0.001491	-0.000078				-90.722289	-0.596886	-41.977965
00363	14430362	0.178010	-9.781219	-0.095689				-0.002640	0.004037	-0.005604				-90.720667	-0.597769	-41.978707
00364	14430412	0.180123	-9.780325	-0.106067				-0.004341	0.000000	-0.005111				-90.721921	-0.599236	-41.978693
00365	14430462	0.177297	-9.798248	-0.115350				-0.002544	-0.000965	-0.002489				-90.720278	-0.599228	-41.978013
00366	14430512	0.185125	-9.776478	-0.120521				-0.006305	0.002591	-0.002074				-90.722082	-0.599829	-41.978751
00367	14430562	0.184467	-9.794600	-0.099848				-0.003419	-0.001525	0.000847				-90.720678	-0.598860	-41.977873
00368	14430612	0.171436	-9.768304	-0.107866				-0.003102	0.000378	-0.004693				-90.721568	-0.600204	-41.977968
00369	14430662	0.189862	-9.802348	-0.100556				-0.002777	0.000324	-0.001869				-90.719993	-0.600019	-41.977655
00370	14430712	0.170784	-9.797445	-0.110822				-0.002187	0.005250	-0.001043				-90.720599	-0.600335	-41.979152
00371	14430762	0.178230	-9.801077	-0.115168				-0.003511	-0.001560	0.000910				-90.719233	-0.599356	-41.978295
00372	14430812	0.188284	-9.785466	-0.104259				-0.005560	0.002277	-0.002337				-90.720817	-0.600032	-41.978938
00373	14430862	0.184772	-9.804506	-0.118990				-0.002797	0.001034	-0.000555				-90.719253	-0.599477	-41.978820
00374	14430912	0.187848	-9.787025	-0.111631				-0.003502	0.005192	-0.002745				-90.720243	-0.600283	-41.980293
00375	14430962	0.182469	-9.790989	-0.119893				-0.000798	0.000555	-0.001846				-90.718109	-0.600095	-41.980004
00376	14431012	0.190835	-9.790354	-0.124139				-0.005142	0.000054	-0.002833				-90.719570	-0.600906	-41.979992
00377	14431062	0.188866	-9.811962	-0.093488				-0.005902	0.000278	0.002402				-90.718894	-0.599500	-41.979680
00378	14431112	0.167772	-9.781015	-0.101872				-0.002871	0.000154	-0.003510				-90.719723	-0.600504	-41.979712
00379	14431162	0.185969	-9.784283	-0.105609				-0.002813	-0.001220	0.002450				-90.718138	-0.599075	-41.978913
00380	14431212	0.182861	-9.784053	-0.123792				-0.002588	-0.000416	0.000464				-90.718883	-0.598941	-41.978792
00381	14431262	0.209045	-9.796784	-0.091860				-0.004247	-0.002932	-0.001409				-90.717751	-0.598616	-41.977584
00382	14431312	0.184034	-9.790743	-0.103647				-0.001745	-0.000785	-0.000314				-90.718246	-0.598706	-41.977347
00383	14431362	0.179858	-9.789853	-0.119243				-0.004775	0.000675	-0.002669				-90.717239	-0.598752	-41.977176
00384	14431412	0.197961	-9.796989	-0.103105				-0.008054	-0.002229	-0.003157				-90.719552	-0.599647	-41.976527
00385	14431462	0.184018	-9.787298	-0.112027				-0.003141	-0.002301	-0.001179				-90.718099	-0.599260	-41.975466
00386	14431512	0.184058	-9.800853	-0.125266				-0.003697	-0.003152	-0.002532				-90.719167	-0.599975	-41.974549
00387	14431562	0.181881	-9.767817	-0.115643				-0.002296	-0.000477	-0.000438				-90.717440	-0.599370	-41.974019
00388	14431612	0.177752	-9.793539	-0.112564				-0.004887	-0.000980	-0.004926				-90.718853	-0.600782	-41.973723
00389	14431662	0.186010	-9.814778	-0.113062				-0.004906	0.001973	-0.000511				-90.717858	-0.600213	-41.973892
00390	14431712	0.168141	-9.794107	-0.113897				-0.004616	0.000843	-0.001703				-90.719180	-0.600702	-41.974123
00391	14431762	0.199692	-9.804954	-0.108769				-0.003215	0.001159	-0.001068				-90.717737	-0.600292	-41.974026
00392	14431812	0.198631	-9.792991	-0.100429				-0.005322	0.000727	-0.003342				-90.719261	-0.601247	-41.974225
00393	14431862	0.201168	-9.788157	-0.103991				-0.003147	0.002902	-0.002117				-90.717761	-0.601141	-41.974627
00394	14431912	0.181679	-9.787514	-0.115385				-0.002491	0.000460	-0.001907				-90.718478	-0.601682	-41.974754
00395	14431962	0.196637	-9.785582	-0.105208				-0.004180	0.001005	-0.003920				-90.717300	-0.602094	-41.974631
00396	14432012	0.181401	-9.762297	-0.089612				-0.006799	0.001193	-0.000543				-90.719234	-0.602251	-41.974972
00397	14432062	0.190237	-9.794029	-0.101491				-0.001796	-0.000338	-0.002456				-90.717366	-0.602233	-41.974416
00398	14432112	0.183897	-9.787811	-0.094047				-0.002103	-0.001472	-0.000218				-90.717987	-0.602292	-41.973999
00399	14432162	0.185097	-9.798325	-0.119331				-0.005560	0.001540	0.000708				-90.717194	-0.601375	-41.973993
00400	14432212	0.199447	-9.807585	-0.107106				-0.002440	0.000948	-0.000204				-90.717888	-0.601434	-41.974262
00401	14432262	0.162829	-9.785340	-0.117971				-0.004520	0.004046	-0.000660				-90.716799	-0.600918	-41.974978
00402	14432312	0.180994	-9.794324	-0.104858				-0.004404	0.000163	-0.001036				-90.718061	-0.601218	-41.975021
00403	14432362	0.189725	-9.808791	-0.098187				-0.004721	0.000867	-0.004175				-90.717044	-0.601694	-41.974842
00404	14432412	0.198616	-9.796259	-0.103696				-0.001743	0.001088	-0.001358				-90.717545	-0.602084	-41.975150
00405	14432462	0.171324	-9.797894	-0.112514				-0.005562	0.003476	-0.001688				-90.716748	-0.601859	-41.975719
00406	14432512	0.179026	-9.781918	-0.095709				-0.002967	0.001521	-0.000134				-90.717599	-0.601907	-41.976155
00407	14432562	0.183067	-9.794555	-0.103694				-0.005818	0.002570	0.000714				-90.716881	-0.600987	-41.976495
00408	14432612	0.196774	-9.781496	-0.108791				-0.002719	-0.000222	0.000272				-90.717655	-0.600908	-41.976425
00409	14432662	0.184348	-9.793808	-0.104816				-0.002097	0.002214	-0.000967				-90.715892	-0.600477	-41.976703
00410	14432712	0.194911	-9.797875	-0.109451				-0.002099	-0.000991	-0.002430				-90.716502	-0.601173	-41.976413
00411	14432762	0.175795	-9.788903	-0.122312				-0.002640	0.002136	-0.001833				-90.714852	-0.600980	-41.976591
00412	14432812	0.190484	-9.789703	-0.104657				-0.003798	0.001240	-0.002253				-90.715936	-0.601629	-41.976933
00413	14432862	0.193480	-9.795566	-0.122392				-0.004251	0.001492	-0.001447				-90.714782	-0.601332	-41.976956
00414	14432912	0.179346	-9.782810	-0.130133				-0.006933	0.001122	-0.001249				-90.716776	-0.601700	-41.977274
00415	14432962	0.189704	-9.781346	-0.109155				-0.000340	0.001335	-0.002611				-90.714474	-0.601730	-41.977245
00416	14433012	0.180488	-9.764207	-0.120169				-0.000535	-0.000771	-0.003391				-90.714636	-0.602703	-41.977020
00417	14433062	0.182169	-9.795323	-0.100547				-0.004012	0.000014	-0.001101				-90.713409	-0.602301	-41.976582
00418	14433112	0.182758	-9.785174	-0.112247				-0.002932	0.002392	0.000542				-90.714238	-0.602153	-41.977276
00419	14433162	0.175456	-9.793069	-0.113847				-0.000732	0.000848	0.001045				-90.712086	-0.601137	-41.977125
00420	14433212	0.184723	-9.775498	-0.092162				-0.001599	-0.003368	-0.000486				-90.712553	-0.601259	-41.976157
00421	14433262	0.181023	-9.792389	-0.107039				-0.003424	0.000634	-0.002798				-90.711159	-0.601339	-41.975909
00422	14433312	0.208040	-9.810204	-0.130477				-0.007071	-0.001855	-0.002743				-90.713187	-0.602119	-41.975369
00423	14433362	0.191973	-9.787990	-0.122718				-0.006744	0.003293	-0.002551				-90.712738	-0.602136	-41.975885
00424	14433412	0.185233	-9.785555	-0.116373				-0.002404	0.000683	-0.001968				-90.713432	-0.602702	-41.976078
00425	14433462	0.184240	-9.787772	-0.112121				-0.005482	-0.001049	-0.000239				-90.712624	-0.602044	-41.975365
00426	14433512	0.187031	-9.803999	-0.118627				-0.005511	0.002191	0.002829				-90.714190	-0.601241	-41.975997
00427	14433562	0.185123	-9.815452	-0.116126				-0.001593	0.001316	-0.003249				-90.712277	-0.601463	-41.975977
00428	14433612	0.189939	-9.797397	-0.113404				-0.000412	0.000558	-0.001848				-90.712392	-0.602001	-41.976117
00429	14433662	0.196453	-9.791640	-0.096990				-0.001565	-0.001792	-0.004551				-90.710484	-0.602580	-41.975185
00430	14433712	0.189267	-9.803776	-0.116428				-0.005405	0.001606	-0.000545				-90.712032	-0.602742	-41.975640
00431	14433762	0.187969	-9.799322	-0.113951				-0.002785	-0.001353	0.000361				-90.710456	-0.601916	-41.974857
00432	14433812	0.195494	-9.792246	-0.105009				0.004360	0.001647	-0.001983				-90.709194	-0.602487	-41.975322
00433	14433862	0.181887	-9.806311	-0.111457				-0.006419	0.002071	-0.003009				-90.708658	-0.602642	-41.975465
00434	14433912	0.189759	-9.785971	-0.116302				0.001352	-0.001574	-0.001127				-90.708270	-0.602957	-41.975004
00435	14433962	0.174710	-9.777431	-0.113174				-0.002191	-0.000060	-0.003288				-90.706525	-0.603192	-41.974498
00436	14434012	0.171803	-9.787414	-0.099360				-0.006475	0.002975	-0.001781				-90.708371	-0.603713	-41.975341
00437	14434062	0.192300	-9.795664	-0.116763				-0.007073	-0.000528	-0.001512				-90.708015	-0.603423	-41.974795
00438	14434112	0.184040	-9.785667	-0.110362				-0.003249	-0.003114	-0.002725				-90.708954	-0.604194	-41.973892
00439	14434162	0.176876	-9.787476	-0.106538				-0.002953	0.000837	-0.002767				-90.707448	-0.604268	-41.973712
00440	14434212	0.196743	-9.796311	-0.102021				-0.003301	-0.000499	-0.004347				-90.708400	-0.605513	-41.973557
00441	14434262	0.171595	-9.783171	-0.112959				-0.003874	-0.001309	0.000270				-90.707141	-0.604713	-41.972801
00442	14434312	0.178452	-9.790006	-0.126090				-0.000906	-0.002134	-0.002082				-90.707409	-0.605300	-41.972179
00443	14434362	0.183223	-9.787383	-0.091741				-0.005344	0.001603	-0.001895				-90.706546	-0.605130	-41.972190
00444	14434412	0.182578	-9.790734	-0.106113				-0.005503	0.003637	0.000077				-90.708101	-0.605118	-41.973230
00445	14434462	0.171244	-9.788325	-0.101515				-0.005909	0.000406	0.002853				-90.707441	-0.603588	-41.972916
00446	14434512	0.196274	-9.801873	-0.110443				-0.002372	0.001821	-0.000231				-90.708125	-0.603662	-41.973442
00447	14434562	0.178953	-9.803746	-0.111045				-0.002169	0.003631	-0.000189				-90.706327	-0.603004	-41.974049
00448	14434612	0.180001	-9.770939	-0.114628				-0.000573	0.001758	-0.000715				-90.706494	-0.603214	-41.974553
00449	14434662	0.182481	-9.795528	-0.102690				-0.003008	0.001479	-0.003888				-90.704987	-0.603615	-41.974522
00450	14434712	0.191704	-9.808471	-0.101803				-0.003646	0.001338	-0.003405				-90.706026	-0.604593	-41.974893
00451	14434762	0.176644	-9.789097	-0.109343				-0.001016	0.000454	-0.001911				-90.703965	-0.604426	-41.974608
00452	14434812	0.175235	-9.791734	-0.108305				-0.000523	0.000039	-0.000854				-90.704104	-0.604672	-41.974604
00453	14434862	0.194132	-9.812973	-0.115712				-0.002769	0.001971	-0.002057				-90.702519	-0.604555	-41.974768
00454	14434912	0.182226	-9.792299	-0.112489				-0.001028	0.003812	-0.002948				-90.702799	-0.605415	-41.975844
00455	14434962	0.182778	-9.785888	-0.096958				-0.002714	-0.000678	-0.002231				-90.701218	-0.605333	-41.975231
00456	14435012	0.174881	-9.776754	-0.111056				-0.001024	-0.000458	-0.003646				-90.701515	-0.606376	-41.975090
00457	14435062	0.175679	-9.790234	-0.112720				-0.004245	-0.000665	0.000210				-90.700364	-0.605598	-41.974522
00458	14435112	0.205264	-9.810740	-0.097792				-0.003943	0.000589	-0.003345				-90.701492	-0.606557	-41.974679
00459	14435162	0.194535	-9.783092	-0.114676				-0.001594	0.001377	-0.003254				-90.699565	-0.606781	-41.974625
00460	14435212	0.180042	-9.783860	-0.091921				-0.003149	-0.001045	-0.002552				-90.700468	-0.607507	-41.974320
00461	14435262	0.173115	-9.786993	-0.094236				-0.002033	-0.000558	0.002228				-90.698684	-0.606150	-41.973737
00462	14435312	0.205316	-9.815612	-0.119835				-0.003186	0.000354	0.001720				-90.699602	-0.605660	-41.973849
00463	14435362	0.174342	-9.779733	-0.102644				-0.003445	0.000412	-0.000105				-90.698199	-0.604974	-41.973564
00464	14435412	0.187308	-9.795800	-0.127207				-0.005864	0.002988	0.000621				-90.699874	-0.604809	-41.974422
00465	14435462	0.188203	-9.801642	-0.101326				-0.004442	-0.000674	-0.001072				-90.698788	-0.604391	-41.973825
00466	14435512	0.188609	-9.780990	-0.133235				-0.005884	-0.000671	-0.002064				-90.700473	-0.604980	-41.973623
00467	14435562	0.185688	-9.775810	-0.117464				-0.007080	-0.000600	-0.004433				-90.700138	-0.605533	-41.973031
00468	14435612	0.186509	-9.772189	-0.120929				-0.003778	0.001630	-0.002534				-90.701227	-0.606265	-41.973491
00469	14435662	0.189947	-9.801539	-0.090986				-0.001832	0.001220	0.001501				-90.699365	-0.605121	-41.973430
00470	14435712	0.189984	-9.791876	-0.118257				-0.001961	-0.000884	0.001583				-90.699924	-0.604664	-41.973177
00471	14435762	0.196657	-9.793573	-0.094895				-0.003745	0.001698	-0.001898				-90.698625	-0.604497	-41.973230
00472	14435812	0.198291	-9.796921	-0.122761				-0.006486	0.000999	-0.003367				-90.700482	-0.605467	-41.973508
00473	14435862	0.195327	-9.807040	-0.099309				-0.001319	0.000127	0.001618				-90.698498	-0.604282	-41.973149
00474	14435912	0.168578	-9.796611	-0.104724				-0.000979	-0.000509	0.001553				-90.698770	-0.603829	-41.973000
00475	14435962	0.185985	-9.788609	-0.118084				-0.003602	-0.000049	-0.002898				-90.697419	-0.603941	-41.972552
00476	14436012	0.181254	-9.790362	-0.115461				-0.004899	0.000446	-0.002698				-90.698809	-0.604716	-41.972660
00477	14436062	0.187749	-9.783846	-0.117313				-0.002000	0.002545	0.001730				-90.697029	-0.603510	-41.973015
00478	14436112	0.186093	-9.800386	-0.108014				-0.005607	0.001726	-0.001700				-90.698637	-0.604009	-41.973509
00479	14436162	0.178761	-9.797276	-0.099722				-0.001146	-0.002323	0.001673				-90.696589	-0.602792	-41.972424
00480	14436212	0.173475	-9.780183	-0.120154				-0.001706	0.002190	-0.000548				-90.697076	-0.602957	-41.973051
00481	14436262	0.188174	-9.777478	-0.114786				-0.005483	-0.000079	-0.000454				-90.696273	-0.602370	-41.972600
00482	14436312	0.189593	-9.795923	-0.117381				-0.004191	0.000595	-0.000196				-90.697466	-0.602426	-41.972777
00483	14436362	0.194339	-9.797537	-0.116681				-0.004447	-0.002349	0.002412				-90.696389	-0.601011	-41.971750
00484	14436412	0.177457	-9.790501	-0.093797				-0.002681	-0.001515	0.000106				-90.697162	-0.600976	-41.971320
00485	14436462	0.184373	-9.788655	-0.116353				-0.002187	-0.000188	-0.003479				-90.695408	-0.601247	-41.970830
00486	14436512	0.185290	-9.789317	-0.118794				-0.006773	-0.000911	-0.001611				-90.697351	-0.601707	-41.970570
00487	14436562	0.197487	-9.793331	-0.125319				-0.002495	0.001789	-0.000394				-90.695688	-0.601110	-41.970668
00488	14436612	0.197416	-9.810106	-0.114066				-0.003565	0.001059	0.000376				-90.696712	-0.601004	-41.970971
00489	14436662	0.175296	-9.796323	-0.103144				-0.003756	0.001921	-0.002469				-90.695413	-0.601011	-41.971106
00490	14436712	0.173290	-9.775536	-0.129936				-0.002297	0.001431	-0.002126				-90.696057	-0.601629	-41.971500
00491	14436762	0.178965	-9.781911	-0.111673				-0.006850	0.001644	-0.000284				-90.695660	-0.600988	-41.971562
00492	14436812	0.189515	-9.796407	-0.101267				-0.001755	0.003704	0.000257				-90.696150	-0.600922	-41.972627
00493	14436862	0.192751	-9.796960	-0.109326				-0.006356	0.006337	-0.002409				-90.695583	-0.600929	-41.974041
00494	14436912	0.174441	-9.792294	-0.088100				-0.006433	0.002520	-0.002909				-90.697425	-0.601775	-41.974755
00495	14436962	0.188195	-9.794272	-0.102757				-0.003867	0.001238	-0.003373				-90.696151	-0.602025	-41.974690
00496	14437012	0.161546	-9.793682	-0.116301				-0.004724	0.002328	-0.001246				-90.697500	-0.602388	-41.975359
00497	14437062	0.176330	-9.776073	-0.122962				-0.009114	-0.000722	-0.000934				-90.697752	-0.601933	-41.974736
00498	14437112	0.188937	-9.786942	-0.115636				-0.002899	-0.000379	0.003001				-90.698576	-0.601076	-41.974623
00499	14437162	0.177310	-9.786262	-0.107704				-0.003317	0.001352	-0.000424				-90.697160	-0.600492	-41.974602
00500	14437212	0.199652	-9.786427	-0.125077				-0.001718	0.001246	-0.003249				-90.697650	-0.601427	-41.974949
00501	14437262	0.198029	-9.787502	-0.103056				-0.005093	0.001770	-0.000834				-90.696723	-0.600940	-41.974966
00502	14437312	0.193771	-9.786036	-0.108973				-0.001836	0.001018	-0.001004				-90.697240	-0.601231	-41.975246
00503	14437362	0.196726	-9.784303	-0.111159				-0.003552	0.000997	0.002270				-90.695881	-0.599875	-41.975134
00504	14437412	0.194455	-9.788007	-0.103557				-0.005364	0.002250	-0.001603				-90.697413	-0.600347	-41.975773
00505	14437462	0.206285	-9.809997	-0.129648				-0.001572	-0.000168	-0.000212				-90.695497	-0.599693	-41.975295
00506	14437512	0.175876	-9.791046	-0.106530				-0.003827	0.004581	0.001968				-90.696588	-0.599145	-41.976622
00507	14437562	0.183579	-9.796922	-0.103612				-0.003940	0.000724	-0.001547				-90.695333	-0.598871	-41.976367
00508	14437612	0.176972	-9.804022	-0.109863				-0.003599	0.000254	0.002009				-90.696367	-0.598297	-41.976448
00509	14437662	0.193627	-9.793021	-0.117646				-0.003111	0.001941	-0.000226				-90.694900	-0.597656	-41.976604
00510	14437712	0.193075	-9.815705	-0.108741				-0.003935	-0.000400	0.001653				-90.696020	-0.597179	-41.976491
00511	14437762	0.191884	-9.802274	-0.088109				-0.003153	0.001224	-0.000938				-90.694551	-0.596732	-41.976414
00512	14437812	0.180862	-9.777085	-0.115688				-0.005069	-0.001239	-0.002870				-90.696016	-0.597549	-41.976056
00513	14437862	0.187968	-9.783972	-0.124345				-0.003161	0.001181	-0.004534				-90.694515	-0.598133	-41.975932
00514	14437912	0.193061	-9.793915	-0.106284				-0.002079	0.000662	-0.001172				-90.695104	-0.598469	-41.976115
00515	14437962	0.189108	-9.792415	-0.114782				-0.004343	-0.006039	-0.001650				-90.694014	-0.598210	-41.974032
00516	14438012	0.183368	-9.794929	-0.125405				-0.000910	-0.003434	-0.005587				-90.694283	-0.599799	-41.973030
00517	14438062	0.160695	-9.792858	-0.093219				-0.002312	0.000879	-0.002193				-90.692551	-0.599715	-41.972838
00518	14438112	0.193689	-9.786612	-0.102270				-0.000694	-0.000446	0.000907				-90.692753	-0.599454	-41.972712
00519	14438162	0.180706	-9.807473	-0.129473				-0.001705	0.003356	0.002310				-90.690867	-0.598094	-41.973250
00520	14438212	0.181623	-9.790472	-0.108530				-0.006554	-0.001649	0.000180				-90.692753	-0.598035	-41.972781
00521	14438262	0.198598	-9.794382	-0.117910				-0.003556	-0.001103	0.002260				-90.691414	-0.596667	-41.972041
00522	14438312	0.186457	-9.774618	-0.101786				-0.004651	-0.001162	-0.002002				-90.692759	-0.597239	-41.971702
00523	14438362	0.196850	-9.822889	-0.101051				-0.002871	-0.000911	-0.003934				-90.691204	-0.597650	-41.971005
00524	14438412	0.183436	-9.781775	-0.101493				-0.002877	-0.000548	-0.001524				-90.692021	-0.598085	-41.970839
00525	14438462	0.188438	-9.778328	-0.120971				-0.003485	-0.001334	0.000592				-90.690658	-0.597196	-41.970022
00526	14438512	0.174635	-9.771127	-0.122643				-0.005742	0.000950	-0.002376				-90.692292	-0.597877	-41.970287
00527	14438562	0.158969	-9.767517	-0.123012				-0.004453	-0.000390	-0.004114				-90.691184	-0.598344	-41.969753
00528	14438612	0.187209	-9.791004	-0.115454				-0.004037	-0.001444	-0.002202				-90.692344	-0.598975	-41.969329
00529	14438662	0.166880	-9.791351	-0.140271				-0.004829	0.002550	-0.000700				-90.691378	-0.598468	-41.969675
00530	14438712	0.197706	-9.793877	-0.105164				-0.000699	0.002524	-0.002988				-90.691577	-0.599338	-41.970391
00531	14438762	0.178820	-9.789557	-0.108490				-0.005469	-0.001632	-0.002358				-90.690774	-0.599288	-41.969511
00532	14438812	0.181619	-9.798222	-0.097897				-0.003653	0.003229	0.002827				-90.691813	-0.598487	-41.970452
00533	14438862	0.181339	-9.782985	-0.101811				-0.004766	-0.000681	-0.002677				-90.690800	-0.598532	-41.969833
00534	14438912	0.188517	-9.800813	-0.109184				-0.003219	0.000027	-0.001809				-90.691727	-0.599049	-41.969839
00535	14438962	0.190492	-9.790888	-0.104113				-0.002801	0.000094	-0.002547				-90.690151	-0.599069	-41.969458
00536	14439012	0.194091	-9.785123	-0.106029				-0.002083	-0.003016	0.003304				-90.690755	-0.598111	-41.968611
00537	14439062	0.193138	-9.796621	-0.146410				-0.003999	-0.001375	0.001138				-90.689540	-0.597077	-41.967790
00538	14439112	0.192005	-9.786240	-0.097191				-0.001644	0.002254	-0.000813				-90.690010	-0.597321	-41.968434
00539	14439162	0.173932	-9.800555	-0.091155				-0.004251	-0.000874	-0.005595				-90.688847	-0.598197	-41.967768
00540	14439212	0.174429	-9.772517	-0.124998				-0.005082	0.004418	-0.002773				-90.690291	-0.599007	-41.969019
00541	14439262	0.183816	-9.796756	-0.098558				-0.007241	-0.000401	-0.001161				-90.689994	-0.598625	-41.968497
00542	14439312	0.198722	-9.792714	-0.118585				-0.004055	0.000072	-0.003348				-90.691156	-0.599588	-41.968506
00543	14439362	0.180480	-9.796405	-0.124532				-0.005319	-0.001505	-0.004476				-90.690305	-0.600144	-41.967645
00544	14439412	0.193629	-9.787007	-0.123184				-0.004586	-0.000325	-0.002288				-90.691630	-0.600799	-41.967541
00545	14439462	0.162141	-9.774080	-0.109845				-0.005780	0.001243	0.000644				-90.690910	-0.599907	-41.967517
00546	14439512	0.190385	-9.800982	-0.127010				-0.005563	0.000638	0.002019				-90.692497	-0.599329	-41.967709
00547	14439562	0.188160	-9.786354	-0.124049				-0.003923	0.000107	-0.002676				-90.691258	-0.599390	-41.967318
00548	14439612	0.172145	-9.785460	-0.118026				-0.004178	0.002238	-0.001181				-90.692449	-0.599737	-41.967954
00549	14439662	0.185588	-9.795354	-0.110792				-0.000688	0.000034	-0.001912				-90.690265	-0.599561	-41.967589
00550	14439712	0.182274	-9.817598	-0.117528				-0.002683	-0.000875	-0.003676				-90.691046	-0.600614	-41.967323
00551	14439762	0.169809	-9.787064	-0.092103				-0.002240	0.002057	0.001084				-90.689310	-0.599605	-41.967579
00552	14439812	0.200196	-9.804467	-0.124193				-0.007096	-0.001752	0.001046				-90.691344	-0.599297	-41.967078
00553	14439862	0.195960	-9.805116	-0.085467				-0.001510	0.001090	0.000631				-90.689404	-0.598410	-41.967014
00554	14439912	0.174957	-9.776734	-0.096476				-0.003369	0.001185	-0.000063				-90.690381	-0.598435	-41.967365
00555	14439962	0.160538	-9.782793	-0.084891				-0.005478	0.000721	-0.003712				-90.689555	-0.598784	-41.967122
00556	14440012	0.185460	-9.786168	-0.123166				-0.006573	-0.001004	0.000347				-90.691449	-0.598682	-41.966834
00557	14440062	0.177415	-9.787037	-0.118898				-0.000591	0.001232	-0.001100				-90.689233	-0.598288	-41.966752
00558	14440112	0.182536	-9.784355	-0.120063				-0.006155	0.003305	0.000855				-90.690989	-0.598061	-41.967703
00559	14440162	0.189572	-9.791093	-0.123236				-0.006428	0.001652	-0.000309				-90.690452	-0.597437	-41.967754
00560	14440212	0.163022	-9.785747	-0.106686				-0.004992	0.000608	-0.001054				-90.691880	-0.597739	-41.967929
00561	14440262	0.181307	-9.785208	-0.111310				-0.001644	0.002318	-0.000187				-90.689982	-0.597093	-41.968180
00562	14440312	0.190729	-9.784169	-0.109543				-0.005710	-0.001027	-0.001963				-90.691616	-0.597648	-41.967883
00563	14440362	0.181923	-9.787407	-0.122160				-0.004862	0.002777	-0.000822				-90.690609	-0.597189	-41.968228
00564	14440412	0.189492	-9.792735	-0.139865				-0.001562	0.000342	-0.002282				-90.691060	-0.597842	-41.968320
00565	14440462	0.189578	-9.781386	-0.121857				-0.003338	0.001790	-0.003655				-90.689649	-0.598183	-41.968473
00566	14440512	0.199206	-9.789557	-0.107097				-0.003069	-0.003306	0.001162				-90.690534	-0.597839	-41.967529
00567	14440562	0.193253	-9.798628	-0.108472				-0.003218	0.001115	-0.003722				-90.689097	-0.598205	-41.967401
00568	14440612	0.189774	-9.777119	-0.091091				-0.007387	0.001433	-0.001080				-90.691210	-0.598520	-41.967810
00569	14440662	0.186766	-9.799109	-0.097503				-0.005087	0.000536	-0.002947				-90.690296	-0.598656	-41.967545
00570	14440712	0.194462	-9.791088	-0.119571				-0.003908	0.000619	-0.003209				-90.691406	-0.599576	-41.967702
00571	14440762	0.205679	-9.790688	-0.105440				-0.001320	0.002056	-0.002348				-90.689410	-0.599541	-41.967864
00572	14440812	0.197457	-9.795243	-0.108973				-0.002679	0.001451	-0.001667				-90.690165	-0.600022	-41.968268
00573	14440862	0.184662	-9.796693	-0.117728				-0.001100	0.003258	-0.002015				-90.688116	-0.599904	-41.968758
00574	14440912	0.181705	-9.801720	-0.132663				-0.004662	0.000222	-0.001314				-90.689446	-0.600278	-41.968817
00575	14440962	0.167371	-9.800078	-0.112138				-0.000049	0.001106	-0.004910				-90.687078	-0.600985	-41.968702
00576	14441012	0.192757	-9.795311	-0.124165				-0.005534	0.001565	-0.000796				-90.688653	-0.601220	-41.969145
00577	14441062	0.187136	-9.806437	-0.098860				-0.004502	-0.002009	-0.004537				-90.687572	-0.601803	-41.968130
00578	14441112	0.180115	-9.783134	-0.108167				-0.000972	0.005528	0.000403				-90.687837	-0.601706	-41.969706
00579	14441162	0.188011	-9.813473	-0.088084				-0.002375	-0.001059	-0.000910				-90.686157	-0.601253	-41.968986
00580	14441212	0.196869	-9.805265	-0.105651				-0.002797	0.001092	-0.001993				-90.686957	-0.601827	-41.969288
00581	14441262	0.167489	-9.785902	-0.108096				-0.002511	0.003499	0.000655				-90.685292	-0.600942	-41.969818
00582	14441312	0.182486	-9.790883	-0.095771				-0.002217	-0.002060	-0.000919				-90.685932	-0.601200	-41.969223
00583	14441362	0.186239	-9.795815	-0.111909				-0.006766	-0.002076	-0.000522				-90.685512	-0.600628	-41.968201
00584	14441412	0.181024	-9.785054	-0.106323				-0.003942	-0.000957	0.001757				-90.686644	-0.600121	-41.967929
00585	14441462	0.191200	-9.808150	-0.107751				-0.003960	-0.000798	-0.001774				-90.685408	-0.599921	-41.967257
00586	14441512	0.175519	-9.791533	-0.121416				-0.005095	-0.004147	0.001261				-90.686888	-0.599551	-41.966073
00587	14441562	0.177076	-9.795300	-0.122135				-0.004489	-0.000066	-0.000614				-90.685786	-0.599007	-41.965643
00588	14441612	0.191759	-9.788864	-0.127959				-0.006411	-0.001200	-0.001703				-90.687630	-0.599494	-41.965296
00589	14441662	0.185115	-9.796010	-0.115428				-0.003796	-0.001863	-0.002101				-90.686368	-0.599378	-41.964347
00590	14441712	0.173693	-9.791255	-0.110086				-0.004365	0.004002	-0.004730				-90.687602	-0.600746	-41.965473
00591	14441762	0.169875	-9.779819	-0.116273				-0.002553	-0.000513	-0.000231				-90.685952	-0.600103	-41.964885
00592	14441812	0.179361	-9.793090	-0.078682				-0.002650	-0.000514	-0.000202				-90.686714	-0.600162	-41.964736
00593	14441862	0.184825	-9.800000	-0.103486				-0.003972	0.000980	0.000129				-90.685452	-0.599410	-41.964583
00594	14441912	0.181107	-9.780973	-0.109128				-0.003660	0.001010	-0.003205				-90.686507	-0.600331	-41.964868
00595	14441962	0.187499	-9.789236	-0.122180				-0.003878	0.002983	-0.001816				-90.685236	-0.600154	-41.965309
00596	14442012	0.189255	-9.808766	-0.115705				-0.006453	-0.000676	0.001153				-90.687080	-0.599816	-41.965124
00597	14442062	0.168763	-9.782326	-0.108336				-0.001315	-0.000467	-0.004758				-90.685067	-0.600475	-41.964528
00598	14442112	0.187064	-9.805540	-0.111073				-0.001566	-0.001531	-0.001016				-90.685526	-0.600758	-41.964094
00599	14442162	0.183679	-9.802367	-0.119457				-0.002118	0.000243	0.002461				-90.683764	-0.599348	-41.963740
00600	14442212	0.188280	-9.801657	-0.116156				-0.002801	0.001258	-0.001925				-90.684573	-0.599903	-41.964100
00601	14442262	0.195782	-9.798637	-0.105678				-0.004598	0.000257	-0.001027				-90.683500	-0.599491	-41.963774
00602	14442312	0.182381	-9.791834	-0.096327				-0.007047	0.002599	-0.004375				-90.685501	-0.600753	-41.964502
00603	14442362	0.193203	-9.805923	-0.096726				-0.002095	0.003174	-0.002751				-90.683734	-0.600850	-41.965000
00604	14442412	0.187486	-9.804046	-0.100272				-0.001328	0.000181	-0.001840				-90.684117	-0.601378	-41.965047
00605	14442462	0.196730	-9.800037	-0.106553				-0.003237	-0.001239	-0.000593				-90.682677	-0.600830	-41.964307
00606	14442512	0.194680	-9.793688	-0.119720				-0.001231	0.000184	-0.002417				-90.683028	-0.601520	-41.964353
00607	14442562	0.181763	-9.769954	-0.115607				-0.002600	-0.004468	-0.004393				-90.681407	-0.602058	-41.962654
00608	14442612	0.197263	-9.796326	-0.115942				-0.001195	0.001089	-0.002731				-90.681736	-0.602845	-41.962947
00609	14442662	0.181524	-9.798491	-0.126910				-0.002842	0.000942	0.002117				-90.680201	-0.601536	-41.962857
00610	14442712	0.177599	-9.778886	-0.124510				-0.004685	0.000225	0.000418				-90.681547	-0.601413	-41.962924
00611	14442762	0.179496	-9.785255	-0.109848				-0.002115	0.002786	-0.003264				-90.679756	-0.601655	-41.963240
00612	14442812	0.176971	-9.796715	-0.122288				-0.004305	-0.000638	0.001247				-90.681001	-0.601295	-41.963067
00613	14442862	0.177333	-9.768265	-0.105624				-0.004818	0.001290	-0.000060				-90.679983	-0.600603	-41.962989
00614	14442912	0.182640	-9.784685	-0.129238				-0.000925	0.000839	-0.000779				-90.680240	-0.600824	-41.963216
00615	14442962	0.191240	-9.788539	-0.118146				-0.006336	0.000548	-0.002018				-90.679691	-0.600697	-41.962987
00616	14443012	0.195869	-9.786479	-0.109377				-0.000417	0.002209	0.001378				-90.679809	-0.600311	-41.963633
00617	14443062	0.186177	-9.786781	-0.113018				-0.002941	0.001609	-0.001474				-90.678293	-0.600032	-41.963706
00618	14443112	0.192181	-9.799458	-0.132442				-0.002490	-0.000781	-0.003765				-90.679014	-0.601108	-41.963467
00619	14443162	0.188211	-9.786100	-0.109122				0.000230	-0.000013	0.001877				-90.676561	-0.599863	-41.963038
00620	14443212	0.196574	-9.793055	-0.113459				-0.007739	-0.000808	-0.002725				-90.678774	-0.600641	-41.962794
00621	14443262	0.206505	-9.812140	-0.113442				-0.005965	0.002076	-0.000854				-90.678108	-0.600191	-41.962979
00622	14443312	0.178661	-9.793266	-0.098635				-0.004891	-0.000256	0.002053				-90.679504	-0.599597	-41.962906
00623	14443362	0.198986	-9.784110	-0.106744				0.000490	0.001545	-0.001068				-90.676973	-0.599202	-41.962914
00624	14443412	0.183295	-9.791364	-0.110663				-0.005322	0.000151	0.001862				-90.678486	-0.598666	-41.962963
00625	14443462	0.194304	-9.812641	-0.106343				-0.003053	-0.001106	-0.002355				-90.677035	-0.598634	-41.962242
00626	14443512	0.181262	-9.781620	-0.113440				-0.001475	0.000126	0.001915				-90.677457	-0.598087	-41.962284
00627	14443562	0.179217	-9.785261	-0.109450				-0.005373	0.002703	-0.000946				-90.676602	-0.597660	-41.962641
00628	14443612	0.156616	-9.770685	-0.103581				-0.005781	-0.001638	0.000698				-90.678265	-0.597456	-41.962178
00629	14443662	0.169005	-9.795412	-0.121187				-0.007222	-0.000022	-0.004484				-90.677952	-0.598033	-41.961737
00630	14443712	0.182710	-9.801969	-0.131272				-0.004875	-0.002304	-0.001971				-90.679350	-0.598589	-41.961060
00631	14443762	0.199646	-9.797077	-0.111512				-0.006021	0.000484	-0.002563				-90.678702	-0.598612	-41.960829
00632	14443812	0.171427	-9.779115	-0.098881				-0.004816	0.002389	0.000559				-90.680079	-0.598462	-41.961516
00633	14443862	0.173392	-9.788008	-0.120832				-0.002284	-0.002095	-0.002328				-90.678359	-0.598416	-41.960531
00634	14443912	0.175749	-9.787857	-0.113517				-0.005323	0.004056	-0.002031				-90.679882	-0.599015	-41.961688
00635	14443962	0.180826	-9.793669	-0.117297				-0.002792	-0.002397	-0.002938				-90.678295	-0.599138	-41.960577
00636	14444012	0.183363	-9.786545	-0.115206				-0.004443	0.001452	-0.002594				-90.679564	-0.599882	-41.960983
00637	14444062	0.189922	-9.802730	-0.106546				-0.000179	0.002465	-0.001539				-90.677235	-0.599636	-41.961282
00638	14444112	0.191619	-9.784827	-0.112362				-0.006010	-0.000677	-0.001571				-90.678957	-0.600083	-41.961078
00639	14444162	0.181192	-9.779387	-0.135396				-0.006314	-0.002067	0.001018				-90.678409	-0.599083	-41.960066
00640	14444212	0.197385	-9.783846	-0.094101				-0.002296	0.000690	0.000605				-90.679076	-0.598911	-41.960271
00641	14444262	0.182653	-9.801591	-0.124617				-0.007422	-0.000569	-0.001632				-90.678846	-0.598669	-41.959709
00642	14444312	0.176625	-9.785633	-0.118671				-0.001913	0.000533	-0.001125				-90.679384	-0.598993	-41.959850
00643	14444362	0.200347	-9.804027	-0.090328				-0.003590	-0.000048	-0.000132				-90.678052	-0.598332	-41.959411
00644	14444412	0.170450	-9.783780	-0.120318				-0.000842	-0.001971	-0.000887				-90.678315	-0.598584	-41.958850
00645	14444462	0.182297	-9.781680	-0.123836				-0.004179	-0.002708	0.000302				-90.677141	-0.597783	-41.957658
00646	14444512	0.190526	-9.779901	-0.110008				-0.004669	0.001713	0.000422				-90.678484	-0.597672	-41.958152
00647	14444562	0.193766	-9.783702	-0.106610				-0.004191	0.002524	-0.002684				-90.677296	-0.597737	-41.958452
00648	14444612	0.191040	-9.787817	-0.118813				-0.004087	-0.000934	-0.003475				-90.678467	-0.598729	-41.958164
00649	14444662	0.189061	-9.788198	-0.111374				-0.004159	-0.001515	-0.002547				-90.677297	-0.598750	-41.957339
00650	14444712	0.191715	-9.785089	-0.110617				-0.001162	0.000586	0.003553				-90.677621	-0.597738	-41.957514
00651	14444762	0.186759	-9.799259	-0.103665				-0.001381	-0.000075	-0.001778				-90.675662	-0.597539	-41.957072
00652	14444812	0.191392	-9.791760	-0.109224				-0.003666	0.001505	0.000674				-90.676708	-0.597351	-41.957509
00653	14444862	0.189725	-9.784842	-0.112831				-0.005215	-0.000531	-0.002088				-90.675849	-0.597247	-41.956883
00654	14444912	0.197192	-9.792187	-0.107839				-0.003926	0.000396	-0.000709				-90.676979	-0.597452	-41.956997
00655	14444962	0.184768	-9.795474	-0.104156				-0.003419	0.000665	-0.000482				-90.675579	-0.596888	-41.956772
00656	14445012	0.199285	-9.771521	-0.107662				-0.006377	0.002005	-0.000659				-90.677398	-0.597084	-41.957343
00657	14445062	0.181185	-9.791314	-0.100348				-0.004858	0.001317	-0.001981				-90.676435	-0.596953	-41.957264
00658	14445112	0.192134	-9.793739	-0.103218				-0.004297	-0.001032	-0.000845				-90.677670	-0.597189	-41.956963
00659	14445162	0.186833	-9.790911	-0.106353				-0.002712	0.000679	0.000350				-90.676066	-0.596391	-41.956751
00660	14445212	0.190886	-9.783822	-0.116700				-0.005019	0.000409	-0.000995				-90.677504	-0.596674	-41.956865
00661	14445262	0.175396	-9.800681	-0.112825				-0.006591	0.000480	-0.002114				-90.677010	-0.596581	-41.956552
00662	14445312	0.191624	-9.793112	-0.113542				-0.003390	0.003967	0.000497				-90.677977	-0.596454	-41.957697
00663	14445362	0.183564	-9.788556	-0.107856				-0.006761	0.001768	-0.002521				-90.677550	-0.596484	-41.957795
00664	14445412	0.181749	-9.795507	-0.135637				-0.005785	0.001926	0.004888				-90.679208	-0.595089	-41.958368
00665	14445462	0.176330	-9.792434	-0.108051				-0.006218	0.000136	0.000644				-90.678627	-0.594214	-41.957978
00666	14445512	0.187080	-9.806021	-0.095319				-0.005236	0.001048	-0.003938				-90.680122	-0.595345	-41.958258
00667	14445562	0.175105	-9.794079	-0.126381				-0.003026	0.001384	-0.000159				-90.678629	-0.594695	-41.958267
00668	14445612	0.182185	-9.801808	-0.095400				0.000189	0.001024	-0.000076				-90.678578	-0.594723	-41.958556
00669	14445662	0.188588	-9.803929	-0.122088				-0.002269	0.001822	-0.000351				-90.676848	-0.594138	-41.958706
00670	14445712	0.168330	-9.794096	-0.099003				-0.004062	0.003694	-0.001553				-90.678001	-0.594593	-41.959763
00671	14445762	0.182219	-9.794053	-0.121328				-0.001261	0.000387	0.001914				-90.675996	-0.593346	-41.959449
00672	14445812	0.190583	-9.784250	-0.104355				-0.002155	0.002174	-0.001249				-90.676601	-0.593713	-41.960069
00673	14445862	0.197947	-9.798330	-0.108569				-0.005307	0.000375	-0.001828				-90.675774	-0.593534	-41.959735
00674	14445912	0.185006	-9.798798	-0.103976				-0.005643	0.003117	0.001010				-90.677387	-0.593254	-41.960634
00675	14445962	0.190347	-9.794244	-0.118657				-0.005360	0.001242	-0.001697				-90.676542	-0.593044	-41.960529
00676	14446012	0.196242	-9.791240	-0.108030				-0.005329	0.000013	-0.003406				-90.678076	-0.594017	-41.960530
00677	14446062	0.187044	-9.781532	-0.113943				-0.003054	0.000346	-0.000842				-90.676581	-0.593570	-41.960213
00678	14446112	0.174527	-9.793904	-0.107062				-0.007417	0.002500	-0.000749				-90.678705	-0.593797	-41.960927
00679	14446162	0.197077	-9.796008	-0.121478				-0.004328	0.000973	-0.001187				-90.677586	-0.593436	-41.960783
00680	14446212	0.174819	-9.787442	-0.094882				-0.007679	-0.001544	-0.000479				-90.679779	-0.593568	-41.960333
00681	14446262	0.169494	-9.788928	-0.110328				-0.004843	-0.000039	-0.000420				-90.678826	-0.592986	-41.959912
00682	14446312	0.184527	-9.789259	-0.122837				-0.003862	0.000501	0.000737				-90.679937	-0.592783	-41.960061
00683	14446362	0.182526	-9.802801	-0.123622				-0.006498	0.001942	0.001170				-90.679425	-0.591752	-41.960181
00684	14446412	0.175841	-9.775552	-0.111341				-0.004655	-0.001074	-0.002480				-90.680750	-0.592462	-41.959856
00685	14446462	0.200252	-9.797918	-0.102549				-0.001620	0.001508	-0.000354				-90.678862	-0.591873	-41.959921
00686	14446512	0.163450	-9.778507	-0.129463				-0.004585	0.001330	0.002609				-90.680170	-0.591132	-41.960308
00687	14446562	0.172761	-9.786849	-0.103947				-0.007215	0.001115	-0.000376				-90.679876	-0.590548	-41.960218
00688	14446612	0.184938	-9.789123	-0.100529				-0.002509	0.002232	-0.000222				-90.680591	-0.590617	-41.960857
00689	14446662	0.191360	-9.807844	-0.096477				-0.002621	0.000484	-0.002254				-90.678983	-0.590571	-41.960579
00690	14446712	0.193076	-9.790107	-0.107322				-0.003713	-0.000311	-0.000619				-90.680039	-0.590749	-41.960475
00691	14446762	0.189683	-9.790947	-0.117145				-0.002910	0.002240	0.004882				-90.678511	-0.588666	-41.960702
00692	14446812	0.178108	-9.785286	-0.124312				-0.006186	-0.001326	-0.003149				-90.680293	-0.589567	-41.960315
00693	14446862	0.178424	-9.797333	-0.111713				-0.001849	0.002502	-0.001376				-90.678456	-0.589273	-41.960613
00694	14446912	0.188890	-9.791029	-0.112272				-0.000610	0.004885	-0.003131				-90.678617	-0.590184	-41.961998
00695	14446962	0.179966	-9.785880	-0.099334				-0.002898	0.000220	-0.002861				-90.677076	-0.590306	-41.961605
00696	14447012	0.182237	-9.783572	-0.108927				-0.004530	0.002393	-0.000823				-90.678359	-0.590555	-41.962285
00697	14447062	0.173728	-9.791140	-0.117537				-0.003150	-0.000244	-0.005203				-90.676927	-0.591340	-41.961811
00698	14447112	0.180940	-9.794400	-0.100298				-0.002564	-0.000322	-0.002063				-90.677659	-0.591934	-41.961708
00699	14447162	0.186726	-9.791485	-0.114981				-0.005637	-0.000182	-0.001222				-90.676915	-0.591580	-41.961232
00700	14447212	0.177309	-9.795722	-0.094284				-0.004627	0.000289	-0.000387				-90.678245	-0.591694	-41.961317
00701	14447262	0.189826	-9.787153	-0.101362				-0.004499	0.000387	0.001472				-90.677149	-0.590571	-41.960982
00702	14447312	0.194902	-9.807088	-0.096435				0.000089	-0.003256	-0.002118				-90.677127	-0.591164	-41.960036
00703	14447362	0.189919	-9.800746	-0.112333				-0.005143	-0.000691	-0.001191				-90.676256	-0.590817	-41.959420
00704	14447412	0.165261	-9.790443	-0.107762				-0.006104	0.002492	-0.001651				-90.677995	-0.591297	-41.960129
00705	14447462	0.192333	-9.802326	-0.115539				-0.006678	0.000351	-0.000668				-90.677559	-0.590799	-41.959853
00706	14447512	0.187658	-9.787087	-0.107770				-0.003944	-0.001385	-0.004567				-90.678683	-0.592100	-41.959431
00707	14447562	0.188103	-9.823539	-0.112266				-0.001848	0.001534	-0.001191				-90.676859	-0.591753	-41.959455
00708	14447612	0.186380	-9.789530	-0.103483				-0.003050	0.000057	-0.001804				-90.677734	-0.592265	-41.959466
00709	14447662	0.174621	-9.781971	-0.111178				-0.007235	0.001830	0.000463				-90.677430	-0.591444	-41.959612
00710	14447712	0.188410	-9.790144	-0.108883				-0.001313	0.000402	-0.005270				-90.677813	-0.592955	-41.959713
00711	14447762	0.180834	-9.787833	-0.110521				-0.006989	0.001322	0.001902				-90.677453	-0.591718	-41.959679
00712	14447812	0.186992	-9.791265	-0.114018				-0.004831	-0.002662	-0.002485				-90.678853	-0.592417	-41.958912
00713	14447862	0.186577	-9.783392	-0.117155				-0.004616	-0.001001	0.001178				-90.677808	-0.591382	-41.958210
00714	14447912	0.180162	-9.798467	-0.114232				-0.005174	0.000277	-0.002115				-90.679296	-0.591990	-41.958293
00715	14447962	0.190306	-9.780093	-0.112820				-0.003214	0.001481	0.000708				-90.677845	-0.591092	-41.958271
00716	14448012	0.183565	-9.807916	-0.113785				0.001438	0.001980	-0.001261				-90.677434	-0.591459	-41.958838
00717	14448062	0.192228	-9.797673	-0.109659				-0.002486	0.000425	-0.000490				-90.675782	-0.590905	-41.958516
00718	14448112	0.191035	-9.793752	-0.118521				-0.000120	0.001534	-0.001447				-90.675804	-0.591321	-41.958945
00719	14448162	0.196228	-9.785003	-0.112820				-0.003200	0.003767	-0.003551				-90.674350	-0.591658	-41.959583
00720	14448212	0.200705	-9.788263	-0.113134				-0.003155	-0.000914	-0.001294				-90.675254	-0.592026	-41.959316
00721	14448262	0.174848	-9.788647	-0.124235				-0.004333	-0.000129	-0.002119				-90.674139	-0.591945	-41.958848
00722	14448312	0.196197	-9.808260	-0.111759				-0.000814	0.003265	-0.001378				-90.674355	-0.592348	-41.959780
00723	14448362	0.201479	-9.798930	-0.112850				-0.003353	-0.000025	-0.006620				-90.672988	-0.593542	-41.959339
00724	14448412	0.172893	-9.795936	-0.099545				-0.004618	0.001936	-0.002782				-90.674296	-0.594346	-41.959877
00725	14448462	0.189729	-9.802978	-0.121304				0.001461	0.000171	-0.000595				-90.671508	-0.593819	-41.959487
00726	14448512	0.181820	-9.791870	-0.109604				-0.001305	0.000047	-0.005943				-90.671895	-0.595527	-41.959486
00727	14448562	0.174152	-9.780099	-0.109584				-0.001480	-0.000857	-0.000526				-90.669957	-0.594966	-41.958787
00728	14448612	0.178876	-9.795283	-0.106052				-0.005098	0.002025	-0.001562				-90.671420	-0.595415	-41.959368
00729	14448662	0.175210	-9.785645	-0.103171				-0.002894	0.002027	-0.004100				-90.669883	-0.595917	-41.959490
00730	14448712	0.171713	-9.789226	-0.119874				-0.001663	0.000729	-0.001001				-90.670350	-0.596204	-41.959695
00731	14448762	0.195417	-9.798564	-0.126275				-0.002728	0.001032	-0.001700				-90.668779	-0.596001	-41.959554
00732	14448812	0.192382	-9.804435	-0.116927				-0.005109	-0.000883	-0.000712				-90.670246	-0.596201	-41.959300
00733	14448862	0.160236	-9.755317	-0.113107				-0.002989	0.000421	0.001281				-90.668741	-0.595138	-41.959001
00734	14448912	0.195200	-9.793134	-0.093893				-0.002825	0.001028	-0.001673				-90.669552	-0.595616	-41.959294
00735	14448962	0.190423	-9.803645	-0.108354				-0.006024	0.002816	-0.002389				-90.668917	-0.595616	-41.959660
00736	14449012	0.187870	-9.785334	-0.113364				-0.006171	0.000486	-0.000666				-90.670680	-0.595807	-41.959794
00737	14449062	0.195204	-9.795693	-0.096525				-0.002717	0.000552	0.000380				-90.669107	-0.595006	-41.959550
00738	14449112	0.170078	-9.790773	-0.113279				-0.007200	0.001301	-0.004221				-90.671169	-0.596219	-41.959908
00739	14449162	0.188617	-9.811347	-0.102458				-0.002570	0.001874	-0.002727				-90.669538	-0.596308	-41.960026
00740	14449212	0.188630	-9.784293	-0.103088				-0.007451	-0.002534	0.001819				-90.671673	-0.595778	-41.959302
00741	14449262	0.187388	-9.789651	-0.110637				-0.004391	0.004107	-0.001232				-90.670548	-0.595453	-41.960071
00742	14449312	0.186390	-9.798524	-0.120409				-0.002184	-0.002192	-0.001397				-90.671181	-0.595846	-41.959446
00743	14449362	0.209835	-9.799116	-0.109341				-0.004046	0.002402	0.000296				-90.669986	-0.595072	-41.959702
00744	14449412	0.197354	-9.789828	-0.106525				-0.001767	0.002184	-0.001121				-90.670491	-0.595401	-41.960338
00745	14449462	0.180735	-9.775235	-0.112208				-0.000608	0.003206	0.001354				-90.668279	-0.594323	-41.960806
00746	14449512	0.167049	-9.777721	-0.116252				-0.001134	-0.001881	-0.001853				-90.668612	-0.594848	-41.960263
00747	14449562	0.197192	-9.786423	-0.112195				-0.003973	0.001780	-0.003394				-90.667393	-0.595125	-41.960330
00748	14449612	0.187249	-9.793334	-0.118436				-0.006606	0.002094	-0.001752				-90.669271	-0.595629	-41.960916
00749	14449662	0.208067	-9.790186	-0.120747				-0.001083	-0.001828	-0.005636				-90.667236	-0.596555	-41.959962
00750	14449712	0.172934	-9.804173	-0.103167				-0.005440	0.002829	-0.000723				-90.668791	-0.596778	-41.960765
00751	14449762	0.199497	-9.795614	-0.098906				0.000087	-0.000724	0.000554				-90.666400	-0.595914	-41.960135
00752	14449812	0.183161	-9.797192	-0.101954				-0.002896	0.000055	-0.002797				-90.667237	-0.596716	-41.960141
00753	14449862	0.174496	-9.804574	-0.107181				-0.001961	-0.000250	-0.003865				-90.665431	-0.597128	-41.959639
00754	14449912	0.160647	-9.767273	-0.106695				-0.004801	0.003783	-0.001659				-90.666801	-0.597616	-41.960711
00755	14449962	0.177365	-9.768521	-0.150609				-0.003573	-0.000788	-0.001208				-90.665483	-0.597266	-41.960096
00756	14450012	0.165831	-9.780610	-0.114632				-0.004541	0.002658	0.000033				-90.666772	-0.597261	-41.960862
00757	14450062	0.188073	-9.783597	-0.118072				-0.003629	0.000988	-0.002834				-90.665430	-0.597376	-41.960708
00758	14450112	0.185415	-9.801082	-0.109653				-0.001194	0.001772	-0.003539				-90.665769	-0.598398	-41.961199
00759	14450162	0.198146	-9.812038	-0.111362				-0.004300	-0.000025	-0.001045				-90.664652	-0.598003	-41.960739
00760	14450212	0.172045	-9.771324	-0.095781				-0.005884	-0.001635	-0.000016				-90.666340	-0.598005	-41.960267
00761	14450262	0.166167	-9.786319	-0.113398				-0.003714	0.000763	-0.000171				-90.665057	-0.597359	-41.960070
00762	14450312	0.187660	-9.808402	-0.110187				-0.005640	-0.001474	-0.003453				-90.666669	-0.598341	-41.959635
00763	14450362	0.186363	-9.775325	-0.101732				-0.002217	-0.000482	-0.005829				-90.664947	-0.599310	-41.959083
00764	14450412	0.174840	-9.772668	-0.114383				-0.002081	0.000761	-0.001172				-90.665537	-0.599642	-41.959299
00765	14450462	0.185996	-9.795551	-0.113994				-0.003259	-0.000321	0.001747				-90.664101	-0.598452	-41.958771
00766	14450512	0.183936	-9.791892	-0.090949				-0.001284	0.003004	-0.001834				-90.664460	-0.598988	-41.959622
00767	14450562	0.179958	-9.782141	-0.111632				-0.005729	-0.002606	-0.001657				-90.663748	-0.598756	-41.958445
00768	14450612	0.184276	-9.783621	-0.088875				-0.005411	0.002738	-0.000477				-90.665299	-0.598906	-41.959229
00769	14450662	0.183004	-9.801125	-0.108447				-0.004531	0.000905	-0.003442				-90.664228	-0.599197	-41.959032
00770	14450712	0.197823	-9.798692	-0.115653				-0.001716	0.002314	-0.002515				-90.664712	-0.599923	-41.959686
00771	14450762	0.175400	-9.803627	-0.106281				-0.003786	0.001727	-0.003503				-90.663438	-0.600241	-41.959739
00772	14450812	0.182875	-9.789499	-0.108848				-0.000715	-0.002261	-0.002925				-90.663645	-0.601072	-41.959079
00773	14450862	0.172634	-9.785691	-0.117771				-0.003828	-0.000788	-0.000596				-90.662403	-0.600540	-41.958422
00774	14450912	0.185264	-9.789116	-0.100712				-0.001036	0.004105	-0.002918				-90.662684	-0.601385	-41.959595
00775	14450962	0.190003	-9.790251	-0.100180				-0.004612	0.004622	-0.004259				-90.661617	-0.601927	-41.960451
00776	14451012	0.188976	-9.803260	-0.119071				-0.005201	0.000093	0.000501				-90.663098	-0.601784	-41.960477
00777	14451062	0.189862	-9.782952	-0.112003				0.000458	0.001615	0.000302				-90.660625	-0.601013	-41.960541
00778	14451112	0.182060	-9.789344	-0.088394				-0.004503	-0.003037	-0.003844				-90.661924	-0.602102	-41.959668
00779	14451162	0.188584	-9.800402	-0.119988				-0.004598	-0.000037	-0.005085				-90.660874	-0.602861	-41.959172
00780	14451212	0.194292	-9.787859	-0.113408				-0.005933	-0.002284	-0.002526				-90.662583	-0.603578	-41.958513
00781	14451262	0.197084	-9.816301	-0.113082				-0.004572	0.001229	-0.002512				-90.661518	-0.603605	-41.958423
00782	14451312	0.185822	-9.793803	-0.088595				-0.004179	0.000338	0.001301				-90.662721	-0.603233	-41.958530
00783	14451362	0.172804	-9.794182	-0.105239				-0.004309	0.003506	0.001001				-90.661579	-0.602267	-41.959085
00784	14451412	0.177915	-9.809347	-0.102047				-0.004331	-0.001696	0.004336				-90.662810	-0.601016	-41.958605
00785	14451462	0.191881	-9.809355	-0.105851				-0.002163	0.005312	-0.002272				-90.661068	-0.600990	-41.959705
00786	14451512	0.179792	-9.788159	-0.090201				-0.004066	0.001924	0.000861				-90.662240	-0.600752	-41.960275
00787	14451562	0.199350	-9.794853	-0.117706				-0.004563	0.003500	0.000391				-90.661171	-0.599955	-41.960835
00788	14451612	0.175479	-9.797018	-0.103899				-0.003561	0.004131	-0.000442				-90.662183	-0.600097	-41.962013
00789	14451662	0.185237	-9.791315	-0.111665				-0.005811	-0.001629	0.002319				-90.661474	-0.598743	-41.961125
00790	14451712	0.190274	-9.795445	-0.086209				-0.005359	-0.000276	-0.004634				-90.662998	-0.600070	-41.961021
00791	14451762	0.182566	-9.810379	-0.108433				-0.000124	-0.000302	-0.000698				-90.660692	-0.599577	-41.960539
00792	14451812	0.183597	-9.789122	-0.117538				-0.002368	0.000691	-0.001236				-90.661371	-0.599933	-41.960739
00793	14451862	0.184150	-9.796639	-0.121160				-0.004421	-0.000116	0.000916				-90.660290	-0.598969	-41.960279
00794	14451912	0.180389	-9.789326	-0.106532				-0.003739	0.000444	0.000308				-90.661362	-0.598884	-41.960403
00795	14451962	0.173459	-9.780593	-0.109087				-0.001562	0.001580	-0.000686				-90.659430	-0.598389	-41.960427
00796	14452012	0.191946	-9.779205	-0.107560				-0.003650	-0.001299	0.000042				-90.660464	-0.598366	-41.960052
00797	14452062	0.189229	-9.794394	-0.125038				-0.003097	-0.000749	-0.001788				-90.659005	-0.598191	-41.959405
00798	14452112	0.190473	-9.788386	-0.113020				-0.003529	-0.001144	-0.001790				-90.660014	-0.598700	-41.959068
00799	14452162	0.175033	-9.799937	-0.099445				-0.006703	0.001101	0.000094				-90.659566	-0.597985	-41.958972
00800	14452212	0.181888	-9.786889	-0.109682				-0.005005	0.002196	-0.000095				-90.660994	-0.598024	-41.959597
00801	14452262	0.173042	-9.793648	-0.093675				-0.006966	-0.002074	-0.001651				-90.660629	-0.597792	-41.958560
00802	14452312	0.184621	-9.790592	-0.097753				-0.005928	0.001889	0.000258				-90.662317	-0.597725	-41.959097
00803	14452362	0.166561	-9.773374	-0.105833				-0.007035	0.000744	0.002822				-90.661983	-0.596221	-41.958930
00804	14452412	0.185349	-9.798620	-0.115505				-0.005360	0.002287	0.001156				-90.663516	-0.595900	-41.959597
00805	14452462	0.178492	-9.783689	-0.104495				0.000151	0.004223	-0.002921				-90.661097	-0.596056	-41.960368
00806	14452512	0.173666	-9.790042	-0.111342				-0.004181	-0.000060	-0.003254				-90.662295	-0.596991	-41.960340
00807	14452562	0.163622	-9.774605	-0.121099				-0.004348	0.001759	0.000223				-90.661172	-0.596242	-41.960399
00808	14452612	0.177109	-9.783176	-0.107966				-0.004794	0.000190	-0.003155				-90.662547	-0.597150	-41.960447
00809	14452662	0.187446	-9.799852	-0.125684				-0.002159	0.003146	-0.002889				-90.660816	-0.597291	-41.960952
00810	14452712	0.196565	-9.786353	-0.117157				-0.002897	0.000429	0.002708				-90.661641	-0.596516	-41.961080
00811	14452762	0.180745	-9.798106	-0.105745				-0.002153	0.000922	-0.000530				-90.659890	-0.595982	-41.960904
00812	14452812	0.193562	-9.807688	-0.104535				-0.007223	-0.000818	-0.000816				-90.661957	-0.596208	-41.960663
00813	14452862	0.174631	-9.794929	-0.116784				-0.002869	-0.000774	-0.001561				-90.660426	-0.595967	-41.960011
00814	14452912	0.180576	-9.765873	-0.104141				-0.004821	0.003558	0.000487				-90.661797	-0.595841	-41.961035
00815	14452962	0.196136	-9.790879	-0.100567				-0.002120	-0.000181	-0.001146				-90.660044	-0.595480	-41.960536
00816	14453012	0.179275	-9.791634	-0.112035				-0.003773	0.001703	-0.000649				-90.661119	-0.595673	-41.961017
00817	14453062	0.186721	-9.791902	-0.103920				-0.003544	-0.000988	-0.003649				-90.659767	-0.596024	-41.960276
00818	14453112	0.185919	-9.789659	-0.096014				-0.003225	0.000346	-0.001458				-90.660696	-0.596446	-41.960372
00819	14453162	0.187648	-9.796155	-0.103623				-0.002775	-0.000675	-0.000886				-90.659118	-0.595999	-41.959739
00820	14453212	0.198296	-9.793923	-0.101817				-0.002333	0.001594	-0.000978				-90.659788	-0.596286	-41.960192
00821	14453262	0.199413	-9.800671	-0.109488				-0.003313	0.002096	-0.001962				-90.658370	-0.596161	-41.960376
00822	14453312	0.179153	-9.785678	-0.128626				-0.003739	0.000472	-0.001460				-90.659433	-0.596576	-41.960505
00823	14453362	0.161165	-9.774570	-0.109507				-0.002190	0.004480	-0.000411				-90.657700	-0.596023	-41.961356
00824	14453412	0.177507	-9.784795	-0.109991				0.000063	-0.002173	0.000992				-90.657692	-0.595737	-41.960730
00825	14453462	0.189961	-9.793092	-0.100596				-0.003492	-0.001401	-0.001790				-90.656318	-0.595547	-41.959896
00826	14453512	0.197655	-9.791257	-0.105945				-0.004670	0.003554	-0.001502				-90.657646	-0.595985	-41.960918
00827	14453562	0.169606	-9.790112	-0.094708				-0.002240	-0.000244	0.000463				-90.655921	-0.595166	-41.960410
00828	14453612	0.190099	-9.795033	-0.113008				-0.001400	0.001515	-0.000884				-90.656324	-0.595426	-41.960839
00829	14453662	0.175914	-9.783029	-0.087613				-0.004989	-0.000455	0.000564				-90.655401	-0.594568	-41.960287
00830	14453712	0.175264	-9.780756	-0.096906				-0.003801	0.000443	-0.000912				-90.656482	-0.594827	-41.960419
00831	14453762	0.186683	-9.795994	-0.099850				-0.003151	-0.001170	-0.002913				-90.655044	-0.594979	-41.959648
00832	14453812	0.176390	-9.805497	-0.107211				-0.002407	-0.000220	-0.001078				-90.655730	-0.595287	-41.959585
00833	14453862	0.181584	-9.797976	-0.113661				0.000222	-0.000398	-0.002210				-90.653285	-0.595228	-41.959019
00834	14453912	0.165312	-9.774994	-0.109561				-0.004590	0.001100	-0.001319				-90.654606	-0.595618	-41.959331
00835	14453962	0.179167	-9.797069	-0.113481				-0.003136	0.003651	-0.002498				-90.653142	-0.595646	-41.959920
00836	14454012	0.166349	-9.778172	-0.118482				-0.006117	0.001623	-0.002146				-90.654900	-0.596267	-41.960387
00837	14454062	0.177557	-9.798005	-0.099786				-0.002924	0.000197	0.000527				-90.653360	-0.595416	-41.960009
00838	14454112	0.207270	-9.804142	-0.108571				-0.004438	0.003369	0.000228				-90.654615	-0.595359	-41.960967
00839	14454162	0.177312	-9.776941	-0.127549				-0.001093	-0.000095	0.000042				-90.652575	-0.594662	-41.960543
00840	14454212	0.184073	-9.805595	-0.125433				-0.001802	0.002221	0.000858				-90.653089	-0.594427	-41.961182
00841	14454262	0.203451	-9.811577	-0.090753				-0.002043	-0.000465	0.000615				-90.651294	-0.593555	-41.960637
00842	14454312	0.175960	-9.810980	-0.105803				-0.004358	0.001787	-0.002572				-90.652545	-0.594304	-41.961144
00843	14454362	0.179866	-9.785933	-0.127313				-0.001655	0.000275	-0.002009				-90.650655	-0.594187	-41.960782
00844	14454412	0.194724	-9.800713	-0.110199				-0.002158	-0.000317	-0.005158				-90.651265	-0.595663	-41.960664
00845	14454462	0.198158	-9.788498	-0.114774				-0.001770	-0.000208	-0.001302				-90.649415	-0.595346	-41.960162
00846	14454512	0.193985	-9.823791	-0.106841				-0.003330	-0.000688	-0.003164				-90.650374	-0.596252	-41.959959
00847	14454562	0.190729	-9.796781	-0.107088				-0.004436	-0.001929	-0.000315				-90.649297	-0.595646	-41.958999
00848	14454612	0.186552	-9.796098	-0.093457				-0.006701	-0.000768	0.003323				-90.651223	-0.594693	-41.958793
00849	14454662	0.172865	-9.787515	-0.107449				-0.002985	0.001708	-0.003567				-90.649683	-0.595020	-41.958804
00850	14454712	0.187226	-9.790519	-0.116089				-0.001669	-0.003406	-0.001644				-90.650169	-0.595480	-41.957820
00851	14454762	0.192051	-9.804049	-0.111810				-0.002779	0.000557	-0.000562				-90.648606	-0.594950	-41.957560
00852	14454812	0.190061	-9.804758	-0.128604				-0.001021	-0.000417	-0.000154				-90.648887	-0.594984	-41.957431
00853	14454862	0.189255	-9.785056	-0.114474				-0.002640	0.001040	-0.000942				-90.647291	-0.594580	-41.957318
00854	14454912	0.198939	-9.802844	-0.107344				-0.003121	0.002263	0.000216				-90.648174	-0.594525	-41.957959
00855	14454962	0.210404	-9.808522	-0.099062				-0.005138	0.000189	-0.001012				-90.647293	-0.594128	-41.957587
00856	14455012	0.186341	-9.788527	-0.138153				-0.002658	-0.001218	0.000648				-90.648055	-0.593939	-41.957237
00857	14455062	0.192816	-9.781936	-0.114661				-0.001726	0.001635	-0.002421				-90.646183	-0.593955	-41.957282
00858	14455112	0.174939	-9.785004	-0.114626				-0.004775	-0.001194	0.000402				-90.647552	-0.593830	-41.956943
00859	14455162	0.190923	-9.801219	-0.111653				-0.004979	-0.000040	-0.003155				-90.646621	-0.594045	-41.956503
00860	14455212	0.207374	-9.806424	-0.114434				-0.005831	0.002860	-0.001538				-90.648288	-0.594496	-41.957326
00861	14455262	0.181145	-9.794488	-0.109717				-0.007586	-0.001369	0.001365				-90.648121	-0.593416	-41.956522
00862	14455312	0.179063	-9.794615	-0.103110				-0.001974	0.005610	-0.001720				-90.648673	-0.593928	-41.958123
00863	14455362	0.194935	-9.808378	-0.105386				-0.002027	0.003118	-0.000421				-90.646876	-0.593365	-41.958591
00864	14455412	0.171289	-9.781948	-0.099994				-0.003629	0.001021	-0.001550				-90.647905	-0.593810	-41.958884
00865	14455462	0.191140	-9.793595	-0.098228				-0.004891	0.001585	0.000090				-90.646946	-0.593109	-41.958903
00866	14455512	0.212986	-9.797917	-0.123318				-0.008514	0.000618	-0.000002				-90.649381	-0.593115	-41.959078
00867	14455562	0.187101	-9.779816	-0.102958				-0.003625	0.002160	0.001372				-90.648075	-0.592047	-41.959316
00868	14455612	0.187972	-9.793028	-0.122160				-0.004393	-0.000248	-0.001265				-90.649346	-0.592413	-41.959245
00869	14455662	0.183026	-9.780612	-0.115794				-0.008142	0.000913	-0.000608				-90.649303	-0.591893	-41.959026
00870	14455712	0.179329	-9.796400	-0.110783				-0.001194	0.000063	-0.000314				-90.649634	-0.591977	-41.959035
00871	14455762	0.182978	-9.803634	-0.099929				-0.006594	-0.000453	-0.001327				-90.649177	-0.591687	-41.958465
00872	14455812	0.187173	-9.767381	-0.108999				-0.004979	0.000928	-0.004276				-90.650596	-0.592917	-41.958714
00873	14455862	0.191917	-9.800859	-0.118555				-0.003164	-0.000755	-0.003806				-90.649142	-0.593312	-41.958116
00874	14455912	0.173330	-9.796982	-0.107656				-0.003155	-0.000644	0.000688				-90.650040	-0.593114	-41.957926
00875	14455962	0.174749	-9.809069	-0.107708				-0.003807	0.002604	-0.000996				-90.648779	-0.592731	-41.958253
00876	14456012	0.182523	-9.802370	-0.104814				-0.003915	-0.001182	-0.001916				-90.649893	-0.593278	-41.957898
00877	14456062	0.178822	-9.786489	-0.122637				-0.005260	-0.002206	-0.000955				-90.649071	-0.592848	-41.956820
00878	14456112	0.186562	-9.782795	-0.109952				-0.004534	0.004432	-0.000439				-90.650368	-0.592991	-41.958086
00879	14456162	0.203578	-9.802114	-0.120106				-0.004568	0.003234	-0.002498				-90.649290	-0.593029	-41.958578
00880	14456212	0.184782	-9.797510	-0.095319				-0.006116	-0.002611	-0.002526				-90.651040	-0.593745	-41.957809
00881	14456262	0.165576	-9.759412	-0.104730				-0.009052	0.002349	-0.001527				-90.651286	-0.593507	-41.958053
00882	14456312	0.179348	-9.774549	-0.111757				-0.005487	0.000890	-0.002060				-90.652849	-0.594102	-41.958299
00883	14456362	0.203083	-9.800493	-0.117401				-0.002033	0.002084	-0.002287				-90.651074	-0.594081	-41.958454
00884	14456412	0.177570	-9.791694	-0.108934				-0.004677	-0.002319	0.000711				-90.652432	-0.593876	-41.957799
00885	14456462	0.182308	-9.779701	-0.098657				-0.002503	0.000615	-0.005370				-90.650786	-0.594730	-41.957557
00886	14456512	0.179696	-9.802117	-0.092851				-0.004244	0.002604	0.002980				-90.651995	-0.593883	-41.958319
00887	14456562	0.190616	-9.792193	-0.097267				-0.004560	-0.001933	0.000552				-90.650947	-0.593029	-41.957335
00888	14456612	0.194907	-9.809475	-0.096139				-0.009307	-0.002664	0.000561				-90.653616	-0.592860	-41.956570
00889	14456662	0.179886	-9.780065	-0.107537				-0.003531	0.000861	-0.001810				-90.652272	-0.592706	-41.956402
00890	14456712	0.182801	-9.794643	-0.113685				-0.002088	-0.000514	-0.006307				-90.652879	-0.594510	-41.956233
00891	14456762	0.187619	-9.796399	-0.103365				0.000140	0.002482	-0.000557				-90.650467	-0.593992	-41.956513
00892	14456812	0.168432	-9.789792	-0.116956				-0.002016	0.000469	-0.003130				-90.651047	-0.594890	-41.956634
00893	14456862	0.186059	-9.795010	-0.102932				-0.003748	0.001401	-0.004405				-90.649770	-0.595477	-41.956627
00894	14456912	0.181036	-9.789838	-0.119063				-0.005307	0.002315	-0.002757				-90.651274	-0.596273	-41.957277
00895	14456962	0.189635	-9.799614	-0.108981				-0.003637	0.001349	-0.000394				-90.649957	-0.595710	-41.957203
00896	14457012	0.175527	-9.789705	-0.116833				-0.003697	-0.003052	-0.001476				-90.651020	-0.596121	-41.956313
00897	14457062	0.177234	-9.801512	-0.103405				-0.004225	-0.000311	-0.000463				-90.649894	-0.595569	-41.955833
00898	14457112	0.194395	-9.805559	-0.103920				-0.002693	0.001719	-0.002067				-90.650658	-0.596168	-41.956315
00899	14457162	0.189572	-9.796847	-0.103927				-0.003004	0.002586	-0.000647				-90.649147	-0.595678	-41.956622
00900	14457212	0.195819	-9.793120	-0.109586				-0.006321	0.000875	-0.003920				-90.650951	-0.596803	-41.956860
00901	14457262	0.210206	-9.802210	-0.124135				-0.003461	-0.000395	-0.000468				-90.649585	-0.596254	-41.956314
00902	14457312	0.174100	-9.787691	-0.109491				0.000277	-0.001178	-0.003368				-90.649510	-0.597210	-41.955971
00903	14457362	0.192747	-9.804479	-0.114196				-0.002701	-0.000799	0.001612				-90.647946	-0.596070	-41.955324
00904	14457412	0.181274	-9.794492	-0.124795				-0.003239	-0.000998	0.001161				-90.648871	-0.595737	-41.955038
00905	14457462	0.184488	-9.787120	-0.107709				-0.001994	0.004057	-0.001703				-90.647051	-0.595552	-41.955757
00906	14457512	0.198419	-9.801103	-0.096984				0.000891	0.000975	-0.001664				-90.646797	-0.596039	-41.956033
00907	14457562	0.198343	-9.806911	-0.120906				-0.000259	-0.002113	0.000763				-90.644520	-0.595123	-41.955052
00908	14457612	0.175775	-9.777331	-0.103374				-0.001754	-0.002693	-0.001578				-90.645025	-0.595565	-41.954278
00909	14457662	0.196196	-9.801832	-0.113832				-0.004114	0.002044	-0.003213				-90.643866	-0.595823	-41.954424
00910	14457712	0.184101	-9.782724	-0.116805				-0.002121	0.000655	-0.005535				-90.644471	-0.597407	-41.954589
00911	14457762	0.172527	-9.778342	-0.117502				-0.002364	0.000329	-0.002295				-90.642775	-0.597387	-41.954288
00912	14457812	0.193985	-9.785080	-0.109745				-0.004463	0.000975	-0.001325				-90.644049	-0.597767	-41.954571
00913	14457862	0.177202	-9.793398	-0.106791				-0.006747	-0.000779	-0.001904				-90.643631	-0.597625	-41.953905
00914	14457912	0.186302	-9.785083	-0.115396				-0.003473	0.002419	0.000349				-90.644623	-0.597531	-41.954599
00915	14457962	0.212529	-9.794687	-0.117724				-0.004819	-0.000842	-0.001016				-90.643654	-0.597148	-41.953930
00916	14458012	0.203684	-9.797400	-0.117653				-0.003901	0.001504	-0.000878				-90.644774	-0.597408	-41.954366
00917	14458062	0.177315	-9.790957	-0.110826				-0.003325	-0.002261	0.002988				-90.643374	-0.595857	-41.953288
00918	14458112	0.184009	-9.789451	-0.110619				-0.003088	0.002295	-0.000937				-90.644257	-0.596132	-41.953949
00919	14458162	0.198161	-9.810634	-0.125846				-0.003012	0.002816	0.000028				-90.642762	-0.595452	-41.954310
00920	14458212	0.175183	-9.783277	-0.118319				-0.007118	0.000960	-0.000609				-90.644786	-0.595630	-41.954578
00921	14458262	0.177049	-9.781465	-0.111287				-0.001932	0.000021	-0.001461				-90.642983	-0.595366	-41.954166
00922	14458312	0.189195	-9.794903	-0.122165				-0.004727	0.001261	-0.000358				-90.644342	-0.595474	-41.954534
00923	14458362	0.200273	-9.807775	-0.094168				-0.003986	0.000574	0.002619				-90.643111	-0.594045	-41.954281
00924	14458412	0.182615	-9.783235	-0.115129				-0.001593	0.001410	-0.003384				-90.643559	-0.595021	-41.954667
00925	14458462	0.184739	-9.801383	-0.120900				-0.003316	0.000350	0.000016				-90.642167	-0.594334	-41.954366
00926	14458512	0.170778	-9.786819	-0.123056				-0.003642	-0.000658	-0.001947				-90.643207	-0.594890	-41.954167
00927	14458562	0.179885	-9.792488	-0.117292				-0.004408	-0.003067	-0.002212				-90.642130	-0.594833	-41.952861
00928	14458612	0.181254	-9.800324	-0.115638				-0.003147	-0.001870	0.003050				-90.643034	-0.593947	-41.952335
00929	14458662	0.183682	-9.799193	-0.109881				-0.002334	0.001466	-0.002449				-90.641343	-0.593982	-41.952318
00930	14458712	0.182816	-9.775888	-0.099095				-0.001775	0.002484	0.000954				-90.641857	-0.593722	-41.953039
00931	14458762	0.186261	-9.791049	-0.113249				-0.004257	-0.002645	-0.002564				-90.640703	-0.593756	-41.951830
00932	14458812	0.188400	-9.787669	-0.115694				-0.003219	-0.000107	-0.004286				-90.641622	-0.594982	-41.951776
00933	14458862	0.193705	-9.799454	-0.115962				-0.003547	0.000475	-0.000815				-90.640291	-0.594542	-41.951498
00934	14458912	0.192085	-9.787215	-0.111213				-0.005747	0.001347	0.000924				-90.641929	-0.594277	-41.951887
00935	14458962	0.199213	-9.805984	-0.103263				-0.003275	0.001063	-0.000720				-90.640512	-0.593820	-41.951757
00936	14459012	0.175835	-9.777717	-0.125015				-0.006487	0.000229	-0.000522				-90.642362	-0.593969	-41.951811
00937	14459062	0.179529	-9.792938	-0.104039				-0.009709	-0.001285	-0.001577				-90.642793	-0.593731	-41.951008
00938	14459112	0.197486	-9.802258	-0.115549				-0.006232	-0.001635	0.001520				-90.644587	-0.593294	-41.950552
00939	14459162	0.186119	-9.798957	-0.108280				-0.005207	0.002056	-0.002760				-90.643702	-0.593408	-41.950673
00940	14459212	0.183953	-9.784188	-0.098480				-0.007075	0.000602	-0.001992				-90.645720	-0.593975	-41.950833
00941	14459262	0.178294	-9.796223	-0.107238				-0.002322	0.001037	-0.005309				-90.644049	-0.594829	-41.950692
00942	14459312	0.174734	-9.778615	-0.097601				-0.002319	0.001341	-0.000299				-90.644699	-0.594921	-41.951068
00943	14459362	0.185662	-9.787744	-0.112593				-0.006561	0.002652	-0.000411				-90.644228	-0.594366	-41.951419
00944	14459412	0.168765	-9.775842	-0.113666				-0.004464	0.000838	-0.004271				-90.645496	-0.595588	-41.951639
00945	14459462	0.182162	-9.791008	-0.103796				-0.001851	0.000273	-0.002875				-90.643667	-0.595746	-41.951272
00946	14459512	0.183866	-9.795527	-0.101803				-0.005395	-0.002115	-0.003486				-90.645221	-0.596739	-41.950662
00947	14459562	0.183083	-9.783396	-0.119918				-0.003095	-0.000554	-0.000660				-90.643760	-0.596243	-41.950045
00948	14459612	0.212204	-9.804084	-0.108539				-0.000925	0.004052	0.001086				-90.644016	-0.595944	-41.951206
00949	14459662	0.177503	-9.806665	-0.107491				-0.002428	-0.001474	0.000131				-90.642334	-0.595228	-41.950363
00950	14459712	0.188005	-9.798477	-0.091036				-0.004840	0.000036	0.001461				-90.643713	-0.594807	-41.950378
00951	14459762	0.187527	-9.801948	-0.112818				-0.003825	0.000151	0.000337				-90.642466	-0.594036	-41.950003
00952	14459812	0.184029	-9.787405	-0.104856				-0.002015	-0.002506	-0.002407				-90.643056	-0.594715	-41.949277
00953	14459862	0.193092	-9.790821	-0.107147				-0.007022	0.002096	0.000680				-90.642711	-0.593854	-41.949470
00954	14459912	0.182541	-9.790317	-0.101845				-0.006051	0.001652	-0.001948				-90.644440	-0.594414	-41.949937
00955	14459962	0.186921	-9.805127	-0.106947				-0.000490	-0.000262	-0.004191				-90.642205	-0.594944	-41.949413
00956	14460012	0.178743	-9.783422	-0.121860				-0.002948	0.000737	-0.000712				-90.643042	-0.595151	-41.949615
00957	14460062	0.193728	-9.788854	-0.110894				-0.003843	0.000887	0.001469				-90.641803	-0.594053	-41.949469
00958	14460112	0.189900	-9.800107	-0.107285				-0.002249	0.000846	-0.002320				-90.642441	-0.594723	-41.949695
00959	14460162	0.196891	-9.811914	-0.105204				-0.004879	-0.000071	-0.001483				-90.641482	-0.594457	-41.949254
00960	14460212	0.173444	-9.796690	-0.111341				-0.005141	0.003284	-0.001460				-90.642937	-0.594883	-41.950193
00961	14460262	0.183512	-9.804405	-0.110546				-0.000022	0.000562	-0.000945				-90.640587	-0.594493	-41.949914
00962	14460312	0.201021	-9.795501	-0.104888				-0.001064	0.004072	-0.001824				-90.640879	-0.595026	-41.951079
00963	14460362	0.183848	-9.786172	-0.138948				-0.005583	0.004479	0.002620				-90.640103	-0.593608	-41.951934
00964	14460412	0.160814	-9.783163	-0.106660				-0.002354	-0.000706	-0.000557				-90.640779	-0.593763	-41.951732
00965	14460462	0.197948	-9.789581	-0.121902				-0.002883	0.002872	-0.000992				-90.639245	-0.593382	-41.952134
00966	14460512	0.175748	-9.794130	-0.106478				-0.002578	-0.001869	-0.000438				-90.639990	-0.593497	-41.951600
00967	14460562	0.183702	-9.794978	-0.121941				-0.004233	0.003011	0.000328				-90.638843	-0.592746	-41.952030
00968	14460612	0.185598	-9.788038	-0.108747				-0.005119	0.003001	0.001585				-90.640294	-0.592305	-41.952898
00969	14460662	0.190810	-9.802048	-0.103951				-0.003022	0.002261	-0.000323				-90.638797	-0.591718	-41.953133
00970	14460712	0.196361	-9.795218	-0.127278				-0.005198	-0.001045	-0.000849				-90.640301	-0.591954	-41.952833
00971	14460762	0.178960	-9.794836	-0.119472				-0.002540	0.001939	-0.002506				-90.638650	-0.592009	-41.952949
00972	14460812	0.181894	-9.805780	-0.115004				-0.007382	-0.000763	-0.000229				-90.640774	-0.592073	-41.952728
00973	14460862	0.187093	-9.797393	-0.100829				-0.005742	-0.000422	-0.006036				-90.640072	-0.593120	-41.952201
00974	14460912	0.208551	-9.792910	-0.112938				-0.004552	0.001068	0.000221				-90.641364	-0.593059	-41.952501
00975	14460962	0.177455	-9.776158	-0.116876				-0.006080	-0.001418	0.000247				-90.640743	-0.592310	-41.951659
00976	14461012	0.181618	-9.794558	-0.120389				-0.000452	-0.000322	-0.003032				-90.640877	-0.593179	-41.951553
00977	14461062	0.193485	-9.798134	-0.124809				-0.002205	0.007054	0.000893				-90.639119	-0.592266	-41.953180
00978	14461112	0.192418	-9.808655	-0.120245				-0.002071	-0.000705	-0.000852				-90.639719	-0.592507	-41.952977
00979	14461162	0.184987	-9.803637	-0.113046				-0.005275	0.001602	-0.000923				-90.638871	-0.592098	-41.952980
00980	14461212	0.195528	-9.796159	-0.112770				-0.002006	-0.001571	-0.000054				-90.639459	-0.592112	-41.952531
00981	14461262	0.205204	-9.801911	-0.085817				-0.003422	0.001898	0.000934				-90.638076	-0.591174	-41.952616
00982	14461312	0.174501	-9.786213	-0.113194				-0.003716	-0.001315	-0.001302				-90.639135	-0.591545	-41.952232
00983	14461362	0.186186	-9.794467	-0.106253				-0.001937	-0.001696	0.000455				-90.637343	-0.590725	-41.951318
00984	14461412	0.170181	-9.800816	-0.092361				-0.005919	0.001825	0.001837				-90.639036	-0.590207	-41.951849
00985	14461462	0.191524	-9.807687	-0.106856				-0.004784	-0.000744	0.002266				-90.638049	-0.588877	-41.951206
00986	14461512	0.175788	-9.783638	-0.125177				-0.003800	0.004370	-0.002552				-90.639130	-0.589623	-41.952455
00987	14461562	0.177810	-9.779284	-0.098178				-0.005544	0.000048	0.000318				-90.638381	-0.588859	-41.952053
00988	14461612	0.187033	-9.783318	-0.105990				-0.002097	0.000466	0.000470				-90.638979	-0.588725	-41.952185
00989	14461662	0.184854	-9.791449	-0.119500				-0.004380	0.000387	-0.002219				-90.637869	-0.588685	-41.951866
00990	14461712	0.190336	-9.783088	-0.103250				-0.006040	-0.000674	-0.000200				-90.639597	-0.588739	-41.951671
00991	14461762	0.181336	-9.782420	-0.107512				-0.003446	0.002310	-0.002181				-90.638223	-0.588689	-41.951911
00992	14461812	0.186565	-9.792661	-0.131568				-0.006324	0.002329	-0.000183				-90.640021	-0.588743	-41.952572
00993	14461862	0.188123	-9.789346	-0.114468				-0.003012	0.007039	-0.001930				-90.638499	-0.588642	-41.954122
00994	14461912	0.198969	-9.768393	-0.126071				-0.003622	0.002626	-0.004038				-90.639530	-0.589808	-41.954864
00995	14461962	0.187865	-9.799622	-0.094059				-0.002672	0.000097	-0.001008				-90.637939	-0.589415	-41.954461
00996	14462012	0.174159	-9.785918	-0.086144				-0.005243	0.000271	-0.002760				-90.639442	-0.590208	-41.954531
00997	14462062	0.183694	-9.775157	-0.130803				-0.005139	0.001480	0.000454				-90.638550	-0.589394	-41.954545
00998	14462112	0.168384	-9.792727	-0.111054				-0.005142	0.000279	-0.001000				-90.640014	-0.589672	-41.954621
00999	14462162	0.164904	-9.770820	-0.104064				-0.003549	-0.001337	-0.000238				-90.638697	-0.589074	-41.953809
01000	14462212	0.181752	-9.771557	-0.104134				-0.003826	-0.001595	0.003381				-90.639792	-0.588098	-41.953357
01001	14462262	0.186893	-9.797725	-0.109992				-0.005618	0.003640	0.002839				-90.639047	-0.586620	-41.954022
01002	14462312	0.174758	-9.794352	-0.092594				-0.003713	0.001594	-0.003399				-90.640099	-0.587600	-41.954463
01003	14462362	0.178447	-9.805710	-0.107042				-0.005246	0.000534	-0.001156				-90.639271	-0.587249	-41.954203
01004	14462412	0.188842	-9.786478	-0.115267				-0.006896	-0.000208	-0.002890				-90.641246	-0.588074	-41.954139
01005	14462462	0.170616	-9.780033	-0.116994				-0.002391	0.001328	-0.002280				-90.639545	-0.588056	-41.954110
01006	14462512	0.187754	-9.784569	-0.132110				-0.000618	0.002972	-0.003241				-90.639709	-0.588995	-41.954953
01007	14462562	0.188215	-9.801516	-0.109874				-0.002806	0.000418	0.000087				-90.638162	-0.588295	-41.954631
01008	14462612	0.168979	-9.789157	-0.095966				-0.004101	-0.002518	-0.003872				-90.639339	-0.589402	-41.953892
01009	14462662	0.187690	-9.799353	-0.111806				-0.002448	0.000494	0.001688				-90.637688	-0.588236	-41.953618
01010	14462712	0.173848	-9.775966	-0.101634				-0.009590	0.000035	-0.002267				-90.640442	-0.588888	-41.953629
01011	14462762	0.165617	-9.787665	-0.102575				-0.001536	0.001834	-0.000226				-90.638538	-0.588283	-41.953778
01012	14462812	0.191079	-9.800831	-0.106218				-0.006966	0.001182	-0.001534				-90.640518	-0.588725	-41.954111
01013	14462862	0.202271	-9.808855	-0.098950				-0.004867	0.000739	-0.000101				-90.639554	-0.588086	-41.953868
01014	14462912	0.177953	-9.781007	-0.109412				-0.004333	0.000231	-0.000006				-90.640808	-0.588093	-41.953940
01015	14462962	0.193191	-9.797616	-0.112303				-0.001664	-0.001271	-0.000279				-90.638921	-0.587485	-41.953153
01016	14463012	0.184326	-9.793427	-0.114150				-0.002048	0.002988	0.000677				-90.639494	-0.587298	-41.954014
01017	14463062	0.181903	-9.800589	-0.128812				-0.003016	0.004002	-0.002621				-90.638005	-0.587388	-41.954762
01018	14463112	0.185032	-9.793535	-0.106350				-0.005572	-0.000211	0.000218				-90.639611	-0.587330	-41.954702
01019	14463162	0.165243	-9.769966	-0.112905				-0.001201	0.001317	-0.000938				-90.637594	-0.586926	-41.954610
01020	14463212	0.177127	-9.786107	-0.118270				-0.003508	0.000212	-0.001739				-90.638602	-0.587425	-41.954667
01021	14463262	0.196634	-9.789402	-0.119276				-0.002617	-0.001418	0.001548				-90.636995	-0.586308	-41.953856
01022	14463312	0.191106	-9.814050	-0.124920				0.000945	0.002390	-0.000970				-90.636705	-0.586591	-41.954533
01023	14463362	0.191782	-9.808679	-0.088301				-0.001569	0.005963	-0.003063				-90.634790	-0.586821	-41.955785
01024	14463412	0.180905	-9.789166	-0.101235				-0.002641	0.003327	-0.001757				-90.635540	-0.587335	-41.956739
01025	14463462	0.185431	-9.784813	-0.118425				-0.000535	0.002690	-0.000742				-90.633325	-0.586878	-41.957112
01026	14463512	0.182488	-9.784338	-0.105389				-0.005496	0.001571	0.000712				-90.634891	-0.586684	-41.957563
01027	14463562	0.193085	-9.800004	-0.095777				-0.003667	0.002443	-0.000351				-90.633580	-0.586115	-41.957836
01028	14463612	0.199853	-9.791298	-0.117340				-0.001110	-0.000812	-0.002587				-90.633883	-0.586849	-41.957583
01029	14463662	0.187186	-9.777578	-0.093442				-0.004300	0.000808	-0.002377				-90.632780	-0.586867	-41.957390
01030	14463712	0.188931	-9.802305	-0.104238				-0.005645	0.000013	-0.001385				-90.634395	-0.587262	-41.957381
01031	14463762	0.188315	-9.776809	-0.111803				-0.002696	0.000330	0.002588				-90.632832	-0.585852	-41.957082
01032	14463812	0.190285	-9.803115	-0.112130				-0.005108	0.001742	0.004113				-90.634291	-0.584683	-41.957592
01033	14463862	0.187920	-9.797522	-0.107443				-0.002039	-0.000539	-0.000530				-90.632509	-0.584153	-41.957014
01034	14463912	0.173316	-9.786268	-0.110403				-0.005397	-0.000892	-0.001165				-90.634053	-0.584478	-41.956757
01035	14463962	0.190242	-9.793274	-0.103628				-0.001667	0.001831	-0.000041				-90.632196	-0.583832	-41.956845
01036	14464012	0.184034	-9.795456	-0.121451				-0.006187	0.001676	-0.004452				-90.633973	-0.585115	-41.957316
01037	14464062	0.192258	-9.783495	-0.105861				-0.003672	0.003603	-0.001403				-90.632648	-0.584853	-41.957894
01038	14464112	0.170131	-9.786268	-0.097649				-0.005187	0.001767	-0.000926				-90.634125	-0.585126	-41.958399
01039	14464162	0.180093	-9.795123	-0.099617				-0.005723	0.001960	0.004116				-90.633403	-0.583280	-41.958529
01040	14464212	0.183520	-9.791664	-0.106025				-0.001372	0.000736	-0.000041				-90.633780	-0.583296	-41.958733
01041	14464262	0.171113	-9.800180	-0.086527				-0.002912	-0.000157	0.002072				-90.632315	-0.582037	-41.958294
01042	14464312	0.197066	-9.797088	-0.113067				-0.003792	0.004014	-0.003742				-90.633396	-0.583127	-41.959440
01043	14464362	0.166849	-9.782551	-0.110429				0.000161	0.000494	-0.003544				-90.630976	-0.583471	-41.959122
01044	14464412	0.170906	-9.780231	-0.119690				-0.003885	0.000110	-0.000714				-90.632097	-0.583678	-41.959150
01045	14464462	0.159459	-9.773001	-0.136043				-0.000215	-0.001377	0.000396				-90.629815	-0.582885	-41.958338
01046	14464512	0.178163	-9.782990	-0.119050				-0.004047	0.000372	0.002335				-90.630968	-0.582209	-41.958452
01047	14464562	0.178240	-9.789026	-0.096954				-0.003774	-0.001507	-0.001716				-90.629711	-0.582038	-41.957587
01048	14464612	0.201020	-9.799095	-0.102812				-0.003631	-0.001956	-0.000501				-90.630754	-0.582179	-41.957026
01049	14464662	0.180918	-9.783632	-0.121411				-0.003386	-0.001566	-0.000886				-90.629374	-0.581751	-41.956128
01050	14464712	0.186243	-9.785522	-0.117982				-0.000957	0.002579	-0.003564				-90.629649	-0.582781	-41.956866
01051	14464762	0.183509	-9.783587	-0.107514				-0.002605	-0.000229	-0.003637				-90.628034	-0.583152	-41.956326
01052	14464812	0.206961	-9.813479	-0.118815				-0.000572	0.000779	0.000018				-90.628188	-0.583146	-41.956545
01053	14464862	0.204591	-9.795065	-0.114820				-0.004949	-0.000618	0.001016				-90.627276	-0.582191	-41.955931
01054	14464912	0.186130	-9.790705	-0.104741				-0.005830	-0.000054	0.000831				-90.628953	-0.581957	-41.955926
01055	14464962	0.190628	-9.792800	-0.088419				-0.005317	0.002861	-0.000663				-90.628111	-0.581484	-41.956286
01056	14465012	0.187138	-9.789701	-0.107752				-0.002348	0.003108	-0.000893				-90.628777	-0.581747	-41.957179
01057	14465062	0.203843	-9.803610	-0.131018				-0.001931	0.000948	-0.001579				-90.626974	-0.581545	-41.956994
01058	14465112	0.190161	-9.790393	-0.106097				-0.002439	0.002140	0.001858				-90.627671	-0.581013	-41.957618
01059	14465162	0.162522	-9.787015	-0.116974				-0.002896	0.001295	0.000929				-90.626156	-0.580086	-41.957549
01060	14465212	0.187443	-9.790811	-0.112569				-0.003599	0.001048	-0.002412				-90.627175	-0.580773	-41.957836
01061	14465262	0.168463	-9.789911	-0.108588				-0.002040	0.001765	0.001663				-90.625423	-0.579646	-41.957900
01062	14465312	0.170965	-9.776000	-0.116590				-0.003181	-0.000584	0.002618				-90.626332	-0.578895	-41.957728
01063	14465362	0.182311	-9.784210	-0.113470				-0.005070	0.003257	-0.001686				-90.625445	-0.578719	-41.958248
01064	14465412	0.188570	-9.795845	-0.123225				0.001203	0.003164	-0.003183				-90.625090	-0.579644	-41.959149
01065	14465462	0.172766	-9.795136	-0.120303				-0.001064	0.003032	-0.002918				-90.623051	-0.579822	-41.959574
01066	14465512	0.183707	-9.788196	-0.100531				-0.002465	0.002982	-0.000541				-90.623740	-0.579984	-41.960424
01067	14465562	0.175121	-9.787319	-0.133811				-0.002952	0.001962	-0.002532				-90.622243	-0.580057	-41.960555
01068	14465612	0.187135	-9.814423	-0.104371				-0.002716	-0.000258	0.001046				-90.623023	-0.579755	-41.960488
01069	14465662	0.183470	-9.795732	-0.119294				-0.005887	-0.004679	-0.000349				-90.622375	-0.579178	-41.958694
01070	14465712	0.183744	-9.780505	-0.121921				-0.005134	-0.003146	-0.001016				-90.623865	-0.579461	-41.957797
01071	14465762	0.204443	-9.797991	-0.125060				-0.003573	0.001509	0.001409				-90.622529	-0.578393	-41.957802
01072	14465812	0.189173	-9.798831	-0.098670				-0.004492	0.000835	-0.003338				-90.623825	-0.579350	-41.958036
01073	14465862	0.172995	-9.786764	-0.109494				-0.001189	-0.000035	0.000177				-90.621815	-0.578639	-41.957563
01074	14465912	0.175171	-9.772923	-0.097616				-0.001016	-0.003653	-0.000804				-90.622124	-0.578857	-41.956509
