// General information: 
//  MT Manager version: 2022.0.0 
//  XDA version: 2022.0.0 build 7085 rev 119802 built on 2022-11-08
// Device information: 
//  DeviceId: 037004D1
//  ProductCode: MTi-300-2A5G4
//  Firmware Version: 1.4.1
//  Hardware Version: 2.1.0
// Device settings: 
//  Filter Profile: general(39.16)
//  Option Flags: Orientation Smoother Disabled, Position/Velocity Smoother Disabled, Continuous Zero Rotation Update Disabled, AHS Disabled, ICC Disabled
// Coordinate system: ENU
PacketCounter	SampleTimeFine	Acc_X	Acc_Y	Acc_Z	AccHR_X	AccHR_Y	AccHR_Z	Gyr_X	Gyr_Y	Gyr_Z	GyrHR_X	GyrHR_Y	GyrHR_Z	Roll	Pitch	Yaw
00001	232848	-0.172914	-0.110936	9.788021				-0.003663	-0.000252	0.000063				-0.857863	1.081472	-44.780149
00002	232898	-0.195240	-0.119526	9.791980				-0.004584	0.000274	-0.003426				-0.856687	1.081027	-44.779616
00003	232948	-0.202941	-0.102576	9.806386				-0.003816	0.000552	-0.000473				-0.857783	1.081183	-44.779751
00004	232998	-0.182971	-0.122544	9.818755				-0.001277	0.000243	-0.001319				-0.855647	1.080747	-44.781223
00005	233048	-0.184279	-0.136941	9.790964				-0.003664	-0.000681	-0.005198				-0.856725	1.080530	-44.782709
00006	233098	-0.194044	-0.100092	9.793882				-0.002962	-0.000539	-0.004300				-0.855091	1.079849	-44.782731
00007	233148	-0.185010	-0.104160	9.789046				-0.003833	0.003070	-0.002482				-0.856203	1.080718	-44.783449
00008	233198	-0.181588	-0.129925	9.814915				-0.003736	-0.001094	-0.000321				-0.854769	1.079896	-44.782247
00009	233248	-0.183674	-0.096517	9.799825				-0.004391	0.000245	-0.002847				-0.856042	1.079954	-44.783056
00010	233298	-0.192057	-0.089127	9.787404				-0.005359	0.002886	0.000059				-0.855070	1.080289	-44.786590
00011	233348	-0.176410	-0.118151	9.777742				-0.003045	0.001605	0.000461				-0.855940	1.080751	-44.786464
00012	233398	-0.184554	-0.101957	9.798865				-0.003493	-0.000213	0.002921				-0.854414	1.080219	-44.791392
00013	233448	-0.192624	-0.094813	9.785972				-0.006074	-0.000298	-0.001852				-0.856164	1.080126	-44.791927
00014	233498	-0.183399	-0.125006	9.801023				-0.004151	0.002069	-0.000788				-0.854850	1.080221	-44.794734
00015	233548	-0.183632	-0.114361	9.801265				-0.005332	-0.001484	-0.003754				-0.856398	1.079780	-44.795797
00016	233598	-0.182255	-0.118033	9.813949				-0.002272	-0.001879	-0.002608				-0.854562	1.078713	-44.791845
00017	233648	-0.169982	-0.118278	9.789685				-0.004987	-0.000054	-0.000350				-0.855993	1.078696	-44.791943
00018	233698	-0.193894	-0.103349	9.810172				-0.001631	0.000336	0.000385				-0.853950	1.078315	-44.799073
00019	233748	-0.183314	-0.124949	9.801258				-0.003727	-0.001390	-0.001290				-0.855024	1.077912	-44.799435
00020	233798	-0.183888	-0.111677	9.797433				-0.004969	-0.002767	-0.001128				-0.853960	1.076574	-44.787743
00021	233848	-0.179528	-0.108190	9.811066				-0.003410	0.000948	-0.000443				-0.854939	1.076843	-44.787873
00022	233898	-0.188298	-0.098645	9.811583				-0.004113	0.002738	-0.003030				-0.853639	1.077078	-44.778054
00023	233948	-0.196033	-0.122825	9.787902				-0.002071	-0.002939	0.001266				-0.854225	1.076242	-44.777675
00024	233998	-0.178183	-0.098513	9.808419				-0.005125	0.000168	-0.003201				-0.853206	1.075789	-44.782679
00025	234048	-0.184505	-0.089321	9.802456				-0.002120	0.001415	-0.002882				-0.853830	1.076182	-44.783509
00026	234098	-0.189938	-0.102662	9.792180				-0.005803	-0.001784	-0.002822				-0.853002	1.075170	-44.787764
00027	234148	-0.180025	-0.114104	9.813948				-0.006585	0.001894	-0.000908				-0.854893	1.075708	-44.788033
00028	234198	-0.181775	-0.119780	9.796942				-0.007863	0.002705	-0.003438				-0.854655	1.076001	-44.799046
00029	234248	-0.182263	-0.109165	9.819709				-0.004589	0.002934	0.001014				-0.855965	1.076846	-44.798769
00030	234298	-0.193372	-0.114217	9.787649				-0.003126	-0.001084	-0.000293				-0.854359	1.076041	-44.801165
00031	234348	-0.192179	-0.102708	9.807773				-0.005967	-0.000690	-0.004227				-0.856091	1.075825	-44.802375
00032	234398	-0.191846	-0.106575	9.800820				-0.004554	-0.000294	0.002254				-0.854887	1.075235	-44.796895
00033	234448	-0.182002	-0.103987	9.806761				-0.005487	0.001878	0.000084				-0.856459	1.075773	-44.796877
00034	234498	-0.181462	-0.102081	9.791420				-0.005401	0.003042	-0.000617				-0.855509	1.076143	-44.797253
00035	234548	-0.197259	-0.114176	9.792947				-0.005697	0.002098	-0.002351				-0.857154	1.076734	-44.797932
00036	234598	-0.179944	-0.108535	9.812268				-0.004219	-0.002372	-0.004084				-0.855886	1.075531	-44.796680
00037	234648	-0.180190	-0.101413	9.827606				-0.005029	0.000238	-0.001951				-0.857337	1.075590	-44.797232
00038	234698	-0.197748	-0.101766	9.809472				-0.001954	0.000326	-0.001634				-0.855401	1.075202	-44.804727
00039	234748	-0.181449	-0.107548	9.809400				-0.005350	0.000292	-0.001850				-0.856944	1.075277	-44.805257
00040	234798	-0.182250	-0.118221	9.775130				-0.005783	-0.001195	-0.000831				-0.856107	1.074425	-44.803067
00041	234848	-0.184624	-0.112693	9.801270				-0.004967	-0.000799	-0.001666				-0.857539	1.074189	-44.803534
00042	234898	-0.189804	-0.103770	9.800329				-0.005746	0.000937	0.000753				-0.856685	1.073954	-44.800851
00043	234948	-0.196977	-0.114996	9.788388				-0.005287	0.003500	-0.001446				-0.858208	1.074950	-44.801284
00044	234998	-0.192370	-0.128085	9.797957				-0.001960	0.001552	0.000230				-0.856276	1.074874	-44.793999
00045	235048	-0.183495	-0.116025	9.773697				-0.004312	0.000600	-0.003966				-0.857532	1.075029	-44.795137
00046	235098	-0.179376	-0.113172	9.799795				0.001947	-0.001415	-0.000311				-0.854481	1.074120	-44.793436
00047	235148	-0.180623	-0.109018	9.796456				-0.003819	0.000352	-0.003074				-0.855592	1.074208	-44.794311
00048	235198	-0.192318	-0.106210	9.809444				-0.001927	0.003522	-0.001233				-0.853649	1.074742	-44.802964
00049	235248	-0.188883	-0.119540	9.796735				-0.004733	0.003483	0.001661				-0.854995	1.075747	-44.802491
00050	235298	-0.190969	-0.102312	9.797705				-0.005655	-0.000130	-0.001244				-0.854121	1.075234	-44.810530
00051	235348	-0.189439	-0.104928	9.786665				-0.005753	0.001133	0.001428				-0.855761	1.075564	-44.810119
00052	235398	-0.172180	-0.134962	9.793297				-0.004113	-0.000192	0.000709				-0.854443	1.075006	-44.806709
00053	235448	-0.192584	-0.110684	9.805141				-0.005466	-0.001153	0.000518				-0.856005	1.074678	-44.806556
00054	235498	-0.175452	-0.119531	9.790434				-0.005247	-0.000965	-0.001702				-0.855021	1.073907	-44.809523
00055	235548	-0.189319	-0.127298	9.774217				-0.005665	0.001030	-0.002039				-0.856655	1.074194	-44.810101
00056	235598	-0.184381	-0.118221	9.807496				-0.005323	-0.000775	-0.003237				-0.855699	1.073489	-44.819097
00057	235648	-0.196936	-0.103055	9.796533				-0.005202	0.003919	-0.001542				-0.857197	1.074605	-44.819545
00058	235698	-0.163284	-0.125861	9.784620				-0.005354	0.003394	-0.003281				-0.856257	1.075065	-44.819368
00059	235748	-0.198855	-0.103105	9.800139				-0.004903	0.000169	-0.003935				-0.857682	1.075097	-44.820485
00060	235798	-0.179479	-0.113860	9.807472				-0.002780	-0.000048	-0.002889				-0.856010	1.074543	-44.812014
00061	235848	-0.175344	-0.119190	9.803379				-0.005481	0.002494	-0.001260				-0.857587	1.075253	-44.812386
00062	235898	-0.191585	-0.110145	9.801538				-0.003506	-0.000414	-0.001827				-0.856111	1.074630	-44.812450
00063	235948	-0.196055	-0.096420	9.795806				-0.006738	-0.000343	-0.001048				-0.858047	1.074527	-44.812746
00064	235998	-0.204774	-0.095172	9.804722				-0.003649	0.003564	0.000474				-0.856599	1.075055	-44.812487
00065	236048	-0.182718	-0.107724	9.789755				-0.002718	0.000153	-0.000579				-0.857381	1.075097	-44.812648
00066	236098	-0.185652	-0.113449	9.797199				-0.000075	0.001942	0.000389				-0.854917	1.075130	-44.803388
00067	236148	-0.182883	-0.117232	9.789755				-0.005133	0.000853	0.001036				-0.856381	1.075379	-44.803082
00068	236198	-0.181730	-0.117760	9.806286				-0.004885	-0.001378	-0.001281				-0.855288	1.074528	-44.815793
00069	236248	-0.177542	-0.120606	9.813215				-0.006008	0.001802	-0.002676				-0.857024	1.075033	-44.816568
00070	236298	-0.181211	-0.121931	9.807006				-0.002967	-0.001311	-0.002927				-0.855391	1.074190	-44.828735
00071	236348	-0.184359	-0.122785	9.812773				-0.004090	0.000490	0.003764				-0.856543	1.074346	-44.827653
00072	236398	-0.178393	-0.117702	9.793086				-0.003783	0.000492	-0.000317				-0.855147	1.073957	-44.817214
00073	236448	-0.191004	-0.109659	9.814718				-0.004599	0.001758	-0.004765				-0.856490	1.074440	-44.818583
00074	236498	-0.205346	-0.099758	9.798733				-0.001648	0.002214	0.002000				-0.854469	1.074566	-44.811115
00075	236548	-0.185222	-0.115397	9.796952				-0.000789	0.004932	-0.003412				-0.854714	1.075964	-44.812113
00076	236598	-0.181312	-0.117221	9.809396				-0.002950	-0.001092	-0.006165				-0.853116	1.075081	-44.798819
00077	236648	-0.189594	-0.119522	9.795543				-0.004458	0.001413	-0.000727				-0.854398	1.075483	-44.799035
00078	236698	-0.189578	-0.116142	9.791939				-0.001990	-0.001518	0.000408				-0.852473	1.074582	-44.805878
00079	236748	-0.166730	-0.116288	9.788713				-0.005120	0.002239	-0.000817				-0.853945	1.075220	-44.806120
00080	236798	-0.191666	-0.115795	9.804182				-0.002699	-0.003207	0.002297				-0.852222	1.073809	-44.802897
00081	236848	-0.177697	-0.134764	9.795241				-0.001102	0.000566	-0.002308				-0.852550	1.073962	-44.803558
00082	236898	-0.190661	-0.114413	9.805133				-0.002567	0.001838	0.001486				-0.850783	1.074048	-44.816140
00083	236948	-0.188968	-0.114013	9.794342				-0.002088	0.003589	-0.000368				-0.851383	1.075074	-44.816258
00084	236998	-0.197591	-0.099649	9.790536				-0.006213	-0.000890	-0.003809				-0.850693	1.074344	-44.826618
00085	237048	-0.193658	-0.104890	9.799870				-0.000989	0.003182	-0.003353				-0.850994	1.075241	-44.827590
00086	237098	-0.182146	-0.115505	9.806525				-0.002941	0.003017	-0.003830				-0.849376	1.075586	-44.824990
00087	237148	-0.194228	-0.115062	9.807070				-0.005611	0.002521	-0.001291				-0.850991	1.076303	-44.825360
00088	237198	-0.193645	-0.100703	9.798434				-0.006144	0.001156	-0.000946				-0.850278	1.076116	-44.818930
00089	237248	-0.190359	-0.113351	9.785474				-0.000574	0.002053	-0.005063				-0.850470	1.076683	-44.820392
00090	237298	-0.186756	-0.113481	9.787374				-0.004832	0.001081	-0.002392				-0.849378	1.076523	-44.829796
00091	237348	-0.192074	-0.100317	9.808731				-0.005047	0.002313	0.000662				-0.850821	1.077189	-44.829613
00092	237398	-0.198153	-0.120755	9.801333				-0.006142	0.000253	0.000045				-0.850100	1.076759	-44.825645
00093	237448	-0.183451	-0.126998	9.793596				-0.003759	-0.001523	-0.002538				-0.851191	1.076312	-44.826361
00094	237498	-0.176419	-0.103819	9.793319				-0.002039	0.001805	-0.004195				-0.849314	1.076330	-44.830026
00095	237548	-0.190102	-0.109832	9.810157				-0.006008	0.002839	-0.001354				-0.851043	1.077138	-44.830427
00096	237598	-0.184412	-0.119614	9.804140				-0.007082	0.002430	-0.002093				-0.850601	1.077344	-44.833319
00097	237648	-0.192061	-0.107457	9.799863				-0.000104	-0.001615	-0.001269				-0.850637	1.076876	-44.833680
00098	237698	-0.194321	-0.086754	9.805385				-0.002857	0.001673	0.000012				-0.848978	1.076854	-44.829819
00099	237748	-0.210266	-0.085099	9.801391				-0.006667	0.001600	-0.000777				-0.850892	1.077310	-44.830047
00100	237798	-0.198385	-0.114652	9.795343				-0.005240	0.000847	-0.001718				-0.849920	1.077066	-44.832711
00101	237848	-0.202267	-0.099145	9.788169				-0.003178	0.001662	0.000397				-0.850828	1.077544	-44.832599
00102	237898	-0.176837	-0.111344	9.807932				-0.007206	0.000198	-0.001299				-0.850424	1.077085	-44.826173
00103	237948	-0.192146	-0.101946	9.789079				-0.006073	0.000896	-0.002009				-0.852175	1.077334	-44.826743
00104	237998	-0.221492	-0.105070	9.800007				-0.004781	0.001697	-0.001235				-0.851076	1.077306	-44.820945
00105	238048	-0.170399	-0.140526	9.790417				-0.003333	-0.000898	-0.002792				-0.852045	1.077037	-44.821739
00106	238098	-0.179464	-0.111932	9.804598				-0.003401	0.000492	-0.001119				-0.850544	1.076699	-44.825126
00107	238148	-0.183712	-0.112392	9.799823				-0.004064	0.001125	-0.001656				-0.851717	1.077014	-44.825600
00108	238198	-0.195414	-0.093405	9.786217				-0.004481	-0.004281	-0.004730				-0.850550	1.075271	-44.823954
00109	238248	-0.165894	-0.122402	9.820584				-0.001339	0.001010	-0.002147				-0.850945	1.075551	-44.824572
00110	238298	-0.193123	-0.101638	9.804420				-0.001772	-0.000156	0.000703				-0.848968	1.075034	-44.827076
00111	238348	-0.182346	-0.110429	9.810842				-0.006074	-0.001106	-0.000927				-0.850713	1.074713	-44.827337
00112	238398	-0.198594	-0.103264	9.796302				-0.002478	0.000474	-0.002915				-0.848964	1.074330	-44.822176
00113	238448	-0.186473	-0.108082	9.794803				-0.004135	0.003421	-0.001806				-0.850159	1.075303	-44.822707
00114	238498	-0.185741	-0.114593	9.817812				-0.003443	0.002851	-0.001618				-0.848671	1.075649	-44.829216
00115	238548	-0.189141	-0.101403	9.801289				-0.008507	0.001789	-0.003919				-0.851129	1.076145	-44.830339
00116	238598	-0.189931	-0.092605	9.801288				-0.003118	0.001793	-0.000047				-0.849552	1.076144	-44.821583
00117	238648	-0.213668	-0.101520	9.809076				-0.005019	0.001174	-0.000788				-0.850994	1.076477	-44.821825
00118	238698	-0.192933	-0.109725	9.816404				-0.007042	0.001041	-0.002643				-0.850545	1.076291	-44.825596
00119	238748	-0.172713	-0.101906	9.803599				-0.004517	0.002410	-0.001687				-0.851849	1.076975	-44.826084
00120	238798	-0.205470	-0.101725	9.800652				-0.003091	-0.001609	-0.004463				-0.850283	1.076001	-44.824480
00121	238848	-0.191981	-0.106044	9.809455				-0.005534	0.001171	0.000334				-0.851866	1.076338	-44.824390
00122	238898	-0.198368	-0.099283	9.797500				-0.004775	-0.000403	0.000551				-0.850755	1.075734	-44.821622
00123	238948	-0.186048	-0.109821	9.785930				-0.003032	0.000986	-0.000440				-0.851626	1.076014	-44.821745
00124	238998	-0.192999	-0.108894	9.797711				-0.003076	-0.002834	-0.001520				-0.850037	1.074717	-44.822668
00125	239048	-0.187914	-0.092910	9.792412				-0.006808	-0.001249	-0.002466				-0.852001	1.074348	-44.823379
00126	239098	-0.195649	-0.108057	9.785743				-0.004864	0.001144	-0.001943				-0.850929	1.074177	-44.821348
00127	239148	-0.181497	-0.113229	9.799568				-0.002982	-0.001160	-0.006385				-0.851818	1.073817	-44.823173
00128	239198	-0.184713	-0.103384	9.793120				-0.006957	0.000430	-0.001395				-0.851343	1.073445	-44.821249
00129	239248	-0.184698	-0.117723	9.776100				-0.005019	0.000980	-0.001595				-0.852790	1.073719	-44.821719
00130	239298	-0.202156	-0.105816	9.802793				-0.003549	0.001003	-0.003169				-0.851350	1.073496	-44.817843
00131	239348	-0.182717	-0.138115	9.789757				-0.005226	0.003432	-0.001674				-0.852856	1.074472	-44.818330
00132	239398	-0.190047	-0.124340	9.798908				-0.005268	0.001785	-0.001331				-0.851892	1.074520	-44.825091
00133	239448	-0.184135	-0.118213	9.810128				-0.001482	-0.001442	-0.000651				-0.852319	1.074104	-44.825273
00134	239498	-0.187519	-0.111939	9.794813				-0.005404	0.000070	-0.000666				-0.851398	1.073634	-44.823227
00135	239548	-0.185556	-0.116857	9.822122				-0.006392	0.004126	0.000449				-0.853227	1.074817	-44.823123
00136	239598	-0.191880	-0.095909	9.802496				-0.003946	0.001483	-0.001624				-0.851891	1.074758	-44.824080
00137	239648	-0.192228	-0.100269	9.792673				-0.003386	0.002946	-0.003412				-0.852880	1.075587	-44.825065
00138	239698	-0.185917	-0.101481	9.792881				-0.007225	0.000043	0.000528				-0.852468	1.075143	-44.830481
00139	239748	-0.194697	-0.116970	9.782868				-0.002729	-0.000033	0.004109				-0.853228	1.075151	-44.829300
00140	239798	-0.183436	-0.117749	9.807492				-0.005761	-0.000171	-0.003872				-0.852431	1.074580	-44.822731
00141	239848	-0.192211	-0.101073	9.798670				-0.002637	0.002439	-0.003995				-0.853208	1.075261	-44.823883
00142	239898	-0.182950	-0.107359	9.772979				-0.001177	0.003026	-0.002291				-0.851075	1.075680	-44.835504
00143	239948	-0.185876	-0.111565	9.806778				-0.002440	-0.001458	-0.000900				-0.851779	1.075258	-44.835750
00144	239998	-0.205592	-0.099934	9.805202				-0.001808	0.002208	0.001431				-0.849821	1.075389	-44.827064
00145	240048	-0.181460	-0.116052	9.823781				-0.002830	0.000829	-0.000055				-0.850632	1.075626	-44.827079
00146	240098	-0.184580	-0.099720	9.793109				-0.002871	0.000922	-0.002042				-0.848995	1.075395	-44.825063
00147	240148	-0.180721	-0.118105	9.787829				-0.004557	0.000507	-0.000305				-0.850302	1.075539	-44.825149
00148	240198	-0.184853	-0.120580	9.788328				-0.005344	-0.003032	-0.001734				-0.849366	1.074198	-44.829117
00149	240248	-0.188163	-0.119309	9.798414				-0.002089	0.002356	-0.002486				-0.849978	1.074862	-44.829830
00150	240298	-0.185878	-0.103872	9.785208				-0.001131	-0.000470	-0.001086				-0.847826	1.074287	-44.841385
00151	240348	-0.190060	-0.105813	9.801533				-0.002209	0.002358	-0.001004				-0.848465	1.074958	-44.841681
00152	240398	-0.201624	-0.118763	9.785538				-0.002235	0.000771	-0.003354				-0.846652	1.074686	-44.842095
00153	240448	-0.192567	-0.116980	9.802982				-0.001279	0.001273	-0.001981				-0.847029	1.075042	-44.842660
00154	240498	-0.198482	-0.112813	9.796067				-0.004985	0.001853	-0.002155				-0.845989	1.075126	-44.853775
00155	240548	-0.188844	-0.104457	9.805126				-0.003327	0.001473	0.001654				-0.846933	1.075555	-44.853309
00156	240598	-0.186260	-0.107491	9.818287				-0.003462	-0.000673	-0.001920				-0.845471	1.074854	-44.846935
00157	240648	-0.182649	-0.130095	9.807725				-0.003674	0.002340	0.001596				-0.846514	1.075531	-44.846481
00158	240698	-0.193018	-0.109575	9.794124				-0.003881	0.001556	-0.000077				-0.845167	1.075456	-44.833964
00159	240748	-0.171663	-0.139315	9.786829				-0.002763	0.003032	0.002141				-0.845948	1.076333	-44.833359
00160	240798	-0.187948	-0.116006	9.799848				-0.003488	-0.000601	0.000907				-0.844466	1.075722	-44.841885
00161	240848	-0.189200	-0.099987	9.799131				-0.006583	0.004125	0.000362				-0.846351	1.076905	-44.841797
00162	240898	-0.202031	-0.111034	9.794166				-0.001279	0.000143	-0.001758				-0.844256	1.076472	-44.844658
00163	240948	-0.189345	-0.114938	9.797931				0.000402	-0.000508	-0.002729				-0.844156	1.076315	-44.845445
00164	240998	-0.192205	-0.123874	9.797231				-0.004136	0.003386	-0.003497				-0.842892	1.076793	-44.845588
00165	241048	-0.190861	-0.124057	9.795068				-0.006029	-0.002883	-0.004006				-0.844641	1.075950	-44.846727
00166	241098	-0.194165	-0.111908	9.796521				-0.001039	-0.000143	-0.000510				-0.842477	1.075419	-44.842782
00167	241148	-0.189150	-0.111314	9.809905				-0.000936	-0.003665	-0.002711				-0.842759	1.074358	-44.843537
00168	241198	-0.185699	-0.112940	9.800794				-0.005674	0.003790	0.000582				-0.841930	1.074911	-44.826602
00169	241248	-0.193170	-0.107627	9.806579				-0.003023	0.002631	-0.003346				-0.842814	1.075651	-44.827563
00170	241298	-0.185192	-0.106800	9.789041				-0.001718	0.002143	-0.001745				-0.840849	1.075786	-44.828374
00171	241348	-0.197136	-0.112510	9.810678				-0.005174	-0.000217	-0.002618				-0.842346	1.075713	-44.829120
00172	241398	-0.197709	-0.113553	9.790788				-0.001942	0.001708	-0.004187				-0.840454	1.075737	-44.837162
00173	241448	-0.165290	-0.130203	9.813636				-0.005057	0.002179	-0.001998				-0.841913	1.076353	-44.837739
00174	241498	-0.167902	-0.117407	9.797588				-0.004838	0.000046	-0.003710				-0.840857	1.075865	-44.835120
00175	241548	-0.180616	-0.133997	9.802213				-0.005988	0.001194	-0.001516				-0.842580	1.076200	-44.835555
00176	241598	-0.163394	-0.124251	9.769769				-0.004371	0.000676	-0.000663				-0.841375	1.075906	-44.832404
00177	241648	-0.178866	-0.115285	9.790451				-0.003181	0.000498	-0.002334				-0.842298	1.076039	-44.833066
00178	241698	-0.195083	-0.128926	9.816188				-0.003775	0.002135	-0.003184				-0.840946	1.076114	-44.820461
00179	241748	-0.197795	-0.106537	9.791744				-0.004293	0.001385	-0.000104				-0.842176	1.076511	-44.820482
00180	241798	-0.181814	-0.113425	9.801495				-0.005557	0.000852	0.001398				-0.841301	1.076278	-44.817317
00181	241848	-0.179381	-0.118456	9.779676				-0.004868	-0.000887	-0.001690				-0.842705	1.076017	-44.817796
00182	241898	-0.184413	-0.111806	9.804620				-0.005954	-0.001045	-0.003837				-0.841972	1.075219	-44.816292
00183	241948	-0.192582	-0.100770	9.781897				-0.000525	0.001576	-0.003773				-0.842142	1.075654	-44.817368
00184	241998	-0.198958	-0.108601	9.823624				-0.001179	0.002017	-0.003097				-0.840035	1.075749	-44.819176
00185	242048	-0.202668	-0.101460	9.800393				-0.002220	0.001807	-0.001013				-0.840677	1.076263	-44.819479
00186	242098	-0.182415	-0.120112	9.797888				-0.000609	-0.000481	0.001889				-0.838381	1.075655	-44.816968
00187	242148	-0.179547	-0.109293	9.807469				-0.000522	0.003041	0.001845				-0.838521	1.076534	-44.816451
00188	242198	-0.169067	-0.113438	9.784652				-0.005162	-0.000404	0.001905				-0.837523	1.075983	-44.823538
00189	242248	-0.193088	-0.105601	9.799628				-0.002668	-0.000462	-0.000829				-0.838292	1.075847	-44.823774
00190	242298	-0.195100	-0.118344	9.806828				-0.003713	0.000101	-0.001911				-0.836905	1.075401	-44.825596
00191	242348	-0.163437	-0.116152	9.800680				-0.002703	0.001935	0.001106				-0.837673	1.075960	-44.825283
00192	242398	-0.186462	-0.099676	9.785937				-0.004407	0.003966	-0.002436				-0.836496	1.076590	-44.819321
00193	242448	-0.207856	-0.107553	9.808572				-0.002961	-0.000572	-0.005093				-0.837372	1.076405	-44.820781
00194	242498	-0.170245	-0.112275	9.785135				-0.005885	-0.000166	-0.003160				-0.836612	1.075886	-44.825280
00195	242548	-0.196400	-0.117052	9.805641				-0.003248	0.001722	-0.002550				-0.837557	1.076369	-44.826016
00196	242598	-0.194194	-0.111135	9.792204				-0.001012	0.002928	-0.001200				-0.835401	1.076704	-44.818871
00197	242648	-0.186713	-0.107011	9.797923				-0.007077	0.002335	-0.000836				-0.837433	1.077369	-44.819111
00198	242698	-0.188385	-0.106456	9.785225				-0.000083	-0.001162	-0.001677				-0.835011	1.076542	-44.814906
00199	242748	-0.193920	-0.097381	9.805147				-0.002073	0.000872	-0.002678				-0.835619	1.076781	-44.815665
00200	242798	-0.188672	-0.124915	9.808960				-0.004353	0.002322	-0.000934				-0.834412	1.076975	-44.816965
00201	242848	-0.179511	-0.125378	9.797163				-0.004345	0.002934	-0.002700				-0.835672	1.077805	-44.817743
00202	242898	-0.209047	-0.096584	9.799709				-0.003561	-0.003744	-0.001900				-0.834247	1.076245	-44.815811
00203	242948	-0.191580	-0.104771	9.822392				-0.004520	0.001213	-0.003733				-0.835562	1.076577	-44.816881
00204	242998	-0.177841	-0.113280	9.786374				-0.003657	-0.002649	-0.001514				-0.834161	1.075345	-44.818186
00205	243048	-0.176419	-0.116847	9.818963				-0.003199	0.001343	0.001012				-0.835072	1.075734	-44.817896
00206	243098	-0.181225	-0.103545	9.791900				-0.007233	0.002568	0.003403				-0.834670	1.076012	-44.816105
00207	243148	-0.194845	-0.107949	9.796763				-0.002137	-0.002232	-0.002795				-0.835297	1.075361	-44.816897
00208	243198	-0.199536	-0.093925	9.816915				-0.005502	0.000940	-0.003601				-0.834436	1.075144	-44.817347
00209	243248	-0.181639	-0.108358	9.807005				-0.009321	0.000459	0.000925				-0.837102	1.075279	-44.817085
00210	243298	-0.199388	-0.099224	9.809484				-0.003491	0.001238	-0.002449				-0.835659	1.075158	-44.818663
00211	243348	-0.174123	-0.133186	9.789960				-0.002646	0.001833	-0.001397				-0.836424	1.075677	-44.819064
00212	243398	-0.176962	-0.124393	9.799547				-0.002237	0.003063	-0.003827				-0.834631	1.076067	-44.819355
00213	243448	-0.203940	-0.088577	9.791295				-0.004184	0.001904	-0.002124				-0.835841	1.076604	-44.819970
00214	243498	-0.185023	-0.109025	9.799829				-0.003363	0.003266	-0.004625				-0.834377	1.077043	-44.818965
00215	243548	-0.180502	-0.112639	9.789266				-0.002126	-0.000225	-0.000445				-0.834988	1.076977	-44.819088
00216	243598	-0.189264	-0.106733	9.795054				-0.006072	0.001772	-0.002635				-0.834288	1.077004	-44.819427
00217	243648	-0.182750	-0.114882	9.801974				-0.008772	-0.001191	-0.004379				-0.836824	1.076644	-44.820680
00218	243698	-0.191945	-0.118715	9.792916				-0.003038	0.000915	-0.005408				-0.835269	1.076419	-44.823205
00219	243748	-0.196120	-0.125209	9.808035				-0.002979	-0.002631	0.000990				-0.836116	1.075670	-44.822906
00220	243798	-0.198907	-0.113222	9.796788				-0.003025	0.001056	0.000913				-0.834526	1.075506	-44.821957
00221	243848	-0.191030	-0.097918	9.793860				-0.002557	0.002222	-0.001229				-0.835265	1.076137	-44.822307
00222	243898	-0.189872	-0.111441	9.789309				-0.006168	0.000569	-0.003829				-0.834596	1.075832	-44.827193
00223	243948	-0.203994	-0.111709	9.800887				-0.004674	0.001251	-0.000972				-0.835940	1.076186	-44.827471
00224	243998	-0.170798	-0.100657	9.804070				-0.004233	0.002249	-0.004308				-0.834726	1.076336	-44.825900
00225	244048	-0.171007	-0.100681	9.803117				-0.004712	0.000143	-0.004029				-0.836097	1.076360	-44.827047
00226	244098	-0.183505	-0.118181	9.796226				-0.000320	0.004690	0.000472				-0.833734	1.077241	-44.827558
00227	244148	-0.189900	-0.114794	9.795059				-0.003022	0.004636	-0.003108				-0.834616	1.078556	-44.828472
00228	244198	-0.184100	-0.108527	9.804137				-0.008570	0.001860	-0.000577				-0.834624	1.078615	-44.827486
00229	244248	-0.199539	-0.113233	9.808051				-0.006269	0.003028	-0.001762				-0.836429	1.079475	-44.827999
00230	244298	-0.210401	-0.093038	9.802343				-0.002389	-0.000302	-0.003202				-0.834677	1.078918	-44.831108
00231	244348	-0.185389	-0.105113	9.794559				0.002009	-0.000473	-0.001065				-0.834107	1.078778	-44.831407
00232	244398	-0.194290	-0.118166	9.785738				-0.000686	-0.000400	-0.002502				-0.831868	1.078175	-44.828991
00233	244448	-0.190355	-0.097250	9.801052				-0.008840	-0.000060	-0.005205				-0.834429	1.078136	-44.830481
00234	244498	-0.197805	-0.109950	9.796299				-0.005344	0.002437	0.000642				-0.833507	1.078362	-44.827396
00235	244548	-0.183997	-0.101374	9.779454				-0.003438	0.001627	0.000340				-0.834490	1.078829	-44.827305
00236	244598	-0.200043	-0.114855	9.798465				0.000439	0.005927	-0.000639				-0.831919	1.080056	-44.826594
00237	244648	-0.210733	-0.096878	9.803552				-0.004594	0.004999	-0.001755				-0.833245	1.081480	-44.827119
00238	244698	-0.183987	-0.118656	9.807258				-0.003798	0.003006	-0.001835				-0.831890	1.081874	-44.828655
00239	244748	-0.202510	-0.103842	9.820049				-0.000931	0.000341	-0.001822				-0.832167	1.081964	-44.829176
00240	244798	-0.190668	-0.115547	9.809200				-0.004728	0.001121	-0.000143				-0.831069	1.081833	-44.832124
00241	244848	-0.191662	-0.120897	9.806097				-0.004383	-0.002246	-0.003622				-0.832344	1.081175	-44.833142
00242	244898	-0.190295	-0.096673	9.801774				-0.004976	-0.000437	-0.001398				-0.831320	1.080612	-44.841900
00243	244948	-0.182062	-0.119661	9.822584				-0.006953	-0.000635	-0.001298				-0.833319	1.080425	-44.842274
00244	244998	-0.200659	-0.118580	9.784332				-0.005214	-0.000122	-0.002325				-0.832372	1.079933	-44.846849
00245	245048	-0.199529	-0.103009	9.796305				-0.003347	-0.000211	-0.000826				-0.833335	1.079869	-44.847082
00246	245098	-0.167697	-0.119136	9.800950				-0.005617	0.000650	-0.000753				-0.832501	1.079580	-44.844651
00247	245148	-0.180669	-0.113862	9.810593				-0.001369	-0.000086	-0.002372				-0.832906	1.079545	-44.845329
00248	245198	-0.181713	-0.106131	9.795735				-0.006014	0.002898	-0.004365				-0.832212	1.079862	-44.837861
00249	245248	-0.187307	-0.108818	9.809184				-0.004535	-0.002539	-0.004587				-0.833535	1.079116	-44.839160
00250	245298	-0.209211	-0.114376	9.798272				-0.005141	0.001048	0.001080				-0.832553	1.078960	-44.839284
00251	245348	-0.206102	-0.109581	9.803298				-0.002922	0.000504	-0.000916				-0.833395	1.079100	-44.839541
00252	245398	-0.189909	-0.119424	9.815431				-0.006116	0.001187	-0.002509				-0.832717	1.078952	-44.835866
00253	245448	-0.197787	-0.120311	9.815957				-0.001935	0.001585	-0.002620				-0.833285	1.079395	-44.836617
00254	245498	-0.197665	-0.117070	9.801086				-0.001952	0.000560	0.001549				-0.831387	1.079112	-44.838975
00255	245548	-0.190367	-0.122328	9.790277				-0.004187	-0.002941	0.000061				-0.832586	1.078269	-44.838943
00256	245598	-0.195833	-0.109737	9.787419				-0.004559	0.002503	-0.003051				-0.831456	1.078543	-44.847439
00257	245648	-0.202212	-0.098566	9.791766				-0.006349	0.000770	0.001242				-0.833268	1.078769	-44.847085
00258	245698	-0.180460	-0.109527	9.798133				-0.005127	0.002635	0.001118				-0.832290	1.079048	-44.841478
00259	245748	-0.202336	-0.107021	9.791046				-0.001769	0.001721	0.000018				-0.832797	1.079541	-44.841481
00260	245798	-0.177042	-0.114643	9.810810				-0.005010	-0.002345	-0.000190				-0.831789	1.078400	-44.839058
00261	245848	-0.192889	-0.126407	9.807784				-0.004438	0.000764	-0.001652				-0.833069	1.078612	-44.839525
00262	245898	-0.182605	-0.109491	9.795980				-0.005829	0.002324	-0.001480				-0.832309	1.078782	-44.832205
00263	245948	-0.200770	-0.107030	9.823154				-0.002956	-0.000828	-0.004838				-0.833182	1.078525	-44.833578
00264	245998	-0.200593	-0.096849	9.822671				-0.004649	-0.003925	-0.003310				-0.832083	1.076941	-44.837855
00265	246048	-0.176441	-0.114556	9.804580				-0.005233	0.004759	-0.002912				-0.833598	1.078292	-44.838698
00266	246098	-0.193566	-0.109167	9.783099				-0.003144	-0.001535	0.000580				-0.832051	1.077399	-44.839182
00267	246148	-0.175504	-0.120770	9.804097				-0.007708	-0.000131	-0.000301				-0.834261	1.077360	-44.839269
00268	246198	-0.188850	-0.118403	9.788830				-0.003129	0.002050	-0.001714				-0.832731	1.077440	-44.828624
00269	246248	-0.199348	-0.095010	9.795104				-0.006440	0.000247	-0.001933				-0.834586	1.077502	-44.829180
00270	246298	-0.182737	-0.120364	9.814680				-0.000873	-0.000332	0.000807				-0.832395	1.076922	-44.821113
00271	246348	-0.174682	-0.108618	9.796179				-0.004154	0.001065	0.000019				-0.833585	1.077227	-44.821121
00272	246398	-0.187401	-0.118797	9.798407				-0.001550	-0.000570	-0.002885				-0.831600	1.076600	-44.823485
00273	246448	-0.209049	-0.109997	9.815526				-0.007279	-0.000408	0.000533				-0.833682	1.076485	-44.823337
00274	246498	-0.199207	-0.106459	9.787920				-0.004473	0.002094	-0.001257				-0.832527	1.076626	-44.824596
00275	246548	-0.193654	-0.100082	9.805143				-0.004437	0.001735	-0.003309				-0.833816	1.077110	-44.825552
00276	246598	-0.214318	-0.098847	9.790870				-0.001683	-0.000091	-0.000955				-0.831854	1.076651	-44.833340
00277	246648	-0.178398	-0.122062	9.803395				-0.003134	0.001241	-0.001174				-0.832758	1.077002	-44.833675
00278	246698	-0.172867	-0.128236	9.808638				-0.001802	0.000589	-0.000149				-0.830838	1.076692	-44.828115
00279	246748	-0.199516	-0.108959	9.798701				-0.001311	0.001375	-0.000823				-0.831218	1.077083	-44.828350
00280	246798	-0.188482	-0.114107	9.797215				-0.004869	0.002243	-0.002315				-0.830189	1.077240	-44.823890
00281	246848	-0.176249	-0.114983	9.793800				-0.000922	-0.000245	-0.004135				-0.830475	1.077152	-44.825073
00282	246898	-0.193019	-0.101843	9.815923				-0.003032	0.003184	-0.001382				-0.828907	1.077619	-44.829698
00283	246948	-0.171638	-0.104346	9.799280				-0.002591	-0.000686	-0.000417				-0.829652	1.077420	-44.829818
00284	246998	-0.195969	-0.105017	9.801800				-0.004656	0.000668	-0.000560				-0.828544	1.077169	-44.834023
00285	247048	-0.181562	-0.115132	9.805799				-0.004318	0.000255	-0.000115				-0.829782	1.077242	-44.834061
00286	247098	-0.181997	-0.117151	9.785194				-0.004068	0.003621	-0.000069				-0.828511	1.077801	-44.828692
00287	247148	-0.193023	-0.109289	9.801789				-0.005867	-0.002750	-0.000769				-0.830196	1.077011	-44.828897
00288	247198	-0.165538	-0.127497	9.809083				-0.005122	0.002210	-0.001229				-0.829218	1.077233	-44.842133
00289	247248	-0.195328	-0.115989	9.792213				-0.003520	0.003371	-0.000067				-0.830227	1.078198	-44.842159
00290	247298	-0.189507	-0.093111	9.806794				-0.003101	0.001081	-0.001556				-0.828682	1.078056	-44.845626
00291	247348	-0.196120	-0.116840	9.805880				-0.002634	0.001575	-0.001907				-0.829447	1.078500	-44.846177
00292	247398	-0.191802	-0.119666	9.818562				-0.003448	-0.000381	-0.003710				-0.828015	1.077919	-44.847006
00293	247448	-0.181262	-0.127494	9.787357				-0.008956	-0.001153	-0.000400				-0.830584	1.077587	-44.847130
00294	247498	-0.201078	-0.115500	9.791282				-0.001536	0.003274	-0.002607				-0.828602	1.078046	-44.844763
00295	247548	-0.201512	-0.121886	9.768524				-0.004742	0.002447	-0.000451				-0.829963	1.078745	-44.844895
00296	247598	-0.208888	-0.122064	9.807858				-0.002717	0.001056	-0.001334				-0.828309	1.078598	-44.848110
00297	247648	-0.211304	-0.094702	9.789179				-0.001445	0.002762	0.001562				-0.828714	1.079396	-44.847677
00298	247698	-0.180741	-0.103483	9.773920				-0.005038	-0.001772	-0.004390				-0.827753	1.078378	-44.838980
00299	247748	-0.170182	-0.101620	9.799751				-0.004367	-0.001691	-0.002853				-0.829019	1.077881	-44.839796
00300	247798	-0.185251	-0.113628	9.803195				-0.004046	0.004012	-0.000223				-0.827748	1.078554	-44.834158
00301	247848	-0.190563	-0.113164	9.785959				-0.001615	0.001623	-0.002328				-0.828223	1.079009	-44.834829
00302	247898	-0.178250	-0.125978	9.795965				-0.003947	0.000316	-0.003646				-0.826939	1.078619	-44.832856
00303	247948	-0.188560	-0.105431	9.794334				-0.001518	0.000985	0.001327				-0.827367	1.078907	-44.832484
00304	247998	-0.197977	-0.096005	9.796301				-0.007252	-0.000183	0.000855				-0.827000	1.078421	-44.836332
00305	248048	-0.197321	-0.094014	9.803965				-0.008170	0.001515	-0.000285				-0.829342	1.078854	-44.836416
00306	248098	-0.180529	-0.117835	9.820899				-0.001895	0.003556	-0.002191				-0.827463	1.079398	-44.834201
00307	248148	-0.184469	-0.104811	9.802464				-0.002310	-0.000352	0.001580				-0.828116	1.079304	-44.833739
00308	248198	-0.206173	-0.113893	9.800418				-0.006444	0.003576	-0.002077				-0.827540	1.079855	-44.831516
00309	248248	-0.200940	-0.116140	9.784092				-0.003625	0.000263	-0.001460				-0.828587	1.079925	-44.831934
00310	248298	-0.188339	-0.101322	9.789057				-0.001983	0.001964	-0.004800				-0.826744	1.080018	-44.834079
00311	248348	-0.184190	-0.118106	9.804139				-0.001452	0.001562	-0.002974				-0.827176	1.080454	-44.834935
00312	248398	-0.180897	-0.107484	9.793811				-0.001838	0.000517	-0.003653				-0.825295	1.080098	-44.826788
00313	248448	-0.181227	-0.133648	9.793103				-0.004181	-0.000263	-0.000984				-0.826498	1.080019	-44.827067
00314	248498	-0.203057	-0.109058	9.797999				-0.006100	0.001705	-0.001803				-0.825828	1.080013	-44.818945
00315	248548	-0.194198	-0.119517	9.808022				-0.001796	0.001165	-0.004128				-0.826365	1.080330	-44.820137
00316	248598	-0.196280	-0.088747	9.792214				-0.005586	-0.002386	-0.000189				-0.825537	1.079175	-44.815480
00317	248648	-0.195983	-0.114428	9.779277				-0.005330	0.001758	0.000281				-0.827062	1.079680	-44.815405
00318	248698	-0.167115	-0.111307	9.778402				-0.000180	-0.002263	-0.002582				-0.824687	1.078603	-44.824585
00319	248748	-0.167049	-0.107063	9.802132				-0.003834	0.000230	0.000974				-0.825780	1.078673	-44.824302
00320	248798	-0.199078	-0.102245	9.802052				-0.008128	-0.000145	-0.002927				-0.825687	1.078184	-44.829481
00321	248848	-0.187049	-0.117438	9.797676				-0.005889	0.001933	-0.003789				-0.827394	1.078722	-44.830573
00322	248898	-0.199924	-0.105516	9.787447				-0.002401	0.001453	0.000881				-0.825651	1.078656	-44.821709
00323	248948	-0.201170	-0.099009	9.779778				-0.003485	0.003274	-0.000259				-0.826651	1.079593	-44.821797
00324	248998	-0.187939	-0.109203	9.789540				-0.003161	0.000753	-0.003129				-0.825145	1.079327	-44.818074
00325	249048	-0.193006	-0.121079	9.786689				-0.004000	-0.001970	-0.000161				-0.826292	1.078762	-44.818110
00326	249098	-0.207522	-0.111388	9.792030				-0.003492	0.001004	-0.004953				-0.824895	1.078538	-44.809452
00327	249148	-0.189170	-0.116081	9.805603				-0.002821	-0.000621	-0.000090				-0.825703	1.078360	-44.809467
00328	249198	-0.189870	-0.114732	9.796022				-0.003809	-0.000834	-0.000187				-0.824364	1.077669	-44.809376
00329	249248	-0.182938	-0.115690	9.797664				-0.004898	-0.000922	-0.002624				-0.825781	1.077394	-44.810117
00330	249298	-0.193694	-0.110196	9.799636				-0.007456	-0.001395	-0.004188				-0.825498	1.076568	-44.821818
00331	249348	-0.188624	-0.115000	9.795775				-0.004482	-0.000813	-0.000603				-0.826786	1.076333	-44.821988
00332	249398	-0.190293	-0.112159	9.780684				-0.002689	0.002448	-0.000878				-0.825131	1.076575	-44.820687
00333	249448	-0.194583	-0.090907	9.818563				-0.000283	0.000422	0.001642				-0.825203	1.076703	-44.820210
00334	249498	-0.195042	-0.103221	9.795805				-0.004872	0.002737	0.001664				-0.824158	1.077049	-44.821053
00335	249548	-0.198176	-0.125321	9.781208				-0.003082	-0.000764	-0.003879				-0.825062	1.076814	-44.822161
00336	249598	-0.192762	-0.109829	9.794356				-0.003458	0.000207	-0.000246				-0.823618	1.076448	-44.828509
00337	249648	-0.182601	-0.101142	9.790709				-0.004780	0.000604	0.000209				-0.824986	1.076622	-44.828449
00338	249698	-0.183016	-0.104976	9.830496				-0.001162	0.000729	0.000586				-0.822879	1.076417	-44.836469
00339	249748	-0.183450	-0.111432	9.798624				-0.004132	-0.001912	-0.001701				-0.824072	1.075862	-44.836942
00340	249798	-0.184991	-0.118693	9.795039				-0.002780	-0.000919	-0.000574				-0.822448	1.075117	-44.829267
00341	249848	-0.203221	-0.098775	9.810223				-0.001656	0.000144	-0.000283				-0.822924	1.075157	-44.829342
00342	249898	-0.194098	-0.103981	9.813770				-0.005661	-0.001127	-0.000824				-0.822127	1.074353	-44.822031
00343	249948	-0.203927	-0.114357	9.801369				-0.003646	0.000975	-0.002356				-0.823184	1.074623	-44.822712
00344	249998	-0.182750	-0.111553	9.790954				-0.004994	0.002214	-0.001737				-0.822198	1.074785	-44.818892
00345	250048	-0.184376	-0.117819	9.797668				-0.003484	0.001013	-0.001813				-0.823206	1.075068	-44.819415
00346	250098	-0.201635	-0.108488	9.795598				-0.002173	0.002139	-0.001007				-0.821403	1.075234	-44.821000
00347	250148	-0.197135	-0.116602	9.786468				-0.001669	-0.000633	-0.001089				-0.821887	1.075048	-44.821307
00348	250198	-0.196260	-0.111221	9.790539				-0.003055	0.000368	-0.004607				-0.820365	1.074658	-44.815363
00349	250248	-0.194503	-0.105948	9.793885				-0.008624	0.001375	-0.002183				-0.822847	1.075043	-44.815986
00350	250298	-0.182623	-0.116007	9.807250				-0.002560	0.003357	-0.001160				-0.821154	1.075571	-44.820649
00351	250348	-0.193854	-0.121811	9.800598				-0.004154	0.001972	-0.001645				-0.822353	1.076130	-44.821121
00352	250398	-0.191536	-0.101018	9.810169				-0.004120	0.000577	-0.003447				-0.821123	1.075839	-44.823272
00353	250448	-0.192446	-0.122994	9.802029				-0.003307	0.001668	-0.001138				-0.822077	1.076312	-44.823599
00354	250498	-0.175999	-0.111921	9.791156				-0.003975	-0.000773	-0.002364				-0.820800	1.075639	-44.825238
00355	250548	-0.186240	-0.097637	9.778025				-0.004652	0.003745	0.000095				-0.822133	1.076712	-44.825227
00356	250598	-0.194147	-0.086026	9.808257				-0.003154	0.003095	0.001503				-0.820600	1.077162	-44.825549
00357	250648	-0.205174	-0.107192	9.802568				-0.001837	-0.001474	-0.000772				-0.821130	1.076737	-44.825759
00358	250698	-0.204120	-0.102320	9.792976				-0.002117	0.003462	-0.001577				-0.819315	1.077290	-44.829640
00359	250748	-0.192792	-0.102308	9.790273				0.000609	-0.001857	-0.000623				-0.819144	1.076756	-44.829815
00360	250798	-0.181305	-0.117358	9.799334				-0.005528	0.004083	-0.000479				-0.818310	1.077446	-44.821878
00361	250848	-0.182827	-0.116352	9.792630				-0.004084	-0.001653	-0.004135				-0.819502	1.076956	-44.823049
00362	250898	-0.178821	-0.119621	9.785662				-0.002749	0.001086	-0.002524				-0.817884	1.076781	-44.816276
00363	250948	-0.177823	-0.107743	9.798358				-0.001263	0.002602	-0.002868				-0.818261	1.077515	-44.817098
00364	250998	-0.202752	-0.086187	9.790562				-0.004964	-0.002758	0.000672				-0.817255	1.076277	-44.815595
00365	251048	-0.200687	-0.107177	9.788877				-0.001999	0.001690	-0.001456				-0.817835	1.076755	-44.816018
00366	251098	-0.189327	-0.107811	9.815425				-0.005334	-0.000577	-0.004832				-0.816964	1.076121	-44.816328
00367	251148	-0.167762	-0.115344	9.804530				-0.001039	0.000638	-0.002304				-0.817274	1.076294	-44.816987
00368	251198	-0.196807	-0.121679	9.809956				-0.002420	0.002807	-0.002996				-0.815558	1.076638	-44.816815
00369	251248	-0.180267	-0.114300	9.787338				-0.003541	-0.001345	-0.002054				-0.816583	1.076244	-44.817394
00370	251298	-0.185488	-0.119469	9.782336				-0.002244	0.002325	-0.002579				-0.814813	1.076461	-44.819722
00371	251348	-0.186986	-0.109146	9.789055				-0.002412	-0.000487	-0.000092				-0.815505	1.076321	-44.819743
00372	251398	-0.180863	-0.117119	9.803889				-0.003126	0.002027	0.000080				-0.813968	1.076487	-44.827100
00373	251448	-0.191381	-0.103487	9.789311				-0.001252	0.000118	-0.002755				-0.814342	1.076510	-44.827887
00374	251498	-0.174239	-0.115012	9.790909				-0.003922	-0.001748	-0.004968				-0.813062	1.075571	-44.836026
00375	251548	-0.178359	-0.117430	9.820410				-0.005428	0.001957	0.002366				-0.814604	1.076142	-44.835351
00376	251598	-0.194129	-0.101859	9.801069				-0.003386	0.002283	0.001884				-0.813134	1.076384	-44.841041
00377	251648	-0.208275	-0.106171	9.791557				-0.003207	-0.000186	-0.006661				-0.814088	1.076303	-44.842941
00378	251698	-0.187112	-0.110350	9.805113				-0.002436	0.001192	-0.003128				-0.812385	1.076165	-44.838066
00379	251748	-0.196559	-0.107620	9.789581				-0.004842	-0.000428	-0.000246				-0.813774	1.076041	-44.838141
00380	251798	-0.195574	-0.099292	9.808743				0.001429	0.001814	-0.000537				-0.810942	1.076126	-44.841280
00381	251848	-0.200913	-0.099631	9.820278				-0.003311	-0.000370	-0.002208				-0.811902	1.076011	-44.841905
00382	251898	-0.186135	-0.107558	9.809656				-0.002652	-0.002407	-0.005425				-0.810269	1.074845	-44.840405
00383	251948	-0.198687	-0.096911	9.798220				-0.003800	0.001047	0.000593				-0.811355	1.075147	-44.840237
00384	251998	-0.189518	-0.105505	9.797213				-0.002574	0.002909	0.000185				-0.809674	1.075516	-44.834689
00385	252048	-0.174482	-0.117287	9.780845				-0.006225	0.002810	-0.000285				-0.811458	1.076320	-44.834777
00386	252098	-0.184373	-0.103098	9.796704				-0.003088	0.004168	0.002918				-0.809904	1.077086	-44.834750
00387	252148	-0.183036	-0.118361	9.808927				0.001344	0.002526	0.000107				-0.809519	1.077810	-44.834731
00388	252198	-0.173952	-0.103209	9.817507				-0.002039	0.002110	-0.000432				-0.807685	1.077960	-44.832652
00389	252248	-0.190619	-0.105971	9.817353				0.000442	0.002668	-0.001333				-0.807566	1.078719	-44.833045
00390	252298	-0.178796	-0.123988	9.798120				-0.006279	0.000252	-0.000335				-0.806941	1.078361	-44.836581
00391	252348	-0.197115	-0.107711	9.786943				-0.006680	0.003665	-0.004675				-0.808880	1.079392	-44.837919
00392	252398	-0.189992	-0.115010	9.813035				-0.003068	0.002153	-0.002064				-0.807346	1.079569	-44.841704
00393	252448	-0.190081	-0.119428	9.805367				-0.003585	0.001336	-0.000784				-0.808377	1.079949	-44.841937
00394	252498	-0.181805	-0.121702	9.806285				-0.003471	0.001761	-0.001299				-0.806959	1.079995	-44.839812
00395	252548	-0.179451	-0.115781	9.795250				-0.002819	0.004257	-0.003175				-0.807784	1.081201	-44.840734
00396	252598	-0.195479	-0.108148	9.806112				-0.005735	0.000100	-0.003031				-0.807030	1.080743	-44.833808
00397	252648	-0.190835	-0.117373	9.806815				-0.006000	0.001452	-0.003503				-0.808768	1.081145	-44.834816
00398	252698	-0.176450	-0.119586	9.794758				-0.005307	-0.000153	-0.002363				-0.807881	1.080652	-44.836311
00399	252748	-0.184903	-0.115417	9.810133				-0.005461	-0.000280	-0.000819				-0.809450	1.080569	-44.836549
00400	252798	-0.183708	-0.108197	9.783280				-0.006910	0.001922	-0.003082				-0.809026	1.080667	-44.838255
00401	252848	-0.193515	-0.106186	9.802510				-0.005031	0.000047	-0.003447				-0.810486	1.080667	-44.839236
00402	252898	-0.180957	-0.121372	9.787827				-0.002108	0.002939	-0.003444				-0.808693	1.081032	-44.835325
00403	252948	-0.185754	-0.112310	9.794086				-0.002196	-0.001159	-0.000160				-0.809323	1.080700	-44.835357
00404	252998	-0.176627	-0.122417	9.794998				-0.002993	-0.001663	-0.003466				-0.807792	1.079716	-44.823871
00405	253048	-0.191462	-0.099649	9.804166				-0.001790	0.000471	0.001451				-0.808297	1.079857	-44.823454
00406	253098	-0.185150	-0.113181	9.795275				0.000581	0.002411	-0.000181				-0.805713	1.080110	-44.825183
00407	253148	-0.201890	-0.123523	9.792009				-0.007804	0.001071	0.000028				-0.807948	1.080417	-44.825173
00408	253198	-0.169650	-0.125988	9.790407				0.000420	-0.001118	-0.002667				-0.805429	1.079629	-44.822351
00409	253248	-0.185396	-0.111821	9.804622				-0.004234	-0.000978	-0.003842				-0.806662	1.079334	-44.823438
00410	253298	-0.198030	-0.106241	9.804202				-0.002325	-0.002457	-0.003088				-0.804929	1.078171	-44.823550
00411	253348	-0.208783	-0.101193	9.791799				-0.004765	-0.001208	-0.003196				-0.806311	1.077812	-44.824455
00412	253398	-0.211115	-0.102488	9.781753				-0.003565	-0.000240	0.002255				-0.804902	1.077318	-44.825745
00413	253448	-0.195399	-0.111143	9.790059				-0.001831	0.004305	-0.004651				-0.805452	1.078532	-44.827089
00414	253498	-0.219633	-0.097925	9.787773				-0.003847	0.002365	-0.001029				-0.804147	1.078750	-44.823867
00415	253548	-0.193815	-0.105341	9.796761				-0.002300	0.002301	-0.000942				-0.804811	1.079405	-44.824142
00416	253598	-0.199938	-0.113107	9.799904				-0.005120	0.002183	-0.001096				-0.803874	1.079555	-44.816840
00417	253648	-0.211871	-0.090961	9.796840				-0.004401	0.000004	0.001687				-0.805126	1.079563	-44.816360
00418	253698	-0.196777	-0.129937	9.792702				-0.004233	-0.000678	-0.001176				-0.803927	1.078932	-44.818881
00419	253748	-0.182704	-0.125217	9.817077				-0.003015	0.001314	-0.001650				-0.804800	1.079302	-44.819362
00420	253798	-0.188889	-0.104408	9.797207				-0.004623	0.003446	-0.003657				-0.803727	1.079849	-44.823598
00421	253848	-0.166088	-0.117654	9.783201				-0.004639	-0.000142	-0.002718				-0.805071	1.079798	-44.824376
00422	253898	-0.196255	-0.098133	9.798918				-0.005467	-0.001924	0.001642				-0.804213	1.078815	-44.824310
00423	253948	-0.178631	-0.101214	9.788772				-0.003491	0.005309	-0.003845				-0.805235	1.080320	-44.825437
00424	253998	-0.185193	-0.102523	9.791194				-0.002194	-0.000355	-0.001664				-0.803458	1.079768	-44.824649
00425	254048	-0.197230	-0.111045	9.779047				-0.003716	0.003402	-0.001188				-0.804530	1.080737	-44.825002
00426	254098	-0.191438	-0.120287	9.792670				-0.005425	0.000494	-0.001618				-0.803680	1.080429	-44.824500
00427	254148	-0.192145	-0.109662	9.808969				-0.009086	-0.000150	0.000281				-0.806281	1.080388	-44.824414
00428	254198	-0.181779	-0.106554	9.811077				-0.003888	0.003723	-0.001571				-0.804992	1.081005	-44.824069
00429	254248	-0.190354	-0.118306	9.789315				-0.004619	0.004019	-0.007664				-0.806357	1.082125	-44.826281
00430	254298	-0.186122	-0.114206	9.806311				-0.004162	0.002232	-0.001356				-0.805144	1.082317	-44.825832
00431	254348	-0.185435	-0.130689	9.803433				-0.002506	0.001450	-0.001556				-0.805870	1.082726	-44.826276
00432	254398	-0.171730	-0.123076	9.804077				-0.006915	0.000882	-0.004726				-0.805460	1.082541	-44.832675
00433	254448	-0.185941	-0.102658	9.798875				-0.002277	-0.001845	-0.002252				-0.806125	1.082004	-44.833312
00434	254498	-0.208145	-0.105319	9.799465				-0.001671	0.002070	-0.007100				-0.804231	1.082122	-44.833549
00435	254548	-0.172252	-0.104882	9.811031				-0.004829	0.002419	0.001277				-0.805608	1.082821	-44.833182
00436	254598	-0.183120	-0.124684	9.795510				-0.004867	0.002319	0.000185				-0.804593	1.083030	-44.829322
00437	254648	-0.198241	-0.115440	9.788873				-0.001978	-0.003359	-0.002254				-0.805171	1.082059	-44.829956
00438	254698	-0.183935	-0.106237	9.812050				-0.005417	0.002733	0.001506				-0.804302	1.082415	-44.830925
00439	254748	-0.186110	-0.095425	9.799107				-0.004480	0.003423	0.000160				-0.805585	1.083396	-44.830886
00440	254798	-0.179904	-0.105510	9.803636				-0.004641	-0.003047	-0.001927				-0.804517	1.082066	-44.829109
00441	254848	-0.189846	-0.115898	9.805363				-0.006637	-0.001727	-0.001632				-0.806427	1.081565	-44.829570
00442	254898	-0.189369	-0.118043	9.793147				-0.003164	0.004058	-0.001314				-0.804930	1.082285	-44.830243
00443	254948	-0.194909	-0.113221	9.811382				-0.004740	-0.002013	-0.002278				-0.806300	1.081699	-44.830891
00444	254998	-0.200747	-0.109488	9.786008				-0.002661	-0.001319	0.004011				-0.804629	1.080904	-44.831047
00445	255048	-0.189113	-0.102839	9.802008				-0.005345	0.002179	-0.000937				-0.806166	1.081524	-44.831317
00446	255098	-0.185492	-0.129247	9.786180				-0.002703	-0.001493	-0.001572				-0.804539	1.080651	-44.831694
00447	255148	-0.191349	-0.101403	9.788836				-0.003236	-0.001826	-0.001442				-0.805473	1.080122	-44.832098
00448	255198	-0.195373	-0.100077	9.811621				-0.003449	-0.000217	-0.002396				-0.804065	1.079611	-44.832596
00449	255248	-0.193449	-0.115857	9.799152				-0.004720	0.001638	-0.000522				-0.805420	1.080078	-44.832739
00450	255298	-0.185839	-0.098130	9.796715				-0.003774	0.002241	0.001210				-0.804087	1.080286	-44.832258
00451	255348	-0.188073	-0.110757	9.800803				-0.002625	0.004127	-0.003081				-0.804855	1.081456	-44.833160
00452	255398	-0.183627	-0.116343	9.805817				-0.005774	-0.002945	-0.004554				-0.804126	1.080156	-44.834255
00453	255448	-0.179728	-0.117719	9.814904				-0.000957	0.003489	-0.000172				-0.804401	1.081154	-44.834309
00454	255498	-0.196139	-0.079098	9.812576				-0.004172	0.001649	0.000186				-0.803188	1.081183	-44.832667
00455	255548	-0.191850	-0.102956	9.789799				-0.006568	0.000051	-0.003351				-0.805087	1.081185	-44.833623
00456	255598	-0.163021	-0.116243	9.805951				-0.002054	0.002529	-0.000880				-0.803276	1.081450	-44.829591
00457	255648	-0.166306	-0.099406	9.803086				-0.002819	0.001547	0.001071				-0.804078	1.081897	-44.829292
00458	255698	-0.181126	-0.109171	9.806032				-0.005937	-0.001650	-0.002045				-0.803379	1.080986	-44.831705
00459	255748	-0.177193	-0.110969	9.810095				-0.003321	0.004052	-0.002758				-0.804346	1.082135	-44.832509
00460	255798	-0.180369	-0.119053	9.814424				-0.005499	0.000111	0.000691				-0.803509	1.081726	-44.831181
00461	255848	-0.174384	-0.115650	9.799295				-0.006804	-0.000533	-0.002204				-0.805470	1.081565	-44.831804
00462	255898	-0.182223	-0.119552	9.791910				-0.000261	0.003462	-0.003251				-0.803159	1.082089	-44.829183
00463	255948	-0.162299	-0.112042	9.811703				-0.002148	-0.000740	-0.001767				-0.803784	1.081870	-44.829685
00464	255998	-0.199595	-0.091770	9.787193				-0.003259	0.000985	-0.001458				-0.802315	1.081719	-44.833243
00465	256048	-0.183165	-0.132071	9.799108				-0.003835	-0.002290	-0.002278				-0.803426	1.081054	-44.833882
00466	256098	-0.189642	-0.096840	9.799847				-0.006191	-0.000454	-0.001331				-0.802801	1.080479	-44.834336
00467	256148	-0.195080	-0.107086	9.801551				-0.001523	0.002728	-0.003702				-0.803257	1.081245	-44.835404
00468	256198	-0.189617	-0.106679	9.808954				-0.005571	0.001369	0.000118				-0.802448	1.081194	-44.834145
00469	256248	-0.179936	-0.106350	9.789257				-0.006825	0.002247	-0.002372				-0.804416	1.081828	-44.834835
00470	256298	-0.179518	-0.113731	9.779432				-0.004216	0.001577	-0.003477				-0.803240	1.081811	-44.832424
00471	256348	-0.197207	-0.109410	9.810194				-0.003870	0.002168	-0.001771				-0.804358	1.082425	-44.832932
00472	256398	-0.186465	-0.106381	9.801997				0.000893	0.002410	-0.002328				-0.801707	1.082679	-44.836482
00473	256448	-0.200833	-0.098555	9.823147				-0.006351	-0.002785	-0.001760				-0.803535	1.081874	-44.836970
00474	256498	-0.193650	-0.099441	9.804421				-0.000199	0.000721	0.000582				-0.801182	1.081648	-44.837805
00475	256548	-0.201502	-0.095451	9.784089				-0.002605	0.000577	-0.002071				-0.801940	1.081805	-44.838395
00476	256598	-0.197054	-0.098343	9.801328				-0.003856	0.002424	-0.004367				-0.800662	1.082047	-44.840487
00477	256648	-0.177806	-0.085533	9.787803				-0.001275	-0.000816	-0.000001				-0.801027	1.081813	-44.840486
00478	256698	-0.192142	-0.105562	9.806571				-0.005868	-0.000708	-0.002011				-0.800313	1.081162	-44.840697
00479	256748	-0.183062	-0.115006	9.788556				-0.001293	-0.002801	-0.003827				-0.800704	1.080344	-44.841789
00480	256798	-0.194442	-0.120158	9.800599				-0.003742	0.002141	-0.001230				-0.799380	1.080502	-44.839215
00481	256848	-0.197080	-0.111297	9.797255				-0.001876	0.001985	0.000788				-0.799913	1.081074	-44.838992
00482	256898	-0.184863	-0.123792	9.787132				-0.002251	-0.002453	0.000187				-0.798150	1.079938	-44.840010
00483	256948	-0.172902	-0.113833	9.776049				-0.005207	0.003859	-0.002468				-0.799655	1.081034	-44.840732
00484	256998	-0.189881	-0.118210	9.808475				-0.007289	0.001144	0.000509				-0.799337	1.080918	-44.838989
00485	257048	-0.192148	-0.102883	9.791720				-0.003371	0.001503	-0.000947				-0.800308	1.081345	-44.839259
00486	257098	-0.184420	-0.107179	9.801741				-0.003193	-0.001048	0.000037				-0.798819	1.080605	-44.838909
00487	257148	-0.199332	-0.099784	9.797020				-0.004529	-0.000258	0.000111				-0.800116	1.080532	-44.838879
00488	257198	-0.191799	-0.106953	9.790517				-0.004903	-0.000726	-0.001754				-0.799126	1.079878	-44.839221
00489	257248	-0.188453	-0.096409	9.804401				-0.004680	0.001481	-0.000780				-0.800471	1.080300	-44.839446
00490	257298	-0.210111	-0.097037	9.826798				-0.007471	0.003757	-0.000949				-0.800213	1.080927	-44.838063
00491	257348	-0.189168	-0.114819	9.790748				-0.000389	0.001755	0.001902				-0.800314	1.081438	-44.837522
00492	257398	-0.198518	-0.098731	9.804446				-0.007715	0.002198	-0.001696				-0.800129	1.081628	-44.839357
00493	257448	-0.189128	-0.112937	9.804646				-0.001372	-0.000691	0.000451				-0.800520	1.081432	-44.839226
00494	257498	-0.215125	-0.096550	9.795664				-0.001174	0.001087	-0.000080				-0.798457	1.081285	-44.834357
00495	257548	-0.190583	-0.093098	9.787149				-0.003743	0.002043	-0.001969				-0.799540	1.081863	-44.834928
00496	257598	-0.193996	-0.111887	9.811375				0.000229	0.001112	-0.001889				-0.797080	1.081739	-44.835809
00497	257648	-0.193083	-0.123639	9.787415				-0.001046	0.001865	-0.002680				-0.797394	1.082262	-44.836578
00498	257698	-0.194934	-0.112122	9.798447				-0.005350	0.000141	-0.002069				-0.796537	1.081846	-44.834092
00499	257748	-0.187133	-0.126260	9.809189				-0.009035	-0.000633	0.000024				-0.799125	1.081665	-44.834089
00500	257798	-0.202310	-0.110173	9.797521				-0.002870	0.001601	-0.004026				-0.797563	1.081686	-44.838737
00501	257848	-0.193092	-0.114782	9.791478				-0.005776	-0.001813	-0.004645				-0.799243	1.081148	-44.840053
00502	257898	-0.192689	-0.111892	9.807537				-0.003775	0.005608	0.001324				-0.797911	1.082344	-44.844336
00503	257948	-0.180588	-0.103263	9.809152				-0.003604	0.002082	0.001368				-0.798937	1.082946	-44.843946
00504	257998	-0.176097	-0.120097	9.802660				-0.001418	0.003306	-0.004405				-0.796967	1.083430	-44.842967
00505	258048	-0.182831	-0.104813	9.795507				-0.005386	0.001666	0.002139				-0.798498	1.083916	-44.842368
00506	258098	-0.180366	-0.110708	9.819460				-0.003178	0.002670	-0.000174				-0.797011	1.084229	-44.838949
00507	258148	-0.213365	-0.113640	9.784152				-0.002357	0.000779	-0.000496				-0.797689	1.084450	-44.839087
00508	258198	-0.185867	-0.114941	9.808463				-0.004523	0.001777	0.001371				-0.796580	1.084517	-44.835866
00509	258248	-0.182211	-0.096135	9.794544				-0.002196	0.000649	-0.002909				-0.797225	1.084691	-44.836695
00510	258298	-0.195340	-0.103925	9.814738				-0.002391	0.000968	-0.002010				-0.795519	1.084526	-44.837563
00511	258348	-0.189279	-0.122688	9.788111				-0.003740	0.002042	-0.000874				-0.796596	1.085108	-44.837817
00512	258398	-0.196858	-0.111334	9.811391				-0.004525	-0.000454	-0.000181				-0.795495	1.084530	-44.835055
00513	258448	-0.195840	-0.107653	9.792929				-0.001691	-0.001122	-0.002597				-0.795993	1.084198	-44.835792
00514	258498	-0.194004	-0.085785	9.788604				-0.004319	0.002965	-0.004685				-0.794859	1.084577	-44.833086
00515	258548	-0.189871	-0.103053	9.821903				-0.003961	-0.000025	0.000302				-0.795992	1.084571	-44.832993
00516	258598	-0.191048	-0.098174	9.806805				-0.006873	-0.001342	-0.002747				-0.795569	1.083770	-44.840589
00517	258648	-0.198677	-0.107526	9.793423				-0.004625	-0.001526	-0.000697				-0.796898	1.083330	-44.840784
00518	258698	-0.182673	-0.116840	9.797177				-0.004497	0.000840	0.001395				-0.795781	1.083128	-44.837173
00519	258748	-0.191422	-0.114902	9.818555				-0.003926	0.000879	0.000016				-0.796906	1.083380	-44.837160
00520	258798	-0.184433	-0.108654	9.795756				-0.005752	-0.001058	0.000877				-0.796150	1.082641	-44.835739
00521	258848	-0.211718	-0.094577	9.787977				-0.004678	0.000349	-0.000495				-0.797493	1.082739	-44.835878
00522	258898	-0.193081	-0.110644	9.786690				-0.004482	-0.003782	0.001789				-0.796367	1.081231	-44.835671
00523	258948	-0.186470	-0.111199	9.825245				-0.006217	0.001024	-0.004401				-0.798172	1.081507	-44.836930
00524	258998	-0.192196	-0.109323	9.791472				-0.003526	-0.001863	-0.001796				-0.796790	1.080540	-44.839153
00525	259048	-0.198497	-0.115987	9.797016				0.001182	0.002784	0.002551				-0.796438	1.081347	-44.838430
00526	259098	-0.208369	-0.097678	9.779572				-0.002170	0.003174	0.000124				-0.794657	1.081836	-44.841277
00527	259148	-0.188048	-0.092609	9.803917				-0.004558	0.001574	-0.002998				-0.795980	1.082275	-44.842140
00528	259198	-0.187509	-0.121928	9.812784				-0.004935	0.002115	-0.004370				-0.795022	1.082409	-44.838239
00529	259248	-0.191805	-0.121438	9.813771				-0.003099	0.001387	0.003287				-0.795892	1.082819	-44.837301
00530	259298	-0.197879	-0.104026	9.795579				-0.005268	-0.000211	-0.000118				-0.795000	1.082339	-44.840636
00531	259348	-0.203333	-0.100583	9.790811				-0.002783	0.000091	-0.002395				-0.795811	1.082356	-44.841327
00532	259398	-0.182357	-0.105606	9.794548				-0.002062	0.001452	-0.003772				-0.794025	1.082317	-44.840469
00533	259448	-0.164953	-0.102349	9.799249				-0.001559	-0.002182	-0.000939				-0.794476	1.081688	-44.840731
00534	259498	-0.168824	-0.122797	9.765961				-0.002868	-0.000267	-0.002082				-0.792910	1.081176	-44.842812
00535	259548	-0.195377	-0.106763	9.776874				-0.005461	0.002854	-0.001798				-0.794484	1.081987	-44.843333
00536	259598	-0.186935	-0.127151	9.802242				-0.003623	0.003502	-0.000259				-0.793129	1.082540	-44.839705
00537	259648	-0.187458	-0.118723	9.805359				-0.005171	0.000530	-0.003187				-0.794627	1.082680	-44.840614
00538	259698	-0.190701	-0.095579	9.812315				-0.001248	0.001378	-0.001271				-0.792594	1.082644	-44.842818
00539	259748	-0.208494	-0.098171	9.810735				-0.004608	0.000555	0.005180				-0.793886	1.082824	-44.841327
00540	259798	-0.186820	-0.105102	9.817337				-0.002831	0.002707	-0.001869				-0.792310	1.083159	-44.841730
00541	259848	-0.184549	-0.101284	9.791438				-0.000877	0.001737	-0.001047				-0.792568	1.083652	-44.842040
00542	259898	-0.190661	-0.094119	9.782599				-0.000973	-0.002362	0.000925				-0.790446	1.082539	-44.839854
00543	259948	-0.194055	-0.088387	9.807775				-0.000084	0.000614	-0.005119				-0.790497	1.082694	-44.841322
00544	259998	-0.189256	-0.111114	9.809919				-0.002221	0.000980	0.001235				-0.788730	1.082548	-44.840894
00545	260048	-0.197857	-0.112826	9.790792				-0.000990	-0.001886	-0.001921				-0.789023	1.082000	-44.841431
00546	260098	-0.194857	-0.107672	9.823118				-0.003617	-0.000665	0.000651				-0.787660	1.081373	-44.839532
00547	260148	-0.192556	-0.098445	9.815681				-0.000807	0.000472	-0.002653				-0.787906	1.081498	-44.840286
00548	260198	-0.194338	-0.109584	9.798443				-0.001749	-0.003549	-0.003086				-0.786028	1.080029	-44.839366
00549	260248	-0.195277	-0.110903	9.814499				-0.005534	0.000978	-0.002571				-0.787628	1.080299	-44.840106
00550	260298	-0.183369	-0.110459	9.801977				-0.000626	0.004110	0.000481				-0.785406	1.081056	-44.842109
00551	260348	-0.210807	-0.092229	9.821763				-0.005538	0.003272	-0.002140				-0.787004	1.081985	-44.842726
00552	260398	-0.191366	-0.116036	9.781651				-0.005490	-0.001477	-0.000981				-0.786184	1.081136	-44.845030
00553	260448	-0.197415	-0.096476	9.790298				-0.000381	0.001229	-0.000660				-0.786296	1.081485	-44.845222
00554	260498	-0.198012	-0.083742	9.790784				-0.003980	-0.001612	-0.001018				-0.785046	1.080588	-44.845382
00555	260548	-0.176413	-0.109662	9.797147				-0.002453	0.002037	0.000695				-0.785745	1.081175	-44.845183
00556	260598	-0.191780	-0.115455	9.805861				-0.004698	0.000025	-0.000717				-0.784694	1.080766	-44.849335
00557	260648	-0.185935	-0.133092	9.816376				-0.005390	0.000231	-0.004762				-0.786264	1.080813	-44.850694
00558	260698	-0.200704	-0.093391	9.773781				-0.000492	-0.000653	-0.004965				-0.784034	1.080183	-44.853634
00559	260748	-0.192360	-0.100747	9.790999				-0.004761	0.001127	0.001276				-0.785391	1.080510	-44.853266
00560	260798	-0.174105	-0.104775	9.803845				-0.004461	0.001615	-0.000840				-0.784283	1.080517	-44.848384
00561	260848	-0.180861	-0.127602	9.787595				-0.004202	0.002688	0.001314				-0.785480	1.081293	-44.848013
00562	260898	-0.202652	-0.121992	9.792495				-0.002540	0.001947	0.002878				-0.783796	1.081439	-44.849188
00563	260948	-0.180772	-0.115884	9.806993				0.000994	-0.002951	-0.002418				-0.783524	1.080584	-44.849864
00564	260998	-0.178534	-0.105945	9.789252				-0.002093	0.002721	-0.000039				-0.781728	1.080942	-44.851886
00565	261048	-0.182313	-0.107895	9.791188				0.000008	0.001047	-0.001309				-0.781733	1.081237	-44.852261
00566	261098	-0.173025	-0.111854	9.775801				-0.000958	-0.001585	0.002594				-0.779590	1.080401	-44.860618
00567	261148	-0.193910	-0.089174	9.796031				-0.001400	-0.000852	0.001191				-0.779984	1.080162	-44.860270
00568	261198	-0.179148	-0.106142	9.810104				-0.005850	0.001977	-0.000738				-0.779267	1.080311	-44.864229
00569	261248	-0.199685	-0.110105	9.792953				-0.003650	0.002374	-0.000259				-0.780314	1.080990	-44.864305
00570	261298	-0.188264	-0.133610	9.819015				-0.003884	-0.001746	-0.002719				-0.779049	1.080042	-44.863735
00571	261348	-0.177320	-0.108233	9.794758				-0.003450	0.000818	-0.002709				-0.780052	1.080266	-44.864514
00572	261398	-0.185683	-0.112616	9.803188				-0.001466	0.001955	-0.001750				-0.778088	1.080393	-44.866170
00573	261448	-0.189243	-0.102320	9.801281				-0.003878	-0.003038	-0.003272				-0.779216	1.079511	-44.867088
00574	261498	-0.202874	-0.110308	9.806390				-0.000822	0.002135	0.000662				-0.777060	1.079678	-44.863011
00575	261548	-0.189933	-0.111679	9.795058				-0.003617	0.002106	-0.002892				-0.778112	1.080269	-44.863845
00576	261598	-0.175886	-0.126874	9.789725				-0.005993	0.000454	-0.000781				-0.777437	1.079982	-44.867860
00577	261648	-0.184141	-0.115710	9.809413				-0.006340	-0.001551	0.002161				-0.779242	1.079546	-44.867227
00578	261698	-0.192962	-0.115501	9.794838				-0.003392	0.002146	-0.002764				-0.777841	1.079704	-44.864236
00579	261748	-0.185290	-0.110457	9.797914				-0.002176	-0.003029	0.000414				-0.778462	1.078838	-44.864099
00580	261798	-0.208869	-0.105266	9.803781				-0.006672	0.000570	-0.000584				-0.777992	1.078542	-44.858426
00581	261848	-0.212121	-0.108208	9.794931				-0.006782	0.002991	-0.002587				-0.779949	1.079389	-44.859180
00582	261898	-0.191879	-0.115929	9.807777				-0.003690	0.003795	0.000808				-0.778614	1.080038	-44.856099
00583	261948	-0.180131	-0.114199	9.795495				-0.004245	0.002007	0.000092				-0.779829	1.080613	-44.856073
00584	261998	-0.193753	-0.109171	9.799393				-0.001877	0.000753	-0.001460				-0.777986	1.080393	-44.856372
00585	262048	-0.209266	-0.121564	9.791330				-0.002724	0.001120	-0.003286				-0.778784	1.080701	-44.857314
00586	262098	-0.205908	-0.102882	9.812395				-0.002357	0.003470	0.003627				-0.777051	1.081278	-44.856040
00587	262148	-0.201141	-0.110307	9.794636				-0.000561	0.002041	0.000887				-0.777207	1.081866	-44.855792
00588	262198	-0.193294	-0.111684	9.804428				-0.005455	-0.000212	0.000339				-0.776392	1.081319	-44.841880
00589	262248	-0.180088	-0.111310	9.793093				-0.004560	-0.001660	-0.003105				-0.777715	1.080832	-44.842762
00590	262298	-0.185726	-0.104988	9.792640				-0.005636	0.002071	-0.003817				-0.776964	1.080975	-44.842232
00591	262348	-0.186111	-0.109338	9.799836				-0.004694	0.000569	-0.002705				-0.778323	1.081127	-44.843010
00592	262398	-0.188811	-0.107319	9.802958				-0.003685	0.000807	-0.006108				-0.777019	1.080930	-44.850344
00593	262448	-0.188736	-0.129807	9.818301				-0.003966	0.004138	-0.001789				-0.778165	1.082109	-44.850867
00594	262498	-0.194480	-0.103153	9.794363				-0.002811	-0.000812	0.001486				-0.776568	1.081485	-44.857884
00595	262548	-0.177905	-0.123299	9.805789				-0.003052	-0.000498	-0.000859				-0.777446	1.081340	-44.858123
00596	262598	-0.192728	-0.122788	9.799866				-0.005347	0.003213	-0.001568				-0.776604	1.081804	-44.853596
00597	262648	-0.177794	-0.120961	9.790932				-0.004609	0.000187	-0.000719				-0.777929	1.081855	-44.853801
00598	262698	-0.171692	-0.108528	9.820132				-0.002910	-0.000681	0.001807				-0.776364	1.081250	-44.855904
00599	262748	-0.216536	-0.087197	9.803568				-0.002143	0.002167	-0.001320				-0.776985	1.081866	-44.856289
00600	262798	-0.204588	-0.098475	9.790337				-0.002559	0.001162	-0.000880				-0.775339	1.081757	-44.854129
00601	262848	-0.195972	-0.098555	9.803478				-0.001999	-0.002617	-0.003596				-0.775931	1.080993	-44.855154
00602	262898	-0.178036	-0.108129	9.806022				-0.002803	-0.002172	0.001574				-0.774337	1.079962	-44.857455
00603	262948	-0.195805	-0.093203	9.794369				-0.003807	0.000034	-0.001586				-0.775436	1.079965	-44.857905
00604	262998	-0.187693	-0.105539	9.812785				-0.005288	-0.000428	0.003158				-0.774543	1.079449	-44.862207
00605	263048	-0.184834	-0.122898	9.820198				-0.003947	-0.000540	-0.000499				-0.775676	1.079292	-44.862347
00606	263098	-0.206258	-0.102287	9.804006				-0.004872	0.000475	0.000083				-0.774692	1.078976	-44.856513
00607	263148	-0.182228	-0.107251	9.778007				-0.004227	0.000331	0.001205				-0.775896	1.079075	-44.856161
00608	263198	-0.193472	-0.095910	9.797230				-0.004564	0.001870	-0.000387				-0.774828	1.079147	-44.848107
00609	263248	-0.207515	-0.112089	9.799463				0.000346	-0.000633	-0.002206				-0.774741	1.078957	-44.848743
00610	263298	-0.184612	-0.099348	9.795990				-0.005635	0.001337	0.000732				-0.773969	1.078905	-44.846131
00611	263348	-0.192215	-0.119275	9.797473				-0.001469	0.002281	-0.001102				-0.774396	1.079554	-44.846455
00612	263398	-0.195405	-0.101699	9.808504				-0.002018	0.003500	-0.000323				-0.772596	1.080108	-44.841852
00613	263448	-0.194657	-0.122689	9.796046				-0.004388	-0.001653	0.000622				-0.773850	1.079637	-44.841660
00614	263498	-0.200594	-0.112739	9.791282				-0.004470	0.001834	-0.002892				-0.772759	1.079740	-44.845943
00615	263548	-0.211568	-0.109581	9.794455				-0.003443	-0.000012	0.001524				-0.773737	1.079743	-44.845498
00616	263598	-0.174537	-0.118838	9.794745				-0.004826	-0.000439	-0.005086				-0.772773	1.079129	-44.837085
00617	263648	-0.184754	-0.109586	9.803905				-0.001548	0.000630	-0.001431				-0.773224	1.079304	-44.837491
00618	263698	-0.180704	-0.104182	9.798841				-0.000273	0.000647	-0.002269				-0.770935	1.079038	-44.834335
00619	263748	-0.178979	-0.126229	9.796923				-0.002848	-0.000212	-0.004829				-0.771777	1.078958	-44.835722
00620	263798	-0.187014	-0.113633	9.796723				-0.004911	-0.000363	-0.000016				-0.770799	1.078435	-44.837219
00621	263848	-0.193073	-0.105332	9.795558				-0.004587	0.002449	-0.000960				-0.772119	1.079133	-44.837493
00622	263898	-0.179603	-0.117986	9.813225				-0.003888	-0.002682	-0.002854				-0.770871	1.077904	-44.833158
00623	263948	-0.175378	-0.123473	9.798347				-0.004697	-0.002337	-0.001342				-0.772223	1.077230	-44.833528
00624	263998	-0.188201	-0.108519	9.790500				-0.003602	-0.000212	0.000657				-0.770869	1.076752	-44.834760
00625	264048	-0.178802	-0.112356	9.801478				-0.003418	0.004417	0.001675				-0.771840	1.078023	-44.834291
00626	264098	-0.201755	-0.118328	9.815248				-0.002041	-0.001924	0.001411				-0.770038	1.077041	-44.831760
00627	264148	-0.196441	-0.116564	9.784307				-0.002168	0.000038	0.000171				-0.770658	1.077053	-44.831706
00628	264198	-0.216518	-0.097974	9.798302				0.000668	0.002412	-0.002385				-0.768098	1.077314	-44.833528
00629	264248	-0.186972	-0.129633	9.789779				-0.005385	-0.002765	-0.000734				-0.769645	1.076519	-44.833727
00630	264298	-0.191214	-0.124365	9.800583				-0.004087	0.000907	-0.001520				-0.768445	1.076346	-44.833721
00631	264348	-0.197703	-0.115613	9.817862				-0.000869	0.003881	0.002500				-0.768680	1.077467	-44.833013
00632	264398	-0.177339	-0.107827	9.799073				-0.004055	-0.000221	-0.001589				-0.767471	1.076978	-44.834869
00633	264448	-0.196861	-0.110105	9.792700				-0.006735	0.003738	0.000174				-0.769400	1.078050	-44.834838
00634	264498	-0.189774	-0.104611	9.803443				-0.000660	0.000571	-0.004095				-0.767230	1.077783	-44.838484
00635	264548	-0.180815	-0.112321	9.791901				-0.005692	0.000912	-0.001383				-0.768868	1.078039	-44.838882
00636	264598	-0.195929	-0.098206	9.781186				-0.003496	-0.000738	-0.003488				-0.767514	1.077374	-44.836405
00637	264648	-0.175260	-0.117669	9.790191				-0.004227	-0.000741	-0.001463				-0.768732	1.077156	-44.836810
00638	264698	-0.174617	-0.122170	9.816077				-0.000212	0.000776	-0.003037				-0.766436	1.076925	-44.833981
00639	264748	-0.178865	-0.125784	9.809396				-0.005091	0.002180	-0.001668				-0.767904	1.077543	-44.834466
00640	264798	-0.199276	-0.116535	9.808529				-0.004997	0.003147	-0.004902				-0.766986	1.077998	-44.835438
00641	264848	-0.191821	-0.113770	9.810170				-0.001432	-0.000983	-0.000316				-0.767398	1.077715	-44.835526
00642	264898	-0.189974	-0.107406	9.796498				-0.003120	0.000764	-0.000881				-0.765921	1.077503	-44.835158
00643	264948	-0.195445	-0.107073	9.801080				-0.001793	-0.000928	-0.002724				-0.766449	1.077227	-44.835925
00644	264998	-0.173620	-0.097756	9.791865				-0.006407	0.002419	0.000037				-0.765909	1.077492	-44.835391
00645	265048	-0.187253	-0.095921	9.795763				-0.002614	0.002131	0.001495				-0.766650	1.078109	-44.834968
00646	265098	-0.191569	-0.093423	9.793625				-0.004200	0.002163	-0.004333				-0.765499	1.078298	-44.838841
00647	265148	-0.198418	-0.112196	9.796304				-0.001401	-0.000247	-0.002783				-0.765915	1.078216	-44.839642
00648	265198	-0.194125	-0.098578	9.807064				-0.002629	-0.002687	-0.000643				-0.764298	1.077010	-44.837743
00649	265248	-0.175877	-0.113162	9.796906				-0.001489	0.000856	-0.000628				-0.764728	1.077252	-44.837923
00650	265298	-0.187522	-0.098494	9.804390				-0.002308	0.000423	0.000558				-0.763013	1.076942	-44.835847
00651	265348	-0.186576	-0.108990	9.797441				-0.000158	0.001270	-0.000793				-0.763063	1.077303	-44.836085
00652	265398	-0.202251	-0.114538	9.803270				-0.003296	-0.000990	-0.002364				-0.761643	1.076593	-44.838501
00653	265448	-0.184112	-0.130162	9.784970				-0.003681	0.001267	-0.001390				-0.762705	1.076951	-44.838904
00654	265498	-0.190039	-0.105454	9.801534				-0.005852	0.000641	-0.005171				-0.762035	1.076691	-44.840671
00655	265548	-0.179780	-0.108131	9.798836				0.001541	0.002936	-0.004988				-0.761621	1.077513	-44.842112
00656	265598	-0.183118	-0.123382	9.796467				-0.000468	0.001942	-0.000818				-0.759382	1.077659	-44.846332
00657	265648	-0.192115	-0.101818	9.786929				-0.003551	0.001911	-0.004049				-0.760421	1.078191	-44.847499
00658	265698	-0.180580	-0.098195	9.805797				-0.002941	0.001254	-0.000848				-0.758898	1.078109	-44.844965
00659	265748	-0.199795	-0.101934	9.785764				-0.003278	0.002667	-0.001156				-0.759843	1.078869	-44.845294
00660	265798	-0.186996	-0.135372	9.810145				-0.004864	-0.002144	-0.001532				-0.758872	1.077818	-44.844399
00661	265848	-0.181862	-0.108850	9.813709				-0.004272	-0.001454	-0.001241				-0.760102	1.077397	-44.844745
00662	265898	-0.176215	-0.112143	9.803620				-0.005067	0.003306	-0.005227				-0.759209	1.077900	-44.846466
00663	265948	-0.184711	-0.110083	9.804620				-0.002885	0.001416	-0.000750				-0.760040	1.078303	-44.846689
00664	265998	-0.168634	-0.109954	9.787769				-0.006437	-0.001082	-0.003576				-0.759536	1.077527	-44.841509
00665	266048	-0.185220	-0.114603	9.809895				-0.000677	0.002353	-0.002674				-0.759745	1.078191	-44.842274
00666	266098	-0.193870	-0.128994	9.808024				-0.001723	0.002179	-0.000974				-0.757869	1.078403	-44.846334
00667	266148	-0.183518	-0.110976	9.815153				-0.002956	-0.001200	0.002284				-0.758703	1.078068	-44.845674
00668	266198	-0.173837	-0.125682	9.808640				-0.002772	0.000567	-0.003932				-0.757150	1.077776	-44.843507
00669	266248	-0.195283	-0.106355	9.795572				-0.005646	0.003658	-0.001661				-0.758777	1.078817	-44.843997
00670	266298	-0.192594	-0.119817	9.795562				-0.004539	0.000834	-0.002478				-0.757722	1.078616	-44.843471
00671	266348	-0.199809	-0.106452	9.804458				-0.002842	0.001223	-0.000142				-0.758537	1.078966	-44.843517
00672	266398	-0.182135	-0.109645	9.812757				-0.003168	-0.000954	-0.001372				-0.757077	1.078288	-44.849884
00673	266448	-0.179190	-0.104220	9.802436				0.000536	0.004770	-0.001892				-0.756934	1.079647	-44.850438
00674	266498	-0.174171	-0.113868	9.792348				-0.003838	0.002006	-0.002031				-0.755677	1.079780	-44.849097
00675	266548	-0.186872	-0.131381	9.796728				-0.003802	0.001746	-0.005365				-0.756795	1.080260	-44.850643
00676	266598	-0.189245	-0.124793	9.800096				-0.003095	-0.000603	-0.005952				-0.755340	1.079666	-44.858260
00677	266648	-0.194649	-0.106960	9.780226				-0.001068	0.001740	0.000755				-0.755642	1.080167	-44.858052
00678	266698	-0.166535	-0.127258	9.779847				-0.001878	0.002218	0.002425				-0.753799	1.080385	-44.857011
00679	266748	-0.187027	-0.115025	9.804629				-0.008626	0.000506	-0.000351				-0.756272	1.080529	-44.857108
00680	266798	-0.199909	-0.113995	9.799427				-0.002838	-0.000238	-0.002228				-0.754736	1.080000	-44.851876
00681	266848	-0.189305	-0.105606	9.772051				-0.003538	-0.001278	0.000364				-0.755748	1.079635	-44.851760
00682	266898	-0.191675	-0.105158	9.787637				-0.002263	0.001977	0.000148				-0.754031	1.079769	-44.850079
00683	266948	-0.189780	-0.107961	9.799135				-0.005262	0.002304	-0.004073				-0.755561	1.080413	-44.851246
00684	266998	-0.194874	-0.105260	9.792931				-0.001277	-0.001114	-0.002146				-0.753572	1.079663	-44.852213
00685	267048	-0.188399	-0.106020	9.779952				-0.004567	-0.000631	-0.006500				-0.754915	1.079458	-44.854070
00686	267098	-0.170403	-0.121382	9.823003				-0.004894	0.001020	-0.001131				-0.753955	1.079330	-44.856637
00687	267148	-0.194845	-0.104824	9.811380				-0.002059	0.002822	0.000221				-0.754544	1.080139	-44.856586
00688	267198	-0.181633	-0.125287	9.818271				-0.006601	0.004417	-0.002167				-0.754087	1.080945	-44.851362
00689	267248	-0.167195	-0.116356	9.794949				-0.003418	-0.000244	-0.001397				-0.755074	1.080870	-44.851759
00690	267298	-0.193264	-0.109250	9.802982				-0.002347	-0.000910	-0.004163				-0.753400	1.080188	-44.857258
00691	267348	-0.201928	-0.111139	9.780501				-0.002443	-0.000610	0.000075				-0.754100	1.080013	-44.857236
00692	267398	-0.186968	-0.094366	9.795759				-0.005476	-0.000992	-0.001652				-0.753308	1.079326	-44.864201
00693	267448	-0.192040	-0.112109	9.803705				-0.006519	-0.001131	0.001811				-0.755165	1.079009	-44.863679
00694	267498	-0.190383	-0.112345	9.799856				-0.007842	-0.000967	-0.001455				-0.755056	1.078298	-44.863511
00695	267548	-0.175847	-0.135242	9.797632				-0.001827	0.001267	-0.001974				-0.755590	1.078653	-44.864085
00696	267598	-0.191963	-0.118995	9.802023				-0.004891	0.000218	0.000888				-0.754617	1.078331	-44.872265
00697	267648	-0.199667	-0.090902	9.794149				-0.002877	0.001091	-0.001518				-0.755449	1.078638	-44.872703
00698	267698	-0.188457	-0.099041	9.804153				-0.005089	0.001048	-0.003214				-0.754564	1.078495	-44.872361
00699	267748	-0.193299	-0.094701	9.812814				-0.005012	0.001826	-0.002184				-0.756011	1.079010	-44.872991
00700	267798	-0.188593	-0.102975	9.799607				-0.002883	0.000482	0.000145				-0.754479	1.078699	-44.867466
00701	267848	-0.184704	-0.111917	9.795031				-0.003745	0.002076	-0.001707				-0.755561	1.079287	-44.867959
00702	267898	-0.178650	-0.107996	9.795008				-0.003522	-0.002598	0.003015				-0.754196	1.078106	-44.861946
00703	267948	-0.202327	-0.103856	9.778829				-0.006919	0.003178	-0.003355				-0.756197	1.079004	-44.862917
00704	267998	-0.182404	-0.109305	9.802687				-0.001474	0.001241	-0.001332				-0.754271	1.078897	-44.856148
00705	268048	-0.197501	-0.109631	9.796533				-0.002044	-0.000964	-0.001436				-0.754864	1.078615	-44.856561
00706	268098	-0.205037	-0.104117	9.800402				-0.001977	0.000042	-0.001498				-0.753081	1.078177	-44.852682
00707	268148	-0.193112	-0.102123	9.796036				-0.007939	-0.000938	-0.000751				-0.755359	1.077906	-44.852885
00708	268198	-0.203407	-0.088337	9.795121				-0.003012	0.004411	-0.002942				-0.753877	1.078736	-44.854258
00709	268248	-0.193169	-0.111124	9.793399				0.000303	-0.000539	-0.003785				-0.753810	1.078567	-44.855335
00710	268298	-0.193479	-0.114540	9.804667				-0.004781	0.001147	-0.004464				-0.752842	1.078455	-44.856761
00711	268348	-0.194727	-0.126572	9.803004				-0.004384	0.000127	-0.001877				-0.754108	1.078485	-44.857297
00712	268398	-0.191728	-0.123179	9.803460				-0.003037	-0.000079	-0.002167				-0.752636	1.078000	-44.851267
00713	268448	-0.181853	-0.120166	9.785436				-0.001468	0.000948	-0.002586				-0.753071	1.078262	-44.852016
00714	268498	-0.177136	-0.105400	9.789962				-0.007530	0.002564	0.000072				-0.752864	1.078593	-44.856453
00715	268548	-0.193720	-0.087428	9.791714				-0.002377	-0.000317	0.001454				-0.753537	1.078508	-44.856037
00716	268598	-0.190197	-0.097873	9.790265				-0.004590	-0.001428	-0.000150				-0.752497	1.077654	-44.851615
00717	268648	-0.181445	-0.136208	9.811323				-0.002556	-0.003101	0.000570				-0.753226	1.076768	-44.851434
00718	268698	-0.194876	-0.110139	9.798204				-0.003685	-0.000801	-0.001525				-0.751930	1.076113	-44.852685
00719	268748	-0.195182	-0.101556	9.812588				-0.003403	0.002767	0.000606				-0.752902	1.076908	-44.852514
00720	268798	-0.184830	-0.120755	9.815647				-0.004516	-0.001951	-0.003010				-0.751852	1.075917	-44.854075
00721	268848	-0.193626	-0.109814	9.797952				-0.001025	-0.003017	-0.002062				-0.752157	1.075045	-44.854658
00722	268898	-0.168520	-0.113990	9.767149				-0.000734	0.001287	-0.000341				-0.750011	1.074985	-44.853834
00723	268948	-0.186527	-0.111500	9.791684				-0.000526	-0.000386	-0.001889				-0.750172	1.074868	-44.854372
00724	268998	-0.200720	-0.085957	9.791030				-0.005259	0.003602	-0.001051				-0.749327	1.075474	-44.855096
00725	269048	-0.198139	-0.113001	9.780003				-0.003412	-0.000149	-0.001302				-0.750311	1.075426	-44.855466
00726	269098	-0.189612	-0.112916	9.788110				-0.001279	0.001183	-0.001009				-0.748325	1.075339	-44.856026
00727	269148	-0.185893	-0.103007	9.808220				-0.002426	0.004333	0.000228				-0.749019	1.076581	-44.855973
00728	269198	-0.190452	-0.099187	9.783318				-0.003165	0.000048	-0.000918				-0.747576	1.076158	-44.853935
00729	269248	-0.181165	-0.110951	9.801012				-0.003844	0.002269	-0.002440				-0.748690	1.076798	-44.854639
00730	269298	-0.177374	-0.092661	9.784206				-0.004400	-0.001396	-0.000346				-0.747595	1.075976	-44.855112
00731	269348	-0.193673	-0.118337	9.794363				-0.002195	0.005113	0.000454				-0.748222	1.077443	-44.854999
00732	269398	-0.197747	-0.094522	9.794133				-0.005213	0.001051	0.000536				-0.747358	1.077312	-44.852548
00733	269448	-0.175387	-0.129864	9.799544				-0.003250	-0.000273	-0.001818				-0.748298	1.077227	-44.853064
00734	269498	-0.177173	-0.101799	9.799068				-0.001649	-0.000181	-0.001182				-0.746423	1.076738	-44.851435
00735	269548	-0.187549	-0.112729	9.805112				-0.003258	0.000956	-0.001713				-0.747365	1.077006	-44.851928
00736	269598	-0.184228	-0.121763	9.784009				-0.006468	0.001154	-0.002249				-0.746876	1.076897	-44.850784
00737	269648	-0.194128	-0.131436	9.784303				-0.002109	0.001174	-0.000621				-0.747484	1.077231	-44.850968
00738	269698	-0.168797	-0.126928	9.800469				-0.005988	0.002399	0.000932				-0.746842	1.077484	-44.847703
00739	269748	-0.206594	-0.106858	9.784601				0.000115	0.002428	-0.004471				-0.746833	1.078163	-44.848995
00740	269798	-0.194836	-0.113312	9.785501				-0.006245	0.002360	-0.001085				-0.746277	1.078400	-44.846683
00741	269848	-0.185414	-0.100557	9.794068				-0.000365	-0.002655	-0.003245				-0.746399	1.077627	-44.847598
00742	269898	-0.182138	-0.109017	9.810602				-0.004249	0.000027	-0.001710				-0.745269	1.077213	-44.849607
00743	269948	-0.183803	-0.114900	9.810612				-0.002633	0.004002	0.001257				-0.746017	1.078364	-44.849264
00744	269998	-0.206275	-0.098112	9.798008				-0.000785	-0.000110	-0.002616				-0.743891	1.077939	-44.857844
00745	270048	-0.191577	-0.107489	9.786683				-0.001019	0.000047	-0.003389				-0.744201	1.077940	-44.858813
00746	270098	-0.187204	-0.113599	9.783545				-0.005052	0.003079	-0.002749				-0.743308	1.078401	-44.862234
00747	270148	-0.169640	-0.122684	9.801914				-0.003380	-0.003614	-0.003757				-0.744296	1.077352	-44.863290
00748	270198	-0.181303	-0.108908	9.788549				-0.005145	0.002409	0.002797				-0.743405	1.077618	-44.860158
00749	270248	-0.194593	-0.097718	9.785498				-0.007568	0.003615	-0.002900				-0.745589	1.078643	-44.860995
00750	270298	-0.192439	-0.116482	9.793880				-0.005381	0.001362	-0.001924				-0.744790	1.078598	-44.860610
00751	270348	-0.181213	-0.106295	9.800293				-0.006203	0.002059	-0.001600				-0.746576	1.079182	-44.861066
00752	270398	-0.196734	-0.113163	9.805640				-0.005612	-0.001352	0.000343				-0.745833	1.078354	-44.856927
00753	270448	-0.179838	-0.114783	9.791889				-0.000807	0.000604	-0.002068				-0.746076	1.078519	-44.857521
00754	270498	-0.190713	-0.107002	9.798417				-0.003148	0.000624	-0.002512				-0.744638	1.078274	-44.860166
00755	270548	-0.189387	-0.094793	9.786908				-0.006140	0.003193	-0.000371				-0.746399	1.079188	-44.860285
00756	270598	-0.199494	-0.099968	9.808288				-0.006428	0.003386	0.001331				-0.745883	1.079737	-44.859310
00757	270648	-0.191025	-0.113176	9.796749				-0.005406	0.000232	0.000062				-0.747431	1.079804	-44.859288
00758	270698	-0.183767	-0.114402	9.811811				-0.002488	0.002324	0.000767				-0.745786	1.080065	-44.862539
00759	270748	-0.190554	-0.121089	9.801059				-0.004793	0.002987	-0.002015				-0.747170	1.080913	-44.863121
00760	270798	-0.178491	-0.100717	9.816567				-0.004273	0.000535	-0.004048				-0.746071	1.080602	-44.858430
00761	270848	-0.189760	-0.103965	9.804886				-0.001704	-0.000612	-0.003290				-0.746577	1.080414	-44.859373
00762	270898	-0.197192	-0.089165	9.775923				-0.003261	0.001241	-0.001868				-0.745174	1.080327	-44.857196
00763	270948	-0.183505	-0.127381	9.791431				-0.002475	0.001640	-0.001259				-0.745890	1.080792	-44.857567
00764	270998	-0.193529	-0.090544	9.807294				-0.001786	-0.000871	-0.001595				-0.744061	1.080112	-44.857548
00765	271048	-0.176707	-0.121516	9.804585				-0.007001	-0.000317	-0.003120				-0.746084	1.080009	-44.858444
00766	271098	-0.204139	-0.094789	9.826531				-0.003279	0.002656	-0.003430				-0.744693	1.080333	-44.859067
00767	271148	-0.198806	-0.111351	9.816432				-0.001262	0.000851	-0.000558				-0.745058	1.080574	-44.859226
00768	271198	-0.188603	-0.110579	9.794574				-0.006902	0.005156	0.000570				-0.744685	1.081625	-44.857841
00769	271248	-0.208064	-0.086366	9.797065				-0.006825	-0.001670	-0.002642				-0.746654	1.081137	-44.858586
00770	271298	-0.173609	-0.131224	9.795945				-0.005160	-0.001806	-0.002521				-0.745798	1.080183	-44.858233
00771	271348	-0.189954	-0.123744	9.789785				-0.005156	0.000234	-0.001995				-0.747285	1.080243	-44.858792
00772	271398	-0.192810	-0.120760	9.796042				-0.005128	0.000362	-0.001447				-0.746412	1.079929	-44.861415
00773	271448	-0.187890	-0.098268	9.788818				-0.001632	0.001425	-0.002062				-0.746891	1.080329	-44.862010
00774	271498	-0.180179	-0.111772	9.806517				-0.005059	0.001105	-0.003596				-0.746013	1.080203	-44.861520
00775	271548	-0.183061	-0.117346	9.784006				-0.003325	-0.000995	-0.002904				-0.746981	1.079907	-44.862339
00776	271598	-0.169571	-0.112707	9.784413				-0.003287	0.000583	-0.004761				-0.745602	1.079629	-44.862378
00777	271648	-0.186472	-0.111130	9.807502				-0.004769	0.003444	-0.001019				-0.746974	1.080612	-44.862670
00778	271698	-0.200516	-0.091295	9.817152				-0.004534	0.001121	-0.000707				-0.745930	1.080506	-44.862542
00779	271748	-0.205020	-0.114908	9.793463				-0.001843	-0.000096	-0.001364				-0.746465	1.080473	-44.862930
00780	271798	-0.183838	-0.101158	9.808449				-0.003012	-0.002730	-0.000862				-0.744983	1.079276	-44.865204
00781	271848	-0.190392	-0.114790	9.810165				-0.004781	-0.000373	-0.001680				-0.746362	1.079162	-44.865681
00782	271898	-0.170470	-0.114684	9.810059				-0.000614	0.001675	-0.000300				-0.744194	1.079215	-44.864929
00783	271948	-0.192252	-0.108569	9.785965				-0.005299	0.000178	0.003298				-0.745694	1.079278	-44.863978
00784	271998	-0.183575	-0.108605	9.801498				-0.003745	0.003196	-0.003459				-0.744440	1.079764	-44.865980
00785	272048	-0.175315	-0.122552	9.804333				-0.004677	0.000373	-0.001709				-0.745789	1.079864	-44.866470
00786	272098	-0.189378	-0.107874	9.819501				-0.004533	0.001895	-0.001315				-0.744751	1.079970	-44.864774
00787	272148	-0.184496	-0.120285	9.803427				-0.004766	-0.001856	0.000335				-0.746115	1.079440	-44.864664
00788	272198	-0.184716	-0.104162	9.788559				-0.003292	0.000743	-0.005943				-0.744749	1.079190	-44.862661
00789	272248	-0.181902	-0.112701	9.806048				-0.003986	0.003102	-0.000156				-0.745892	1.080078	-44.862713
00790	272298	-0.206789	-0.096783	9.804492				-0.001269	0.001279	0.000697				-0.743908	1.080019	-44.861185
00791	272348	-0.196465	-0.106056	9.812348				-0.002724	0.000207	-0.003701				-0.744709	1.080064	-44.862248
00792	272398	-0.188325	-0.108762	9.813504				0.000332	-0.000888	0.001702				-0.742261	1.079389	-44.860648
00793	272448	-0.205757	-0.106177	9.778368				-0.004168	-0.000225	0.001145				-0.743449	1.079329	-44.860311
00794	272498	-0.184383	-0.110989	9.786647				-0.003300	0.000434	-0.000045				-0.742051	1.079031	-44.860251
00795	272548	-0.177746	-0.107129	9.800750				-0.003568	-0.000386	-0.002871				-0.743088	1.078910	-44.861071
00796	272598	-0.201341	-0.110619	9.811415				-0.002271	-0.002884	-0.001378				-0.741403	1.077655	-44.861313
00797	272648	-0.193863	-0.097449	9.806341				-0.004113	-0.002269	-0.002041				-0.742592	1.076998	-44.861883
00798	272698	-0.198848	-0.102313	9.797023				-0.003189	-0.000252	-0.003576				-0.741181	1.076489	-44.862603
00799	272748	-0.190222	-0.092280	9.797934				-0.004090	0.003260	-0.001980				-0.742364	1.077415	-44.863185
00800	272798	-0.187981	-0.109539	9.794571				-0.003201	-0.000600	0.000461				-0.740936	1.076822	-44.862685
00801	272848	-0.200792	-0.112733	9.793202				-0.003187	0.000950	-0.000199				-0.741850	1.077093	-44.862751
00802	272898	-0.178707	-0.120382	9.803397				-0.000250	0.003658	0.002791				-0.739563	1.077733	-44.862600
00803	272948	-0.180051	-0.115359	9.792860				-0.003688	-0.000387	-0.000527				-0.740622	1.077621	-44.862747
00804	272998	-0.176724	-0.122231	9.795241				-0.004181	0.003969	-0.000666				-0.739482	1.078331	-44.862233
00805	273048	-0.189572	-0.103589	9.793376				-0.004726	0.001885	-0.002859				-0.740852	1.078860	-44.863059
00806	273098	-0.187780	-0.109235	9.807277				-0.003985	-0.001392	-0.002005				-0.739663	1.078024	-44.861903
00807	273148	-0.203894	-0.096678	9.804471				-0.008897	-0.002035	-0.002415				-0.742225	1.077432	-44.862591
00808	273198	-0.186386	-0.113099	9.812297				-0.003842	-0.000714	-0.001490				-0.740992	1.076803	-44.863171
00809	273248	-0.179864	-0.115826	9.807473				-0.006453	-0.001471	-0.003158				-0.742857	1.076369	-44.864058
00810	273298	-0.182554	-0.108150	9.796461				-0.006381	0.000606	-0.000197				-0.742345	1.076120	-44.864099
00811	273348	-0.195436	-0.104739	9.786216				-0.003619	0.001396	-0.000645				-0.743386	1.076518	-44.864285
00812	273398	-0.196728	-0.111213	9.786468				-0.004766	-0.001121	-0.004058				-0.742432	1.075753	-44.863908
00813	273448	-0.201220	-0.102217	9.785531				-0.005406	0.003271	-0.001559				-0.743990	1.076684	-44.864366
00814	273498	-0.197547	-0.104372	9.794614				-0.003166	-0.000861	-0.001978				-0.742566	1.076012	-44.865554
00815	273548	-0.194760	-0.120194	9.786697				-0.004138	0.001548	-0.001285				-0.743758	1.076451	-44.865932
00816	273598	-0.193084	-0.120036	9.793160				-0.005542	-0.000810	-0.002448				-0.743020	1.075783	-44.865022
00817	273648	-0.197341	-0.120852	9.798937				-0.004555	-0.000294	0.001337				-0.744318	1.075704	-44.864632
00818	273698	-0.187099	-0.112209	9.812784				-0.006728	0.000399	-0.001665				-0.743916	1.075386	-44.863948
00819	273748	-0.184762	-0.121645	9.793362				-0.006008	0.000967	-0.000197				-0.745638	1.075662	-44.863997
00820	273798	-0.200886	-0.115989	9.808538				-0.000955	0.001179	-0.001680				-0.743582	1.075572	-44.864022
00821	273848	-0.169870	-0.101245	9.808378				-0.005057	0.000975	-0.003305				-0.745049	1.075839	-44.864972
00822	273898	-0.199088	-0.113232	9.795830				-0.002334	-0.001747	-0.000411				-0.743382	1.074911	-44.863783
00823	273948	-0.166668	-0.120309	9.787514				-0.004742	0.003573	0.000265				-0.744739	1.075935	-44.863714
00824	273998	-0.182714	-0.122507	9.808212				-0.004277	0.000633	-0.004629				-0.743651	1.075676	-44.864428
00825	274048	-0.191938	-0.118948	9.798665				-0.005596	0.000159	-0.000324				-0.745256	1.075720	-44.864515
00826	274098	-0.188428	-0.110059	9.783781				-0.002577	-0.000203	-0.001426				-0.743665	1.075237	-44.865120
00827	274148	-0.181463	-0.122447	9.795974				-0.000747	0.002739	-0.000388				-0.743881	1.076020	-44.865235
00828	274198	-0.185753	-0.111782	9.788087				-0.003822	-0.000156	0.000919				-0.742634	1.075558	-44.864858
00829	274248	-0.177536	-0.111069	9.800269				-0.002721	0.001445	-0.000295				-0.743415	1.075971	-44.864949
00830	274298	-0.166212	-0.117679	9.788950				-0.001773	-0.000355	-0.001756				-0.741597	1.075445	-44.865926
00831	274348	-0.200464	-0.106923	9.799668				-0.004892	0.001045	-0.002856				-0.743013	1.075733	-44.866734
00832	274398	-0.191553	-0.117312	9.804414				-0.003796	-0.000260	-0.001454				-0.741773	1.075232	-44.866947
00833	274448	-0.193882	-0.116437	9.797480				0.000422	0.001368	0.001106				-0.741647	1.075628	-44.866634
00834	274498	-0.187029	-0.094770	9.796485				-0.001915	0.002400	0.000508				-0.739857	1.075895	-44.866193
00835	274548	-0.172030	-0.106916	9.805038				-0.004867	-0.002961	-0.002944				-0.741267	1.075036	-44.867024
00836	274598	-0.179198	-0.113426	9.787339				0.000610	0.005344	-0.002659				-0.738772	1.076137	-44.867861
00837	274648	-0.188966	-0.104482	9.789540				-0.002398	-0.000781	0.000075				-0.739458	1.075913	-44.867834
00838	274698	-0.158516	-0.126626	9.802094				-0.005840	-0.000395	-0.002258				-0.738809	1.075367	-44.867532
00839	274748	-0.198252	-0.088726	9.799410				0.000601	-0.000602	-0.002596				-0.738651	1.075185	-44.868280
00840	274798	-0.196057	-0.121628	9.806124				-0.002912	0.001311	-0.000972				-0.737158	1.075123	-44.865896
00841	274848	-0.174326	-0.103418	9.812952				-0.001754	-0.001998	-0.001280				-0.737667	1.074546	-44.866250
00842	274898	-0.170046	-0.110241	9.809340				-0.005233	0.002182	0.002857				-0.736818	1.074759	-44.865281
00843	274948	-0.182164	-0.120855	9.798379				-0.003576	0.000140	0.000277				-0.737841	1.074801	-44.865195
00844	274998	-0.192315	-0.107041	9.799625				-0.003600	-0.000350	-0.001491				-0.736545	1.074279	-44.866911
00845	275048	-0.174712	-0.102731	9.796900				-0.003982	-0.002360	0.000297				-0.737684	1.073604	-44.866816
00846	275098	-0.182940	-0.117106	9.800062				-0.003030	0.000886	-0.001805				-0.736226	1.073440	-44.869465
00847	275148	-0.185775	-0.099985	9.795998				-0.003188	0.000785	-0.003509				-0.737158	1.073652	-44.870467
00848	275198	-0.171500	-0.114959	9.788262				-0.004409	0.000893	-0.002283				-0.736100	1.073483	-44.872285
00849	275248	-0.179419	-0.109079	9.792132				-0.001638	-0.000538	-0.000694				-0.736573	1.073326	-44.872474
00850	275298	-0.185945	-0.111697	9.802712				-0.001479	0.000764	0.002904				-0.734650	1.073128	-44.870500
00851	275348	-0.195234	-0.123374	9.799168				-0.003253	-0.000089	-0.001907				-0.735592	1.073096	-44.871041
00852	275398	-0.192000	-0.096930	9.793632				-0.002862	0.001732	-0.001290				-0.734089	1.073157	-44.869644
00853	275448	-0.177370	-0.112613	9.805790				-0.003318	0.003213	0.000517				-0.735036	1.074079	-44.869503
00854	275498	-0.201056	-0.100350	9.802547				-0.005877	0.001772	-0.003585				-0.734411	1.074131	-44.866323
00855	275548	-0.212952	-0.096928	9.806199				-0.001451	-0.000443	-0.002327				-0.734839	1.073996	-44.866985
00856	275598	-0.192127	-0.104083	9.801546				-0.006419	-0.000078	-0.000229				-0.734351	1.073536	-44.863860
00857	275648	-0.199746	-0.105232	9.794867				0.000084	0.000550	-0.003836				-0.734347	1.073680	-44.864958
00858	275698	-0.199670	-0.094222	9.789114				-0.004029	0.003099	-0.003234				-0.733188	1.074130	-44.864858
00859	275748	-0.178396	-0.110103	9.808183				-0.003719	0.002493	-0.000770				-0.734258	1.074841	-44.865078
00860	275798	-0.182253	-0.115525	9.796227				-0.000760	0.001790	-0.005464				-0.732174	1.074913	-44.866738
00861	275848	-0.188527	-0.105735	9.794814				-0.002185	0.000902	0.001881				-0.732790	1.075178	-44.866198
00862	275898	-0.198903	-0.110562	9.787912				-0.005284	0.000131	-0.003791				-0.731992	1.074786	-44.868488
00863	275948	-0.195617	-0.099704	9.784067				-0.004029	-0.000612	0.001304				-0.733139	1.074616	-44.868106
00864	275998	-0.175468	-0.107896	9.807687				-0.002196	-0.000070	-0.001400				-0.731441	1.074187	-44.871924
00865	276048	-0.180653	-0.107346	9.794778				-0.005690	0.001805	-0.003011				-0.733087	1.074693	-44.872790
00866	276098	-0.205068	-0.105737	9.798014				-0.002661	0.001739	0.000639				-0.731516	1.074769	-44.871997
00867	276148	-0.186997	-0.101659	9.783779				-0.002699	-0.002372	-0.000635				-0.732293	1.074088	-44.872170
00868	276198	-0.191161	-0.113807	9.805857				-0.005439	0.003237	-0.001977				-0.731530	1.074591	-44.873597
00869	276248	-0.172255	-0.121041	9.818225				-0.000887	0.000791	-0.003931				-0.731806	1.074803	-44.874730
00870	276298	-0.199664	-0.093194	9.806850				-0.002433	0.000280	-0.002738				-0.730188	1.074450	-44.874818
00871	276348	-0.188956	-0.097963	9.799605				-0.003998	0.001388	0.000030				-0.731333	1.074847	-44.874807
00872	276398	-0.190892	-0.098948	9.807044				-0.000656	0.003963	-0.002562				-0.729206	1.075550	-44.874938
00873	276448	-0.170695	-0.130630	9.792336				-0.004043	-0.003559	-0.000930				-0.730369	1.074527	-44.875195
00874	276498	-0.206319	-0.106990	9.790820				0.001703	-0.000609	0.001094				-0.727545	1.073940	-44.875822
00875	276548	-0.195108	-0.107196	9.789574				-0.003503	0.000587	-0.002512				-0.728562	1.074099	-44.876544
00876	276598	-0.189012	-0.105627	9.788343				-0.003798	0.000940	-0.001388				-0.727334	1.073916	-44.871307
00877	276648	-0.191158	-0.109917	9.802251				-0.004368	0.001407	-0.004812				-0.728611	1.074302	-44.872682
00878	276698	-0.164428	-0.114120	9.805000				-0.004108	0.000544	-0.001517				-0.727471	1.074014	-44.869368
00879	276748	-0.181688	-0.126915	9.803650				-0.005040	0.000691	-0.001837				-0.728925	1.074205	-44.869887
00880	276798	-0.181525	-0.109755	9.797652				-0.004667	-0.000820	0.000532				-0.727933	1.073544	-44.868036
00881	276848	-0.208642	-0.104842	9.769993				-0.002262	-0.000105	-0.001653				-0.728589	1.073508	-44.868502
00882	276898	-0.191392	-0.102542	9.802978				-0.001373	-0.002764	0.000673				-0.726654	1.072289	-44.866482
00883	276948	-0.192447	-0.120351	9.806819				-0.001359	-0.000021	0.000621				-0.727040	1.072285	-44.866304
00884	276998	-0.181888	-0.099409	9.786633				-0.004364	0.001577	-0.001570				-0.725977	1.072286	-44.861378
00885	277048	-0.195170	-0.106195	9.787661				-0.005429	0.001916	-0.000285				-0.727534	1.072834	-44.861466
00886	277098	-0.185721	-0.104962	9.807499				-0.004318	-0.000883	-0.001524				-0.726457	1.072130	-44.856490
00887	277148	-0.183389	-0.122465	9.802463				-0.008312	0.001925	-0.001080				-0.728844	1.072677	-44.856799
00888	277198	-0.188120	-0.089303	9.778991				-0.001658	0.000231	0.000275				-0.726988	1.072339	-44.859770
00889	277248	-0.173196	-0.113111	9.794737				-0.003641	0.001942	-0.002344				-0.728044	1.072887	-44.860446
00890	277298	-0.196949	-0.103946	9.808997				-0.004639	0.000013	-0.003729				-0.727066	1.072460	-44.862230
00891	277348	-0.180965	-0.108761	9.793338				-0.004420	0.003248	-0.003424				-0.728351	1.073378	-44.863227
00892	277398	-0.192045	-0.113171	9.791473				-0.008255	0.003188	-0.001521				-0.728405	1.073829	-44.855937
00893	277448	-0.177848	-0.121726	9.793804				-0.004961	0.000176	-0.000618				-0.729830	1.073877	-44.856110
00894	277498	-0.185780	-0.112776	9.811811				-0.001948	0.004367	-0.001051				-0.728063	1.074727	-44.861245
00895	277548	-0.183710	-0.109866	9.799341				-0.008142	-0.001591	-0.001548				-0.730404	1.074266	-44.861681
00896	277598	-0.197314	-0.114595	9.799172				-0.000589	0.002805	-0.002599				-0.728263	1.074633	-44.860963
00897	277648	-0.191789	-0.116406	9.806811				-0.002492	-0.000818	-0.002746				-0.728992	1.074388	-44.861750
00898	277698	-0.178409	-0.107578	9.815609				-0.002982	0.001302	-0.002766				-0.727537	1.074334	-44.863185
00899	277748	-0.185999	-0.105819	9.802950				-0.002185	0.002453	-0.001863				-0.728173	1.075029	-44.863720
00900	277798	-0.175584	-0.119313	9.792356				-0.002667	-0.003008	0.004170				-0.726587	1.073775	-44.865231
00901	277848	-0.177179	-0.103507	9.798350				-0.003283	0.002585	-0.005294				-0.727557	1.074496	-44.866761
00902	277898	-0.193711	-0.114537	9.798440				0.000460	0.002111	-0.001711				-0.725115	1.074657	-44.863387
00903	277948	-0.187130	-0.105096	9.798399				-0.006150	0.000251	-0.001030				-0.726882	1.074725	-44.863681
00904	277998	-0.190547	-0.098445	9.797458				-0.003681	0.000998	-0.004623				-0.725632	1.074605	-44.871696
00905	278048	-0.185404	-0.111533	9.793360				0.000187	0.002788	-0.000456				-0.725581	1.075402	-44.871848
00906	278098	-0.184296	-0.113062	9.783530				-0.001188	-0.000405	0.000111				-0.723593	1.074893	-44.877488
00907	278148	-0.178534	-0.123012	9.788780				-0.002319	0.001808	-0.001002				-0.724263	1.075407	-44.877786
00908	278198	-0.185954	-0.127786	9.796243				-0.003780	0.001291	-0.001869				-0.723040	1.075318	-44.871611
00909	278248	-0.183278	-0.120875	9.783760				-0.002806	0.000890	-0.002543				-0.723857	1.075564	-44.872339
00910	278298	-0.173631	-0.113851	9.794023				-0.004915	0.000689	-0.002699				-0.722955	1.075348	-44.876763
00911	278348	-0.201593	-0.105337	9.791042				-0.002308	0.000151	-0.005051				-0.723644	1.075373	-44.878211
00912	278398	-0.184918	-0.112319	9.784013				-0.000134	-0.002749	-0.002056				-0.721378	1.074127	-44.872465
00913	278448	-0.179671	-0.105889	9.802203				-0.001564	-0.002930	-0.000548				-0.721829	1.073286	-44.872616
00914	278498	-0.205138	-0.110628	9.785789				-0.004794	0.002153	0.000133				-0.720882	1.073473	-44.870569
00915	278548	-0.193884	-0.117085	9.787418				-0.003010	0.002307	-0.002537				-0.721758	1.074124	-44.871296
00916	278598	-0.174495	-0.127704	9.799779				-0.001917	0.002369	-0.000103				-0.719988	1.074383	-44.871468
00917	278648	-0.203525	-0.109497	9.799208				-0.003047	0.001499	-0.002473				-0.720874	1.074804	-44.872185
00918	278698	-0.195500	-0.120225	9.793897				-0.001808	0.000979	0.000247				-0.719067	1.074685	-44.876273
00919	278748	-0.194340	-0.101429	9.805392				-0.002863	0.000691	-0.002482				-0.719900	1.074874	-44.876982
00920	278798	-0.196525	-0.104079	9.810431				-0.000951	0.001153	-0.000750				-0.717856	1.074791	-44.879076
00921	278848	-0.179629	-0.115674	9.790456				-0.001474	0.002529	-0.001708				-0.718288	1.075509	-44.879569
00922	278898	-0.212104	-0.102216	9.792771				-0.004280	-0.001168	-0.001233				-0.717213	1.074697	-44.868891
00923	278948	-0.175764	-0.114292	9.795228				-0.000343	-0.000074	-0.003520				-0.717330	1.074664	-44.869898
00924	278998	-0.196935	-0.103389	9.798210				-0.006682	0.002082	-0.000153				-0.716931	1.074820	-44.865864
00925	279048	-0.188411	-0.101207	9.807516				-0.006308	0.000282	-0.001573				-0.718746	1.074895	-44.866309
00926	279098	-0.180372	-0.107181	9.792370				-0.001050	0.000249	-0.000311				-0.716731	1.074548	-44.866844
00927	279148	-0.164283	-0.120975	9.795648				0.000154	-0.000579	-0.003172				-0.716703	1.074371	-44.867747
00928	279198	-0.185412	-0.096892	9.806779				-0.005016	0.001951	-0.002789				-0.715842	1.074480	-44.864338
00929	279248	-0.193971	-0.100554	9.797476				-0.000698	-0.001981	-0.002342				-0.716055	1.073905	-44.864997
00930	279298	-0.187567	-0.130099	9.808474				-0.003473	0.000680	-0.003315				-0.714756	1.073636	-44.859383
00931	279348	-0.185724	-0.125774	9.805589				-0.002444	0.000601	-0.002321				-0.715469	1.073800	-44.860046
00932	279398	-0.195373	-0.090159	9.793170				-0.004621	-0.000434	-0.002548				-0.714494	1.073229	-44.856995
00933	279448	-0.186955	-0.111088	9.787856				-0.004259	-0.000653	0.000049				-0.715714	1.073043	-44.856976
00934	279498	-0.173953	-0.135652	9.792109				-0.004394	0.005546	-0.003187				-0.714670	1.074217	-44.861603
00935	279548	-0.203349	-0.091970	9.811661				-0.006096	0.000576	-0.001635				-0.716425	1.074376	-44.862075
00936	279598	-0.200246	-0.104095	9.802544				-0.003719	0.000358	-0.002126				-0.715182	1.074069	-44.866277
00937	279648	-0.188021	-0.114546	9.793375				-0.005215	0.003309	0.000074				-0.716676	1.075017	-44.866269
00938	279698	-0.197130	-0.123439	9.785992				-0.002120	0.003615	-0.002113				-0.714986	1.075593	-44.859866
00939	279748	-0.187740	-0.113821	9.796968				-0.003950	0.001480	-0.004046				-0.716139	1.076002	-44.861015
00940	279798	-0.180312	-0.108977	9.813220				-0.001449	0.000494	-0.003418				-0.714257	1.075718	-44.863166
00941	279848	-0.206091	-0.099990	9.803530				-0.006237	0.003056	-0.002173				-0.716055	1.076586	-44.863796
00942	279898	-0.196129	-0.118619	9.775448				-0.004653	0.001314	-0.003774				-0.715095	1.076534	-44.865904
00943	279948	-0.193673	-0.097998	9.795320				-0.006086	0.003128	-0.003793				-0.716859	1.077416	-44.866995
00944	279998	-0.192019	-0.100879	9.823100				0.000028	-0.002002	-0.004509				-0.714562	1.076400	-44.866513
00945	280048	-0.169426	-0.129915	9.794967				-0.004833	-0.000075	-0.002888				-0.715962	1.076368	-44.867335
00946	280098	-0.192173	-0.102222	9.794113				-0.004643	0.002089	-0.002997				-0.714997	1.076529	-44.866543
00947	280148	-0.193393	-0.115778	9.794364				-0.005524	0.001820	-0.000368				-0.716581	1.077049	-44.866644
00948	280198	-0.175129	-0.131700	9.809373				-0.005203	-0.002278	0.000761				-0.715758	1.075964	-44.862921
00949	280248	-0.188922	-0.100579	9.827891				-0.006063	-0.002718	-0.002249				-0.717507	1.075178	-44.863555
00950	280298	-0.193660	-0.112446	9.783576				-0.002544	0.002073	0.001259				-0.715919	1.075342	-44.860005
00951	280348	-0.183877	-0.119088	9.804384				-0.003101	-0.000178	-0.002629				-0.716822	1.075282	-44.860756
00952	280398	-0.183662	-0.115269	9.795030				-0.007137	0.001883	-0.004083				-0.716577	1.075385	-44.861444
00953	280448	-0.195217	-0.104119	9.790293				-0.005738	0.000557	0.000845				-0.718216	1.075548	-44.861199
00954	280498	-0.188385	-0.116634	9.795056				-0.003802	0.001011	-0.000250				-0.716994	1.075424	-44.862651
00955	280548	-0.178511	-0.141412	9.795964				-0.004154	0.000904	-0.000667				-0.718188	1.075681	-44.862833
00956	280598	-0.191507	-0.109217	9.793158				-0.001217	-0.002753	0.000463				-0.716222	1.074480	-44.863710
00957	280648	-0.192687	-0.102264	9.808968				-0.004431	0.000444	-0.001951				-0.717502	1.074600	-44.864264
00958	280698	-0.193389	-0.097916	9.789804				-0.005613	0.001596	-0.001010				-0.716802	1.074655	-44.868713
00959	280748	-0.188313	-0.110302	9.814951				-0.003947	-0.001746	-0.002573				-0.717946	1.074146	-44.869438
00960	280798	-0.190360	-0.101910	9.775649				-0.003461	0.000368	-0.001151				-0.716639	1.073805	-44.864913
00961	280848	-0.188673	-0.114890	9.799373				-0.006241	0.002097	-0.001262				-0.718433	1.074402	-44.865276
00962	280898	-0.169932	-0.111480	9.798074				-0.002784	0.001320	0.000197				-0.716920	1.074365	-44.865832
00963	280948	-0.187712	-0.110218	9.811821				-0.001368	0.002855	-0.003007				-0.717328	1.075172	-44.866699
00964	280998	-0.179119	-0.122052	9.802916				-0.000854	0.001669	-0.004392				-0.715289	1.075202	-44.864983
00965	281048	-0.198085	-0.088457	9.799886				-0.006350	0.001680	0.000341				-0.717107	1.075684	-44.864876
00966	281098	-0.186682	-0.101745	9.794318				-0.006110	0.001033	-0.000562				-0.716551	1.075563	-44.865759
00967	281148	-0.205269	-0.087250	9.811907				-0.004114	-0.000255	-0.001343				-0.717737	1.075485	-44.866141
00968	281198	-0.178782	-0.106382	9.804347				-0.002028	-0.001183	0.001724				-0.715998	1.074737	-44.866221
00969	281248	-0.198162	-0.101988	9.776405				-0.001398	-0.001407	-0.003473				-0.716417	1.074321	-44.867212
00970	281298	-0.165053	-0.129150	9.809553				-0.002533	0.003225	-0.003289				-0.714850	1.074825	-44.870469
00971	281348	-0.191878	-0.094240	9.811839				-0.005835	0.000192	-0.004064				-0.716543	1.074866	-44.871628
00972	281398	-0.178196	-0.125215	9.806028				-0.003502	0.003368	-0.005499				-0.715266	1.075401	-44.875040
00973	281448	-0.182103	-0.131518	9.812524				-0.002345	0.001492	-0.000056				-0.715938	1.075828	-44.875062
00974	281498	-0.185322	-0.098828	9.795747				-0.002618	-0.000107	-0.002956				-0.714398	1.075360	-44.874088
00975	281548	-0.186471	-0.104416	9.799596				-0.004953	0.000859	-0.001018				-0.715822	1.075602	-44.874381
00976	281598	-0.192271	-0.096095	9.798426				-0.003140	0.001144	-0.003524				-0.714433	1.075499	-44.875597
00977	281648	-0.197455	-0.117910	9.796540				-0.002858	0.001610	-0.000343				-0.715254	1.075959	-44.875699
00978	281698	-0.201058	-0.105615	9.781935				-0.001540	0.001369	-0.001727				-0.713399	1.075918	-44.874535
00979	281748	-0.155654	-0.139524	9.799680				-0.001228	-0.002861	-0.003487				-0.713769	1.075086	-44.875520
00980	281798	-0.183530	-0.120854	9.787119				-0.000968	0.000443	-0.002346				-0.711752	1.074787	-44.876484
00981	281848	-0.183827	-0.121653	9.800778				-0.002884	-0.000722	-0.000513				-0.712581	1.074579	-44.876621
00982	281898	-0.210450	-0.112886	9.800671				-0.000960	0.003222	-0.003002				-0.710559	1.075110	-44.885484
00983	281948	-0.189051	-0.111316	9.804643				-0.002465	0.002291	-0.001146				-0.711271	1.075762	-44.885816
00984	281998	-0.190923	-0.106652	9.793626				-0.003059	0.001863	-0.001462				-0.709849	1.075880	-44.887898
00985	282048	-0.205466	-0.107284	9.805205				-0.006048	0.000801	-0.003739				-0.711602	1.076096	-44.888973
00986	282098	-0.192285	-0.103110	9.811129				-0.000937	0.001643	-0.000383				-0.709572	1.076124	-44.884114
00987	282148	-0.209332	-0.105207	9.808333				-0.001447	-0.000562	-0.000679				-0.709990	1.075961	-44.884310
00988	282198	-0.189496	-0.111222	9.798408				-0.002842	0.001993	-0.002556				-0.708510	1.076123	-44.888918
00989	282248	-0.184382	-0.121107	9.812288				-0.002817	0.000153	-0.000518				-0.709320	1.076165	-44.889064
00990	282298	-0.187160	-0.112054	9.805831				-0.003544	0.002853	-0.002774				-0.708048	1.076549	-44.888706
00991	282348	-0.191258	-0.115306	9.793870				-0.003501	-0.000434	0.000031				-0.709051	1.076425	-44.888698
00992	282398	-0.190908	-0.110075	9.801533				-0.001536	0.001279	0.000035				-0.707190	1.076359	-44.885562
00993	282448	-0.189952	-0.098167	9.820943				-0.006127	-0.002424	-0.000263				-0.708946	1.075664	-44.885629
00994	282498	-0.208388	-0.097301	9.793231				-0.008440	0.000534	-0.004023				-0.709089	1.075350	-44.879299
00995	282548	-0.196400	-0.118604	9.792463				-0.002326	-0.000224	-0.001545				-0.709764	1.075281	-44.879743
00996	282598	-0.184888	-0.116672	9.802466				-0.002270	0.000998	-0.003913				-0.708137	1.075113	-44.876018
00997	282648	-0.203132	-0.106735	9.802797				-0.003068	0.001055	-0.001470				-0.709024	1.075410	-44.876447
00998	282698	-0.183605	-0.119499	9.788797				-0.001466	0.002088	-0.000086				-0.707147	1.075569	-44.871764
00999	282748	-0.174437	-0.105966	9.791868				-0.003745	-0.000598	0.002918				-0.708204	1.075407	-44.870925
01000	282798	-0.182587	-0.107786	9.778971				-0.004405	0.006041	-0.001696				-0.707177	1.076694	-44.866867
01001	282848	-0.191173	-0.093073	9.816628				-0.004327	-0.001487	0.000992				-0.708411	1.076272	-44.866572
01002	282898	-0.182303	-0.109144	9.807728				-0.002346	-0.001545	0.000916				-0.706775	1.075419	-44.866913
01003	282948	-0.184959	-0.105038	9.802462				-0.001055	-0.000010	-0.002670				-0.707092	1.075406	-44.867672
01004	282998	-0.174621	-0.112797	9.797142				-0.006375	0.000216	-0.003171				-0.706635	1.075031	-44.866805
01005	283048	-0.182609	-0.111230	9.802217				-0.003709	0.003114	-0.000781				-0.707702	1.075921	-44.867036
01006	283098	-0.181303	-0.101629	9.812030				-0.003733	-0.000386	-0.004076				-0.706492	1.075382	-44.868977
01007	283148	-0.190867	-0.109963	9.794347				-0.002836	0.001734	-0.003487				-0.707323	1.075866	-44.869983
01008	283198	-0.171689	-0.137243	9.793533				-0.002642	0.001007	0.002152				-0.705765	1.075760	-44.872651
01009	283248	-0.199333	-0.096008	9.790310				0.000225	0.000603	0.003202				-0.705683	1.075944	-44.871736
01010	283298	-0.189982	-0.111034	9.796019				-0.005887	0.003006	-0.002573				-0.705074	1.076420	-44.881072
01011	283348	-0.190267	-0.114801	9.795063				-0.005381	-0.000898	-0.002532				-0.706629	1.076154	-44.881785
01012	283398	-0.179683	-0.106931	9.798365				-0.006544	-0.001660	-0.003018				-0.706221	1.075248	-44.882237
01013	283448	-0.182362	-0.106789	9.804609				-0.005702	-0.000573	0.001449				-0.707846	1.075089	-44.881819
01014	283498	-0.185097	-0.123377	9.797200				-0.006854	0.005184	-0.002881				-0.707542	1.076067	-44.865799
01015	283548	-0.191447	-0.104121	9.799378				-0.000915	0.001768	-0.002851				-0.707819	1.076564	-44.866624
01016	283598	-0.183453	-0.107749	9.794545				-0.000554	-0.000516	-0.000715				-0.705677	1.076026	-44.873250
01017	283648	-0.200979	-0.108625	9.802547				-0.003436	0.002468	-0.002484				-0.706675	1.076724	-44.873970
01018	283698	-0.192771	-0.109287	9.785485				-0.007321	0.003182	0.000832				-0.706469	1.077222	-44.874111
01019	283748	-0.192300	-0.106841	9.791948				-0.002986	-0.000495	-0.000738				-0.707329	1.077078	-44.874321
01020	283798	-0.197915	-0.120394	9.799421				-0.005045	0.000925	0.000204				-0.706490	1.076845	-44.856839
01021	283848	-0.187716	-0.102101	9.811826				-0.002253	0.001616	-0.002044				-0.707147	1.077300	-44.857431
01022	283898	-0.194375	-0.110698	9.798677				-0.007390	-0.001121	-0.000446				-0.706970	1.076554	-44.856182
01023	283948	-0.176599	-0.113433	9.795231				-0.003719	0.002497	-0.001337				-0.708043	1.077265	-44.856563
01024	283998	-0.188235	-0.107358	9.796247				-0.001539	0.000244	-0.001094				-0.706194	1.076907	-44.855630
01025	284048	-0.183115	-0.127357	9.804366				-0.001173	-0.000435	-0.004406				-0.706553	1.076767	-44.856896
01026	284098	-0.194704	-0.129599	9.800117				-0.001952	-0.000898	-0.002609				-0.704837	1.076047	-44.849794
01027	284148	-0.197225	-0.117728	9.806362				-0.006040	0.000611	-0.003131				-0.706584	1.076211	-44.850694
01028	284198	-0.184031	-0.115228	9.809652				-0.006693	0.002449	0.000279				-0.706206	1.076488	-44.848649
01029	284248	-0.195843	-0.111141	9.786225				-0.004586	0.000546	-0.000700				-0.707523	1.076642	-44.848854
01030	284298	-0.168519	-0.129588	9.773386				-0.004674	0.001125	-0.000855				-0.706581	1.076495	-44.838627
01031	284348	-0.185396	-0.111300	9.805581				-0.001319	-0.000433	0.000350				-0.706957	1.076373	-44.838524
01032	284398	-0.191129	-0.115607	9.801536				-0.003572	0.003756	-0.003280				-0.705702	1.077028	-44.841370
01033	284448	-0.177712	-0.105969	9.793800				0.000273	0.003692	-0.004163				-0.705647	1.078071	-44.842582
01034	284498	-0.171136	-0.118805	9.791859				-0.005545	-0.001063	-0.003336				-0.704958	1.077341	-44.844431
01035	284548	-0.200875	-0.106722	9.785531				-0.004987	0.002725	-0.005431				-0.706416	1.078103	-44.845991
01036	284598	-0.182443	-0.119603	9.808208				-0.004906	-0.001019	-0.004233				-0.705553	1.077370	-44.845373
01037	284648	-0.190669	-0.104935	9.785717				-0.005363	0.001591	-0.003646				-0.707109	1.077813	-44.846419
01038	284698	-0.181263	-0.103176	9.793338				-0.001939	0.003986	0.000112				-0.705368	1.078550	-44.849041
01039	284748	-0.200665	-0.110772	9.802309				-0.003881	0.001463	-0.000887				-0.706485	1.078966	-44.849303
01040	284798	-0.166936	-0.120030	9.801900				-0.003196	-0.001246	-0.002867				-0.705125	1.078169	-44.847301
01041	284848	-0.196015	-0.098945	9.794130				-0.005260	0.001267	-0.004126				-0.706654	1.078517	-44.848479
01042	284898	-0.185418	-0.113454	9.803423				-0.004428	0.001780	0.002579				-0.705617	1.078616	-44.847121
01043	284948	-0.204292	-0.113486	9.815023				-0.007944	0.001425	0.001241				-0.707886	1.079028	-44.846758
01044	284998	-0.179927	-0.112772	9.809147				-0.007267	-0.000931	-0.002242				-0.707685	1.078347	-44.849782
01045	285048	-0.194270	-0.108563	9.779499				-0.000024	0.006147	-0.002861				-0.707708	1.080098	-44.850621
01046	285098	-0.185993	-0.114339	9.790007				0.000107	0.000042	-0.000299				-0.705389	1.079682	-44.848587
01047	285148	-0.195403	-0.106547	9.806835				-0.006630	-0.000081	-0.004577				-0.707313	1.079643	-44.849891
01048	285198	-0.172977	-0.117265	9.801208				-0.004312	0.001707	-0.004128				-0.706279	1.079698	-44.850559
01049	285248	-0.183297	-0.112574	9.802210				-0.000735	0.002027	-0.005060				-0.706517	1.080260	-44.852014
01050	285298	-0.197799	-0.091527	9.812109				0.000334	-0.001379	-0.003704				-0.704153	1.079423	-44.850486
01051	285348	-0.185999	-0.123720	9.804632				-0.005900	0.002357	-0.002802				-0.705859	1.080088	-44.851291
01052	285398	-0.186146	-0.109702	9.809424				-0.002757	-0.000752	-0.001000				-0.704363	1.079452	-44.851530
01053	285448	-0.184467	-0.105433	9.812283				-0.002538	0.003419	-0.004411				-0.705114	1.080416	-44.852800
01054	285498	-0.200278	-0.100640	9.801581				-0.006801	0.001370	-0.004278				-0.704794	1.080382	-44.855284
01055	285548	-0.197393	-0.099283	9.796773				-0.004703	-0.001142	-0.002214				-0.706153	1.080047	-44.855914
01056	285598	-0.196627	-0.119263	9.786466				-0.004858	-0.000372	-0.002880				-0.705272	1.079504	-44.854657
01057	285648	-0.196319	-0.114598	9.799645				-0.001958	0.001167	-0.003786				-0.705853	1.079825	-44.855744
01058	285698	-0.172240	-0.127129	9.812236				-0.003625	0.002431	-0.002874				-0.704616	1.080104	-44.858659
01059	285748	-0.181145	-0.110221	9.788304				-0.000478	0.003434	0.000203				-0.704752	1.081088	-44.858611
01060	285798	-0.180661	-0.119969	9.780637				-0.007692	0.000226	-0.002552				-0.704681	1.080723	-44.858549
01061	285848	-0.171606	-0.117885	9.802877				-0.000818	0.003805	-0.003230				-0.704933	1.081802	-44.859481
01062	285898	-0.179551	-0.100224	9.793326				-0.006989	0.001737	0.001493				-0.704637	1.081895	-44.860801
01063	285948	-0.182656	-0.123348	9.801256				-0.004558	0.000244	-0.005419				-0.705972	1.081946	-44.862348
01064	285998	-0.188118	-0.113945	9.790981				-0.002846	-0.001209	-0.002830				-0.704517	1.081162	-44.861058
01065	286048	-0.184747	-0.108601	9.799105				-0.003319	0.000858	-0.000189				-0.705469	1.081407	-44.861116
01066	286098	-0.195008	-0.101733	9.795327				-0.001593	0.000148	0.001024				-0.703632	1.081035	-44.860661
01067	286148	-0.186562	-0.122189	9.786898				-0.002105	-0.001132	-0.002383				-0.704247	1.080702	-44.861340
01068	286198	-0.176141	-0.122732	9.798347				-0.006067	-0.001586	-0.001894				-0.703709	1.079818	-44.860760
01069	286248	-0.183832	-0.114750	9.800784				-0.003354	-0.003282	-0.001591				-0.704679	1.078872	-44.861210
01070	286298	-0.197078	-0.096725	9.797976				-0.007357	0.001912	-0.002708				-0.704512	1.079003	-44.864212
01071	286348	-0.173723	-0.113982	9.803367				-0.003139	0.001282	-0.000827				-0.705416	1.079367	-44.864445
01072	286398	-0.187896	-0.108494	9.817575				-0.007512	-0.001252	-0.000862				-0.705285	1.078591	-44.865535
01073	286448	-0.184271	-0.110666	9.809892				-0.003956	-0.000254	-0.001027				-0.706424	1.078515	-44.865831
01074	286498	-0.188219	-0.115302	9.799128				-0.004261	0.002756	0.002586				-0.705344	1.078899	-44.866028
01075	286548	-0.172096	-0.117214	9.796413				-0.005809	0.006559	-0.003647				-0.707028	1.080765	-44.867093
01076	286598	-0.177981	-0.113029	9.799318				-0.003959	0.001110	0.002090				-0.705874	1.080631	-44.857679
01077	286648	-0.184152	-0.110998	9.781604				-0.004819	0.001603	-0.003611				-0.707274	1.081077	-44.858720
01078	286698	-0.181765	-0.124901	9.781850				-0.003141	0.002311	-0.000694				-0.705894	1.081313	-44.857647
01079	286748	-0.185637	-0.108986	9.788335				-0.003664	0.001854	-0.000532				-0.706946	1.081842	-44.857791
01080	286798	-0.200024	-0.098508	9.797260				-0.002384	-0.000388	-0.000777				-0.705350	1.081303	-44.856857
01081	286848	-0.186828	-0.106045	9.786417				-0.002373	0.000325	-0.001092				-0.706036	1.081393	-44.857166
01082	286898	-0.190781	-0.099604	9.800575				-0.001854	0.001135	-0.002436				-0.704298	1.081277	-44.854962
01083	286948	-0.193013	-0.106796	9.799395				-0.003137	-0.002791	0.001138				-0.705190	1.080482	-44.854629
01084	286998	-0.202993	-0.107275	9.792488				-0.002790	0.000085	-0.003814				-0.703723	1.080086	-44.858183
01085	287048	-0.185425	-0.110483	9.811093				-0.005560	-0.001022	0.001125				-0.705309	1.079798	-44.857859
01086	287098	-0.187788	-0.128899	9.793134				-0.001050	0.000891	-0.003047				-0.703344	1.079618	-44.857419
01087	287148	-0.184092	-0.117672	9.789279				-0.001743	0.002726	-0.001111				-0.703849	1.080395	-44.857753
01088	287198	-0.187058	-0.126356	9.795771				-0.003776	0.000073	-0.001439				-0.702653	1.080005	-44.860786
01089	287248	-0.177295	-0.112697	9.778456				-0.005058	-0.002730	0.001400				-0.704094	1.079227	-44.860379
01090	287298	-0.191255	-0.098760	9.816390				-0.005122	0.005081	-0.005452				-0.703310	1.080238	-44.860443
01091	287348	-0.192198	-0.107255	9.800582				-0.002763	0.002676	-0.001336				-0.704109	1.081000	-44.860835
01092	287398	-0.194466	-0.117403	9.815931				-0.000183	-0.000189	-0.002570				-0.701894	1.080511	-44.859942
01093	287448	-0.187325	-0.102905	9.816614				-0.001491	0.003432	-0.007713				-0.702362	1.081467	-44.862162
01094	287498	-0.188253	-0.115346	9.813506				-0.005922	0.000033	-0.003103				-0.701793	1.081049	-44.863453
01095	287548	-0.180248	-0.115767	9.793579				-0.002694	-0.000253	0.003399				-0.702547	1.080988	-44.862481
01096	287598	-0.176666	-0.110368	9.806018				-0.005757	0.001106	-0.000534				-0.701918	1.080877	-44.861095
01097	287648	-0.191386	-0.105851	9.802734				-0.003500	-0.000439	0.000065				-0.702921	1.080752	-44.861068
01098	287698	-0.184237	-0.107242	9.790003				-0.004178	0.001585	-0.001815				-0.701847	1.080773	-44.859812
01099	287748	-0.192107	-0.107615	9.805621				-0.004347	-0.000132	-0.001729				-0.703102	1.080729	-44.860305
01100	287798	-0.180475	-0.116901	9.784944				-0.004636	-0.000106	-0.001185				-0.702157	1.080268	-44.859036
01101	287848	-0.172261	-0.126938	9.827091				-0.004518	0.002615	0.000720				-0.703448	1.081020	-44.858837
01102	287898	-0.178894	-0.120900	9.798839				-0.004915	0.003000	0.000823				-0.702566	1.081489	-44.864026
01103	287948	-0.194442	-0.110926	9.798920				-0.004923	-0.000276	-0.003335				-0.703994	1.081398	-44.864978
01104	287998	-0.182727	-0.116174	9.800784				-0.002351	0.000683	-0.000960				-0.702401	1.081129	-44.856008
01105	288048	-0.203632	-0.109668	9.806390				-0.004975	0.002601	-0.002902				-0.703842	1.081864	-44.856839
01106	288098	-0.194806	-0.107411	9.802275				-0.005791	0.003005	-0.003857				-0.703244	1.082285	-44.856380
01107	288148	-0.183838	-0.103928	9.789277				-0.004378	0.005335	0.001475				-0.704491	1.083818	-44.855973
01108	288198	-0.189466	-0.114600	9.811594				-0.006878	-0.000143	-0.002427				-0.704198	1.083332	-44.852843
01109	288248	-0.194491	-0.107485	9.790523				-0.004692	0.002898	0.000243				-0.705541	1.084163	-44.852784
01110	288298	-0.181880	-0.118396	9.792867				-0.004741	-0.000722	-0.001056				-0.704625	1.083539	-44.854377
01111	288348	-0.176547	-0.135421	9.801227				-0.004627	0.000408	-0.004999				-0.705977	1.083639	-44.855805
01112	288398	-0.173955	-0.120955	9.802173				0.000945	0.003607	-0.004102				-0.703450	1.084243	-44.857976
01113	288448	-0.185988	-0.105529	9.794078				-0.005317	0.003437	-0.001674				-0.704983	1.085222	-44.858461
01114	288498	-0.187048	-0.109648	9.802239				-0.006054	-0.000972	-0.003141				-0.704457	1.084507	-44.857997
