// General information: 
//  MT Manager version: 2022.0.0 
//  XDA version: 2022.0.0 build 7085 rev 119802 built on 2022-11-08
// Device information: 
//  DeviceId: 037004D1
//  ProductCode: MTi-300-2A5G4
//  Firmware Version: 1.4.1
//  Hardware Version: 2.1.0
// Device settings: 
//  Filter Profile: general(39.16)
//  Option Flags: Orientation Smoother Disabled, Position/Velocity Smoother Disabled, Continuous Zero Rotation Update Disabled, AHS Disabled, ICC Disabled
// Coordinate system: ENU
PacketCounter	SampleTimeFine	Acc_X	Acc_Y	Acc_Z	AccHR_X	AccHR_Y	AccHR_Z	Gyr_X	Gyr_Y	Gyr_Z	GyrHR_X	GyrHR_Y	GyrHR_Z	Roll	Pitch	Yaw
00001	16891212	-9.808709	-0.206166	-0.265629				-0.004257	0.002650	0.001112				-139.738579	88.049496	-83.902359
00002	16891262	-9.811239	-0.205457	-0.281639				-0.003052	0.000927	0.002126				-139.766185	88.050663	-83.931101
00003	16891312	-9.811174	-0.202576	-0.258693				-0.000894	0.002512	-0.000600				-139.776209	88.050027	-83.940866
00004	16891362	-9.789278	-0.218403	-0.264439				-0.005435	-0.000160	-0.003745				-139.761155	88.049632	-83.926469
00005	16891412	-9.796110	-0.223097	-0.227418				-0.004389	-0.002857	-0.004631				-139.716828	88.049393	-83.880865
00006	16891462	-9.797813	-0.211101	-0.246690				-0.001442	0.001401	-0.001696				-139.722460	88.049670	-83.888067
00007	16891512	-9.798553	-0.209307	-0.245010				-0.003215	-0.000411	-0.003304				-139.699943	88.049010	-83.864664
00008	16891562	-9.792295	-0.225542	-0.262944				-0.005936	-0.001489	-0.001472				-139.692306	88.049614	-83.857426
00009	16891612	-9.800872	-0.207160	-0.259819				-0.006366	-0.002145	-0.003625				-139.658837	88.049558	-83.822056
00010	16891662	-9.801667	-0.208381	-0.244706				-0.003418	-0.001098	-0.004555				-139.633030	88.049699	-83.797321
00011	16891712	-9.798441	-0.193928	-0.256854				-0.003635	0.002818	-0.003445				-139.627305	88.048622	-83.790490
00012	16891762	-9.811612	-0.227467	-0.253594				-0.003935	0.000931	-0.005186				-139.608381	88.047766	-83.772626
00013	16891812	-9.793811	-0.227286	-0.245322				-0.005143	0.002819	-0.004180				-139.598410	88.046388	-83.761169
00014	16891862	-9.819516	-0.201416	-0.260478				0.000875	0.000317	-0.000839				-139.603178	88.046495	-83.768396
00015	16891912	-9.804664	-0.220819	-0.273455				-0.005068	-0.000767	-0.004133				-139.574079	88.045880	-83.737837
00016	16891962	-9.812757	-0.213621	-0.250903				-0.003259	0.000011	-0.002529				-139.566710	88.046249	-83.731549
00017	16892012	-9.807912	-0.198080	-0.255784				-0.002637	0.000707	-0.001533				-139.561793	88.045636	-83.725933
00018	16892062	-9.811352	-0.211265	-0.251927				-0.000970	0.002566	-0.004353				-139.556247	88.045094	-83.722086
00019	16892112	-9.804838	-0.214821	-0.257700				-0.005388	0.000525	-0.001881				-139.548484	88.044756	-83.712739
00020	16892162	-9.788226	-0.230195	-0.255594				-0.004370	0.000097	0.001767				-139.569531	88.045734	-83.734614
00021	16892212	-9.807056	-0.210914	-0.252862				-0.001619	-0.001061	-0.002090				-139.550880	88.045724	-83.715442
00022	16892262	-9.803893	-0.211702	-0.263096				-0.004470	-0.001173	-0.002690				-139.536942	88.045795	-83.702399
00023	16892312	-9.811104	-0.209429	-0.256228				-0.002214	-0.000321	0.001603				-139.545847	88.046287	-83.710632
00024	16892362	-9.788416	-0.240951	-0.241744				-0.000863	0.003546	-0.000723				-139.569047	88.046040	-83.735694
00025	16892412	-9.808456	-0.210088	-0.259301				-0.005207	-0.000087	-0.001051				-139.563454	88.045692	-83.728661
00026	16892462	-9.824494	-0.202735	-0.261480				-0.004704	0.003216	-0.003118				-139.570441	88.045147	-83.736406
00027	16892512	-9.787653	-0.217622	-0.258698				0.002011	-0.000110	0.001820				-139.580819	88.045562	-83.747353
00028	16892562	-9.814649	-0.213475	-0.252395				-0.006294	0.001297	0.002747				-139.615110	88.046193	-83.782031
00029	16892612	-9.797900	-0.213534	-0.265873				-0.001239	-0.001153	-0.004756				-139.578841	88.045348	-83.745458
00030	16892662	-9.794476	-0.222742	-0.262089				-0.006839	0.002857	-0.003660				-139.581174	88.045269	-83.747727
00031	16892712	-9.812796	-0.208795	-0.253314				-0.001797	0.000492	-0.001278				-139.576103	88.045072	-83.742090
00032	16892762	-9.793496	-0.224076	-0.263754				-0.001593	0.001010	-0.002272				-139.575676	88.044812	-83.743372
00033	16892812	-9.827499	-0.207879	-0.266188				-0.005889	0.002293	-0.002092				-139.576561	88.043918	-83.742575
00034	16892862	-9.818154	-0.211181	-0.267384				-0.002977	-0.001558	0.001985				-139.589624	88.045384	-83.756838
00035	16892912	-9.805330	-0.213236	-0.257995				-0.000506	0.004201	-0.002772				-139.594694	88.044011	-83.761747
00036	16892962	-9.799933	-0.223752	-0.262308				-0.004154	0.003001	-0.003120				-139.600666	88.043109	-83.768738
00037	16893012	-9.798883	-0.215919	-0.254795				-0.001989	-0.001383	0.000440				-139.596470	88.043446	-83.763982
00038	16893062	-9.799826	-0.217105	-0.256091				-0.004239	0.003070	0.000311				-139.624257	88.043873	-83.792557
00039	16893112	-9.802094	-0.227114	-0.253653				-0.004981	-0.000016	-0.000280				-139.623729	88.043762	-83.790625
00040	16893162	-9.800659	-0.224989	-0.257934				-0.007081	0.000337	-0.001685				-139.625190	88.043841	-83.792224
00041	16893212	-9.803354	-0.215347	-0.265335				-0.005598	0.000361	0.001136				-139.635801	88.044189	-83.801165
00042	16893262	-9.809349	-0.197120	-0.257662				-0.003307	0.000691	-0.001691				-139.638103	88.044208	-83.804670
00043	16893312	-9.788649	-0.219018	-0.248620				-0.001644	-0.000218	-0.000740				-139.632683	88.044019	-83.798810
00044	16893362	-9.813757	-0.188175	-0.255546				-0.003295	0.001372	-0.001464				-139.639685	88.044257	-83.806928
00045	16893412	-9.802135	-0.207313	-0.247904				-0.003957	0.001203	0.000715				-139.652156	88.044085	-83.818285
00046	16893462	-9.804152	-0.208458	-0.266527				-0.003502	-0.001183	0.000254				-139.656252	88.045180	-83.823406
00047	16893512	-9.812797	-0.219942	-0.269156				-0.006123	0.000675	0.000561				-139.664981	88.045229	-83.830357
00048	16893562	-9.805891	-0.204332	-0.263138				-0.005211	-0.001252	-0.003044				-139.648819	88.045351	-83.814855
00049	16893612	-9.791142	-0.210484	-0.248459				-0.003584	0.002531	-0.001103				-139.656432	88.044666	-83.821420
00050	16893662	-9.802936	-0.214114	-0.259310				-0.003605	-0.000289	-0.003140				-139.644125	88.044632	-83.810230
00051	16893712	-9.816420	-0.220239	-0.259949				-0.004945	-0.001507	-0.004230				-139.610279	88.044381	-83.774879
00052	16893762	-9.794237	-0.225282	-0.255547				-0.004593	-0.001538	-0.005169				-139.578218	88.044458	-83.743566
00053	16893812	-9.801914	-0.208406	-0.242298				-0.002041	-0.001000	-0.002252				-139.558781	88.044327	-83.723508
00054	16893862	-9.814021	-0.218786	-0.267432				-0.006522	-0.001047	-0.002591				-139.546985	88.044217	-83.712103
00055	16893912	-9.798800	-0.219713	-0.261745				-0.004708	-0.001759	-0.002151				-139.525014	88.044482	-83.688674
00056	16893962	-9.816751	-0.204452	-0.276970				-0.002684	-0.001717	0.000475				-139.527737	88.045659	-83.692717
00057	16894012	-9.817287	-0.206928	-0.264205				-0.005294	-0.002909	-0.004911				-139.482168	88.045286	-83.645634
00058	16894062	-9.814635	-0.222079	-0.276512				-0.005531	-0.001324	-0.003686				-139.460887	88.045730	-83.624795
00059	16894112	-9.808326	-0.197344	-0.268469				-0.003732	0.001267	0.001200				-139.476482	88.045644	-83.639343
00060	16894162	-9.809024	-0.198346	-0.269406				-0.002848	0.000311	-0.002304				-139.472331	88.045919	-83.636415
00061	16894212	-9.803882	-0.224967	-0.275966				-0.004269	0.001843	0.000208				-139.484619	88.045820	-83.647402
00062	16894262	-9.808731	-0.211621	-0.251907				-0.001606	0.001697	-0.000249				-139.501096	88.045979	-83.665529
00063	16894312	-9.815067	-0.207048	-0.276097				-0.004121	0.001296	-0.000082				-139.508877	88.045789	-83.672101
00064	16894362	-9.800500	-0.217347	-0.260797				-0.002768	-0.000437	-0.003978				-139.490310	88.045223	-83.655003
00065	16894412	-9.807604	-0.240021	-0.260517				-0.003608	-0.003262	-0.004055				-139.447862	88.045141	-83.611509
00066	16894462	-9.782388	-0.216477	-0.265166				-0.007601	-0.001252	0.002219				-139.465258	88.046403	-83.628851
00067	16894512	-9.805898	-0.205568	-0.260074				-0.004637	0.001215	-0.001045				-139.466624	88.046052	-83.628847
00068	16894562	-9.802699	-0.205808	-0.274916				-0.000393	-0.001358	-0.002002				-139.454562	88.046419	-83.618841
00069	16894612	-9.837193	-0.217089	-0.257458				-0.005171	-0.001246	-0.001178				-139.441847	88.046527	-83.604615
00070	16894662	-9.802457	-0.202418	-0.244290				-0.005510	0.000523	-0.001082				-139.447497	88.046690	-83.610828
00071	16894712	-9.811689	-0.208778	-0.239957				-0.003757	0.003916	-0.001479				-139.460441	88.045724	-83.622648
00072	16894762	-9.812131	-0.218008	-0.265841				-0.002922	0.002062	0.001650				-139.490826	88.046686	-83.654142
00073	16894812	-9.798554	-0.224012	-0.254498				-0.006891	0.004933	-0.000185				-139.518450	88.045711	-83.679765
00074	16894862	-9.804132	-0.215029	-0.256995				-0.002152	0.001684	-0.000408				-139.534210	88.045605	-83.697081
00075	16894912	-9.797802	-0.210575	-0.249233				-0.005744	-0.001322	-0.000703				-139.523924	88.045848	-83.685117
00076	16894962	-9.807021	-0.206838	-0.267809				-0.003185	0.004056	-0.000872				-139.550005	88.045232	-83.712464
00077	16895012	-9.794963	-0.215908	-0.273740				-0.005224	-0.002674	-0.002059				-139.523567	88.045465	-83.684502
00078	16895062	-9.805661	-0.220894	-0.265581				-0.002978	-0.000660	-0.001699				-139.518253	88.046045	-83.680385
00079	16895112	-9.800092	-0.234103	-0.255278				-0.003185	0.000692	-0.003201				-139.502745	88.045231	-83.663977
00080	16895162	-9.803096	-0.217063	-0.265836				-0.005019	0.000179	-0.002077				-139.499426	88.045505	-83.661284
00081	16895212	-9.799452	-0.207410	-0.259419				-0.000198	0.000548	-0.003210				-139.481932	88.044751	-83.643736
00082	16895262	-9.817905	-0.214196	-0.263348				-0.005838	0.000612	-0.001237				-139.487353	88.044853	-83.649685
00083	16895312	-9.809487	-0.212859	-0.280431				-0.005209	0.000045	-0.001436				-139.480169	88.044296	-83.641097
00084	16895362	-9.784666	-0.208162	-0.260422				-0.004384	0.001022	-0.004062				-139.468663	88.044618	-83.630170
00085	16895412	-9.785501	-0.218739	-0.257520				-0.003511	-0.000352	-0.004072				-139.442107	88.043844	-83.602619
00086	16895462	-9.801882	-0.223145	-0.257934				-0.005167	0.001493	-0.004059				-139.433856	88.043342	-83.595004
00087	16895512	-9.801545	-0.229992	-0.259133				-0.002319	0.000640	-0.003237				-139.417321	88.042837	-83.577717
00088	16895562	-9.805230	-0.208761	-0.245264				-0.001259	0.001188	0.003149				-139.452474	88.043338	-83.614796
00089	16895612	-9.792932	-0.234293	-0.257338				-0.002851	0.003748	0.001335				-139.482322	88.042627	-83.643897
00090	16895662	-9.822096	-0.210224	-0.247927				-0.000321	-0.002649	-0.001940				-139.463399	88.043830	-83.626849
00091	16895712	-9.788743	-0.228426	-0.252612				-0.002985	-0.003507	-0.000724				-139.440603	88.044334	-83.603227
00092	16895762	-9.796302	-0.210345	-0.260606				-0.003026	0.000089	0.001060				-139.456546	88.045073	-83.620431
00093	16895812	-9.809687	-0.210526	-0.252876				-0.003612	0.000034	-0.002949				-139.438726	88.044787	-83.601477
00094	16895862	-9.828739	-0.207281	-0.258784				-0.006121	0.001646	-0.000326				-139.455988	88.044797	-83.619137
00095	16895912	-9.807933	-0.213851	-0.259633				-0.004121	0.000131	-0.000922				-139.452194	88.044470	-83.614203
00096	16895962	-9.811315	-0.207104	-0.266274				0.000922	0.001934	0.000292				-139.472360	88.044528	-83.636819
00097	16896012	-9.798401	-0.216809	-0.255559				-0.005597	0.000367	0.001580				-139.485974	88.044603	-83.648885
00098	16896062	-9.784492	-0.227178	-0.249603				-0.004499	0.000129	0.001644				-139.506590	88.045993	-83.670145
00099	16896112	-9.802043	-0.208778	-0.260100				-0.005962	-0.000453	-0.001533				-139.496220	88.045629	-83.658120
00100	16896162	-9.793835	-0.208947	-0.277605				-0.001843	-0.001902	-0.000364				-139.491812	88.046718	-83.655212
00101	16896212	-9.806592	-0.223752	-0.264596				-0.008080	-0.001299	-0.000247				-139.485130	88.046958	-83.646213
00102	16896262	-9.800651	-0.222946	-0.263919				-0.001578	-0.000347	-0.001160				-139.484750	88.047495	-83.647463
00103	16896312	-9.804879	-0.218097	-0.244276				-0.001699	0.001627	-0.001019				-139.487458	88.046862	-83.649721
00104	16896362	-9.799726	-0.219864	-0.264621				-0.002006	-0.001901	-0.000104				-139.484963	88.047928	-83.648721
00105	16896412	-9.790575	-0.226336	-0.269701				-0.002111	-0.001744	-0.000877				-139.470525	88.048145	-83.633666
00106	16896462	-9.818391	-0.201624	-0.249711				-0.001822	0.000265	-0.002597				-139.464161	88.048353	-83.628824
00107	16896512	-9.812690	-0.191762	-0.267698				-0.000361	0.001874	-0.001631				-139.464281	88.047436	-83.628905
00108	16896562	-9.803325	-0.199078	-0.264947				-0.009811	0.002710	-0.002147				-139.475608	88.047540	-83.639374
00109	16896612	-9.807517	-0.200412	-0.238457				-0.004015	0.000846	-0.000981				-139.474911	88.047300	-83.637482
00110	16896662	-9.814035	-0.206094	-0.250681				-0.004651	0.000275	-0.004320				-139.459109	88.046747	-83.622524
00111	16896712	-9.794490	-0.216858	-0.271427				-0.004074	0.001583	-0.001433				-139.460031	88.045983	-83.622332
00112	16896762	-9.804223	-0.199928	-0.272099				-0.001990	0.001356	-0.003809				-139.451445	88.045761	-83.615231
00113	16896812	-9.808036	-0.202330	-0.266562				-0.005709	0.002950	0.001248				-139.476984	88.045254	-83.639183
00114	16896862	-9.783374	-0.214796	-0.263240				-0.004983	-0.001478	-0.004458				-139.450048	88.045863	-83.612719
00115	16896912	-9.805289	-0.228889	-0.271575				-0.003854	0.000481	-0.003777				-139.429797	88.044938	-83.591387
00116	16896962	-9.808456	-0.205943	-0.268797				-0.003684	-0.003811	-0.002100				-139.404489	88.045980	-83.567117
00117	16897012	-9.808490	-0.222763	-0.267497				-0.002034	-0.001127	-0.001638				-139.388434	88.046171	-83.550384
00118	16897062	-9.815544	-0.206755	-0.237691				-0.003973	-0.000711	-0.001665				-139.383475	88.046393	-83.546469
00119	16897112	-9.804881	-0.222315	-0.235404				-0.006676	-0.000050	-0.002047				-139.372074	88.046082	-83.533127
00120	16897162	-9.804659	-0.230244	-0.256149				-0.004818	-0.002341	-0.001737				-139.357404	88.046910	-83.519143
00121	16897212	-9.800034	-0.214357	-0.265825				-0.006177	-0.001779	-0.000160				-139.348386	88.047023	-83.508428
00122	16897262	-9.805604	-0.226381	-0.264759				-0.003085	-0.003544	-0.001973				-139.325518	88.048229	-83.486684
00123	16897312	-9.801624	-0.225364	-0.255185				0.001038	0.003897	-0.005317				-139.312617	88.046477	-83.474047
00124	16897362	-9.815669	-0.218147	-0.270627				-0.007145	0.002301	-0.003564				-139.312620	88.045981	-83.474054
00125	16897412	-9.802839	-0.224529	-0.253489				-0.003313	0.004092	-0.000265				-139.334109	88.045273	-83.494531
00126	16897462	-9.803783	-0.224834	-0.254592				-0.006852	0.001246	-0.001453				-139.342215	88.045108	-83.502855
00127	16897512	-9.813414	-0.224032	-0.277071				-0.000186	0.001562	0.001638				-139.361146	88.044871	-83.521808
00128	16897562	-9.816303	-0.215075	-0.251223				-0.000373	0.001067	-0.001890				-139.362811	88.045240	-83.525363
00129	16897612	-9.781455	-0.230084	-0.273125				-0.004064	-0.000710	0.000611				-139.364214	88.045266	-83.525680
00130	16897662	-9.787142	-0.218122	-0.263308				-0.001644	0.001591	-0.002880				-139.363080	88.045216	-83.526116
00131	16897712	-9.813427	-0.211326	-0.261040				-0.005561	0.001942	-0.002580				-139.358529	88.044506	-83.519906
00132	16897762	-9.807488	-0.210991	-0.259826				-0.004345	0.000291	0.000588				-139.373157	88.044910	-83.535481
00133	16897812	-9.799385	-0.212722	-0.257726				-0.006112	0.000924	-0.004923				-139.348769	88.043611	-83.509385
00134	16897862	-9.797263	-0.228318	-0.261282				-0.003450	-0.001695	0.002303				-139.363232	88.045151	-83.524918
00135	16897912	-9.795484	-0.224019	-0.249353				-0.003558	-0.000342	0.001509				-139.371938	88.045491	-83.532618
00136	16897962	-9.784589	-0.214817	-0.260193				-0.001255	0.000432	-0.002788				-139.364669	88.045850	-83.526994
00137	16898012	-9.809834	-0.212927	-0.262427				-0.001898	0.000618	-0.002436				-139.353111	88.045270	-83.514883
00138	16898062	-9.793476	-0.226942	-0.260797				-0.004467	-0.001074	-0.000835				-139.351343	88.046030	-83.513905
00139	16898112	-9.806382	-0.203628	-0.260394				-0.004203	0.003945	0.000380				-139.376402	88.045317	-83.537750
00140	16898162	-9.798460	-0.209921	-0.259777				-0.001371	-0.001661	0.000732				-139.380596	88.046492	-83.543631
00141	16898212	-9.791486	-0.222421	-0.245548				-0.002064	0.001006	-0.000507				-139.383160	88.046333	-83.545556
00142	16898262	-9.801076	-0.214914	-0.249567				-0.003455	0.001305	-0.000951				-139.394017	88.046072	-83.557672
00143	16898312	-9.803588	-0.204518	-0.250023				-0.002972	0.000114	-0.002817				-139.377377	88.045629	-83.540139
00144	16898362	-9.797701	-0.213692	-0.259110				-0.002655	0.001518	0.000972				-139.400858	88.045915	-83.565010
00145	16898412	-9.804002	-0.210441	-0.247872				-0.003457	0.000402	-0.000411				-139.401240	88.045890	-83.564352
00146	16898462	-9.811699	-0.202896	-0.250416				-0.007872	-0.001846	-0.000507				-139.398788	88.046429	-83.561864
00147	16898512	-9.802732	-0.207537	-0.267308				-0.005186	0.001368	-0.001268				-139.399585	88.045988	-83.561146
00148	16898562	-9.804281	-0.204185	-0.254172				-0.006153	0.002617	-0.000361				-139.421394	88.046032	-83.583249
00149	16898612	-9.802504	-0.208737	-0.261757				-0.005710	-0.000152	0.001098				-139.429356	88.046264	-83.589584
00150	16898662	-9.827709	-0.216583	-0.253796				-0.002121	0.002719	-0.001841				-139.441211	88.046029	-83.602923
00151	16898712	-9.809490	-0.210548	-0.245688				-0.004725	0.000960	-0.000661				-139.443666	88.045507	-83.604084
00152	16898762	-9.800569	-0.228710	-0.264656				-0.002903	0.000891	-0.001691				-139.446408	88.045967	-83.607980
00153	16898812	-9.813188	-0.225816	-0.232711				-0.001891	-0.000082	0.003367				-139.467988	88.046623	-83.629029
00154	16898862	-9.813148	-0.212408	-0.267478				-0.005292	0.001690	-0.001490				-139.477718	88.046497	-83.639400
00155	16898912	-9.810689	-0.215910	-0.273220				-0.001124	0.000407	-0.002855				-139.462148	88.045842	-83.623512
00156	16898962	-9.813951	-0.213318	-0.251272				-0.005236	0.004184	0.000097				-139.494578	88.046048	-83.656418
00157	16899012	-9.818671	-0.214493	-0.255234				-0.002282	0.000845	0.000200				-139.500982	88.045917	-83.662172
00158	16899062	-9.814749	-0.217953	-0.266999				-0.005257	0.002300	-0.004465				-139.494609	88.045048	-83.656445
00159	16899112	-9.803511	-0.227128	-0.254973				-0.003874	-0.002485	0.001562				-139.492125	88.045917	-83.652835
00160	16899162	-9.810169	-0.210958	-0.251008				-0.001357	0.001828	-0.000888				-139.505178	88.045778	-83.667689
00161	16899212	-9.801846	-0.213867	-0.243413				-0.003110	-0.004934	-0.004356				-139.451508	88.045885	-83.613145
00162	16899262	-9.799627	-0.236610	-0.246754				-0.004496	0.003603	-0.005459				-139.445053	88.045358	-83.607279
00163	16899312	-9.808743	-0.212648	-0.246835				-0.001673	-0.000154	0.000356				-139.447214	88.045394	-83.608977
00164	16899362	-9.782546	-0.213281	-0.246060				-0.007899	-0.000003	-0.001299				-139.449308	88.045784	-83.610900
00165	16899412	-9.783600	-0.219789	-0.255208				-0.006608	0.000732	-0.001687				-139.444549	88.045216	-83.604277
00166	16899462	-9.784192	-0.229095	-0.256130				-0.002692	0.001345	-0.003136				-139.440344	88.044934	-83.601394
00167	16899512	-9.785197	-0.217281	-0.270408				-0.007395	-0.002842	-0.000902				-139.421197	88.045401	-83.580111
00168	16899562	-9.792139	-0.217856	-0.263521				-0.003351	0.001010	-0.001628				-139.426190	88.045148	-83.586365
00169	16899612	-9.794892	-0.218214	-0.242152				-0.004568	0.000123	0.000711				-139.433121	88.045157	-83.592021
00170	16899662	-9.797288	-0.211789	-0.253119				-0.005579	0.000386	-0.003678				-139.420689	88.045457	-83.579941
00171	16899712	-9.792381	-0.221833	-0.255414				-0.005327	0.002821	-0.001773				-139.426331	88.044583	-83.584038
00172	16899762	-9.790703	-0.233428	-0.273068				-0.004075	0.000383	-0.001632				-139.427472	88.044426	-83.586238
00173	16899812	-9.806785	-0.220510	-0.239306				-0.001907	0.002275	0.002035				-139.453673	88.044133	-83.611967
00174	16899862	-9.792289	-0.216668	-0.242580				-0.003196	-0.000121	-0.004266				-139.434418	88.044466	-83.593729
00175	16899912	-9.803620	-0.201450	-0.250314				-0.002169	0.002097	-0.003748				-139.422996	88.043121	-83.581739
00176	16899962	-9.802197	-0.199921	-0.252441				-0.003333	0.000560	-0.001251				-139.426712	88.043749	-83.586476
00177	16900012	-9.799081	-0.216932	-0.260066				-0.006628	-0.000826	-0.003463				-139.401843	88.043296	-83.559690
00178	16900062	-9.790947	-0.236601	-0.265627				-0.005127	0.000398	-0.000926				-139.408052	88.043081	-83.566741
00179	16900112	-9.821707	-0.218187	-0.257367				-0.001584	0.001684	-0.004523				-139.388834	88.041854	-83.547066
00180	16900162	-9.801427	-0.215579	-0.269746				-0.002337	0.002485	-0.000440				-139.407816	88.042432	-83.567314
00181	16900212	-9.799839	-0.220076	-0.246989				-0.007108	0.002439	-0.000781				-139.418385	88.041635	-83.575890
00182	16900262	-9.795921	-0.222222	-0.260612				-0.007114	0.001628	0.000495				-139.440696	88.042032	-83.598265
00183	16900312	-9.791953	-0.215570	-0.260151				0.000175	0.000043	-0.000784				-139.435831	88.041891	-83.593441
00184	16900362	-9.802551	-0.191877	-0.249312				-0.000362	0.001871	-0.001698				-139.442935	88.041921	-83.602518
00185	16900412	-9.793028	-0.207550	-0.257721				-0.003894	-0.000999	-0.001005				-139.432180	88.041958	-83.590636
00186	16900462	-9.800562	-0.228133	-0.267004				-0.004456	-0.001494	-0.001482				-139.424109	88.042522	-83.583443
00187	16900512	-9.780565	-0.225677	-0.271979				0.000221	0.000693	0.000249				-139.429499	88.042300	-83.588937
00188	16900562	-9.816496	-0.198816	-0.251684				-0.001668	0.001957	0.001769				-139.460014	88.042838	-83.621092
00189	16900612	-9.819575	-0.216627	-0.259262				-0.002775	0.000186	-0.001091				-139.454632	88.042573	-83.614923
00190	16900662	-9.812175	-0.223835	-0.247517				0.001191	-0.000715	-0.001463				-139.448980	88.043428	-83.611597
00191	16900712	-9.791665	-0.238540	-0.260719				-0.000314	0.004661	0.001135				-139.481639	88.042879	-83.644105
00192	16900762	-9.802196	-0.223024	-0.243710				-0.000001	-0.002541	0.000908				-139.481735	88.044029	-83.646353
00193	16900812	-9.818871	-0.216629	-0.256448				-0.004330	0.000743	0.000071				-139.487294	88.043991	-83.650634
00194	16900862	-9.793686	-0.228231	-0.262744				-0.006584	-0.001410	-0.004207				-139.462936	88.043912	-83.626561
00195	16900912	-9.799926	-0.217309	-0.277524				-0.003541	-0.003288	-0.001786				-139.434607	88.044091	-83.597273
00196	16900962	-9.799353	-0.213734	-0.261331				-0.004378	0.000990	-0.002751				-139.432116	88.044107	-83.595580
00197	16901012	-9.805213	-0.221161	-0.262042				-0.004245	0.001938	-0.000791				-139.439000	88.043584	-83.601234
00198	16901062	-9.815619	-0.204610	-0.268191				-0.003821	0.000682	-0.001571				-139.441520	88.044217	-83.604626
00199	16901112	-9.800830	-0.197355	-0.248136				-0.006265	0.000190	-0.000063				-139.443898	88.044043	-83.605251
00200	16901162	-9.811017	-0.220232	-0.247823				-0.001469	0.001567	0.000513				-139.464561	88.043932	-83.627769
00201	16901212	-9.797226	-0.211734	-0.263207				-0.007565	-0.000348	0.000779				-139.470060	88.044021	-83.631148
00202	16901262	-9.792284	-0.226418	-0.262096				-0.006913	0.002444	-0.000111				-139.492368	88.044332	-83.653512
00203	16901312	-9.794852	-0.211412	-0.262067				-0.000275	0.000872	-0.003886				-139.472487	88.043371	-83.633557
00204	16901362	-9.814055	-0.203650	-0.253849				-0.001483	0.002789	-0.002752				-139.478543	88.043064	-83.641212
00205	16901412	-9.792820	-0.223540	-0.258204				-0.006553	-0.001278	-0.004049				-139.447685	88.042620	-83.608447
00206	16901462	-9.806257	-0.214035	-0.260861				-0.006282	0.003678	-0.001354				-139.468992	88.041951	-83.630154
00207	16901512	-9.782011	-0.221534	-0.239051				-0.005846	-0.000098	-0.003078				-139.450534	88.041452	-83.609990
00208	16901562	-9.811183	-0.217618	-0.265643				-0.004780	0.002604	-0.001685				-139.463421	88.041470	-83.623462
00209	16901612	-9.798047	-0.216084	-0.275445				-0.004441	0.000158	0.000547				-139.468980	88.041498	-83.627767
00210	16901662	-9.822186	-0.209807	-0.275126				-0.002313	0.001580	-0.002369				-139.471416	88.041264	-83.631659
00211	16901712	-9.808725	-0.204978	-0.265423				-0.001832	0.003821	-0.001137				-139.485632	88.040369	-83.645311
00212	16901762	-9.809380	-0.217147	-0.250688				-0.005905	0.001677	-0.002808				-139.486188	88.039950	-83.646321
00213	16901812	-9.812663	-0.217304	-0.257707				-0.004435	0.003134	-0.000269				-139.502824	88.039006	-83.661769
00214	16901862	-9.803505	-0.209649	-0.252203				-0.007995	0.001097	0.000014				-139.519542	88.039501	-83.678262
00215	16901912	-9.806787	-0.204979	-0.271062				-0.004768	0.000983	-0.004902				-139.495175	88.038407	-83.652504
00216	16901962	-9.800356	-0.210224	-0.260809				-0.003704	0.000039	-0.001769				-139.493710	88.038659	-83.652105
00217	16902012	-9.811794	-0.214516	-0.249919				-0.004528	-0.003435	-0.001846				-139.464481	88.039044	-83.621572
00218	16902062	-9.792047	-0.229504	-0.255785				-0.005691	-0.000395	-0.006159				-139.432541	88.038829	-83.589988
00219	16902112	-9.809982	-0.216879	-0.269175				-0.005160	0.002599	-0.002936				-139.429439	88.037875	-83.585350
00220	16902162	-9.804760	-0.211403	-0.277989				-0.002294	-0.000034	-0.000451				-139.434869	88.038653	-83.592142
00221	16902212	-9.796535	-0.215298	-0.252168				-0.003620	-0.000774	-0.002510				-139.415601	88.038409	-83.571811
00222	16902262	-9.805818	-0.204367	-0.274961				-0.004318	0.001092	-0.001982				-139.418553	88.037991	-83.575785
00223	16902312	-9.799258	-0.220884	-0.261802				-0.004836	0.000373	-0.001474				-139.412914	88.037513	-83.568793
00224	16902362	-9.803484	-0.200294	-0.275538				-0.006683	0.006389	-0.001115				-139.450418	88.036504	-83.606495
00225	16902412	-9.782841	-0.223306	-0.255391				0.000846	0.001252	0.000121				-139.457829	88.036272	-83.614143
00226	16902462	-9.796463	-0.217323	-0.259373				-0.010263	-0.001600	-0.003136				-139.439955	88.036863	-83.595340
00227	16902512	-9.790073	-0.233158	-0.258800				-0.004081	0.001875	-0.001407				-139.442496	88.036104	-83.596741
00228	16902562	-9.803977	-0.213711	-0.244935				-0.005266	-0.001518	-0.005364				-139.409443	88.036303	-83.564177
00229	16902612	-9.816109	-0.225541	-0.262902				-0.003111	0.002734	-0.001336				-139.416721	88.035458	-83.570565
00230	16902662	-9.798311	-0.207089	-0.250550				-0.001895	-0.000513	-0.002573				-139.405931	88.035788	-83.561317
00231	16902712	-9.810153	-0.211164	-0.254062				-0.004637	0.001023	-0.002397				-139.397541	88.035179	-83.551574
00232	16902762	-9.813679	-0.217242	-0.248074				-0.003017	0.002699	-0.001623				-139.411163	88.034904	-83.566435
00233	16902812	-9.807679	-0.213581	-0.262071				-0.005517	0.004052	0.000219				-139.436142	88.033961	-83.589886
00234	16902862	-9.806051	-0.210559	-0.263684				-0.005624	0.001677	-0.005440				-139.420211	88.033285	-83.574430
00235	16902912	-9.818198	-0.217560	-0.249222				-0.006455	-0.000274	-0.003490				-139.398463	88.032483	-83.550890
00236	16902962	-9.820491	-0.202446	-0.254742				-0.004058	0.001360	0.001134				-139.422522	88.033040	-83.575832
00237	16903012	-9.800269	-0.237325	-0.257449				-0.005326	-0.001346	-0.000775				-139.411637	88.033230	-83.563398
00238	16903062	-9.819467	-0.210117	-0.251320				-0.002355	-0.002070	-0.001106				-139.402193	88.034117	-83.555373
00239	16903112	-9.804770	-0.196647	-0.267318				-0.002925	0.001860	-0.001215				-139.405551	88.033622	-83.557851
00240	16903162	-9.816111	-0.188135	-0.260490				-0.002009	-0.000064	-0.002699				-139.396868	88.033626	-83.550741
00241	16903212	-9.803258	-0.209906	-0.253614				-0.003272	0.000528	-0.002248				-139.386414	88.033038	-83.539356
00242	16903262	-9.797750	-0.228223	-0.261259				-0.006724	-0.000855	-0.001765				-139.380218	88.033648	-83.533301
00243	16903312	-9.814604	-0.215281	-0.255972				-0.006001	0.000706	-0.002909				-139.367430	88.032923	-83.518795
00244	16903362	-9.810975	-0.213317	-0.269672				-0.006806	0.000756	-0.003067				-139.361804	88.033130	-83.513207
00245	16903412	-9.805955	-0.201042	-0.258964				-0.001752	0.003274	-0.001306				-139.371808	88.032021	-83.522770
00246	16903462	-9.788429	-0.216416	-0.250121				-0.006129	0.002906	-0.000750				-139.392675	88.032082	-83.543934
00247	16903512	-9.806915	-0.204983	-0.248801				-0.006793	-0.001466	0.000419				-139.389315	88.032493	-83.538629
00248	16903562	-9.823700	-0.218343	-0.241702				-0.006167	-0.001974	0.000607				-139.392224	88.033435	-83.541940
00249	16903612	-9.832276	-0.211668	-0.255941				-0.002078	0.001194	-0.002886				-139.380925	88.032727	-83.530012
00250	16903662	-9.800804	-0.206297	-0.272892				0.000206	0.003979	-0.004385				-139.382692	88.031717	-83.533897
00251	16903712	-9.822371	-0.202907	-0.257885				-0.003934	0.002494	0.000273				-139.399300	88.031080	-83.549435
00252	16903762	-9.801502	-0.218196	-0.251447				-0.006761	0.000564	-0.000473				-139.409306	88.031762	-83.559500
00253	16903812	-9.813525	-0.203782	-0.261976				-0.002158	0.000513	-0.004012				-139.387426	88.030855	-83.537007
00254	16903862	-9.794666	-0.186434	-0.265979				-0.005187	0.002301	-0.004063				-139.383196	88.030217	-83.533408
00255	16903912	-9.796123	-0.227093	-0.257212				-0.002075	0.001035	-0.002244				-139.375440	88.029461	-83.525089
00256	16903962	-9.811269	-0.215894	-0.256096				-0.005116	-0.003059	-0.002197				-139.354111	88.030596	-83.504287
00257	16904012	-9.802739	-0.214850	-0.250566				-0.002269	0.002555	0.000618				-139.372681	88.029941	-83.522290
00258	16904062	-9.798162	-0.208150	-0.273810				-0.000806	0.001411	-0.003307				-139.367318	88.029898	-83.518721
00259	16904112	-9.821285	-0.214023	-0.257157				-0.002639	0.001000	0.000321				-139.375437	88.029861	-83.526053
00260	16904162	-9.800591	-0.226024	-0.266567				-0.001281	-0.000370	-0.000007				-139.382329	88.030122	-83.534803
00261	16904212	-9.789763	-0.217893	-0.264047				-0.008246	0.002801	-0.002832				-139.382164	88.028955	-83.532285
00262	16904262	-9.809806	-0.215339	-0.262532				-0.003606	0.004145	-0.002483				-139.397775	88.028173	-83.548987
00263	16904312	-9.784786	-0.219504	-0.255810				-0.001420	-0.002184	0.000747				-139.391122	88.028951	-83.541864
00264	16904362	-9.791823	-0.213168	-0.247050				-0.004735	0.002447	-0.000053				-139.413014	88.028988	-83.564536
00265	16904412	-9.797473	-0.217426	-0.248497				-0.004771	-0.001658	-0.000936				-139.399426	88.029307	-83.549525
00266	16904462	-9.803695	-0.216312	-0.246826				-0.004416	-0.002650	0.001974				-139.407131	88.030850	-83.558090
00267	16904512	-9.804120	-0.210350	-0.267206				-0.004651	-0.001365	0.001182				-139.408568	88.031337	-83.558201
00268	16904562	-9.799366	-0.210428	-0.266257				-0.003132	-0.002957	-0.001973				-139.388647	88.032375	-83.539465
00269	16904612	-9.822475	-0.191771	-0.262887				-0.004734	0.001248	-0.002622				-139.379965	88.031522	-83.529454
00270	16904662	-9.792491	-0.196478	-0.250332				-0.005214	0.002407	-0.000051				-139.402513	88.031615	-83.552634
00271	16904712	-9.804662	-0.227775	-0.259229				-0.003920	0.005282	0.001182				-139.439611	88.030778	-83.588600
00272	16904762	-9.790934	-0.202173	-0.259271				-0.004168	0.003321	-0.005211				-139.433517	88.029673	-83.583423
00273	16904812	-9.811496	-0.204805	-0.278548				-0.003748	0.000623	0.000902				-139.443598	88.029733	-83.592429
00274	16904862	-9.775388	-0.225128	-0.262469				-0.003432	0.003366	-0.004447				-139.442823	88.028761	-83.592793
00275	16904912	-9.808370	-0.215956	-0.261839				-0.004859	0.004581	0.001179				-139.476278	88.027940	-83.624889
00276	16904962	-9.805520	-0.214745	-0.263301				-0.006541	0.003639	-0.001837				-139.494233	88.027729	-83.642974
00277	16905012	-9.789499	-0.226885	-0.249338				-0.000886	-0.000010	-0.001711				-139.483539	88.027526	-83.631984
00278	16905062	-9.805177	-0.197452	-0.276536				-0.001768	-0.003547	-0.001052				-139.466637	88.028529	-83.616733
00279	16905112	-9.808031	-0.228280	-0.253880				-0.000262	0.002453	-0.004777				-139.449892	88.026937	-83.599959
00280	16905162	-9.808961	-0.211804	-0.251970				-0.001411	0.001702	0.001288				-139.475325	88.027739	-83.627015
00281	16905212	-9.808702	-0.208148	-0.262034				-0.003229	0.001279	-0.000187				-139.482010	88.027371	-83.632792
00282	16905262	-9.790017	-0.215466	-0.265094				-0.004663	-0.003114	-0.000756				-139.469437	88.028743	-83.620902
00283	16905312	-9.806798	-0.227920	-0.260892				-0.001813	-0.003396	-0.004161				-139.425147	88.028661	-83.576087
00284	16905362	-9.795259	-0.202561	-0.253641				-0.002845	-0.001153	-0.005885				-139.390961	88.028431	-83.543187
00285	16905412	-9.802780	-0.214661	-0.283322				-0.005731	-0.001808	-0.001868				-139.370845	88.028527	-83.521398
00286	16905462	-9.814811	-0.212945	-0.265720				-0.000327	-0.000390	-0.001745				-139.365430	88.029083	-83.517933
00287	16905512	-9.801473	-0.211187	-0.269671				-0.002903	0.000221	0.002112				-139.380963	88.029134	-83.532738
00288	16905562	-9.804286	-0.201031	-0.258892				-0.002332	0.001390	0.000229				-139.398499	88.029498	-83.551728
00289	16905612	-9.799190	-0.205135	-0.267305				-0.003446	0.001851	-0.003777				-139.385577	88.028467	-83.537791
00290	16905662	-9.785234	-0.232541	-0.273070				-0.004102	-0.000547	-0.000037				-139.391925	88.029056	-83.545122
00291	16905712	-9.798174	-0.220949	-0.245936				-0.004096	0.001058	-0.005512				-139.364055	88.027744	-83.516079
00292	16905762	-9.803121	-0.190127	-0.278114				-0.002410	0.001474	-0.004683				-139.351074	88.027297	-83.504458
00293	16905812	-9.819578	-0.214927	-0.261507				-0.003342	0.002959	-0.000017				-139.367825	88.026715	-83.520246
00294	16905862	-9.806806	-0.212635	-0.252693				-0.003110	0.002440	-0.003581				-139.367580	88.026187	-83.521228
00295	16905912	-9.808698	-0.212839	-0.253569				-0.004934	-0.001767	-0.003763				-139.335542	88.026012	-83.487709
00296	16905962	-9.797183	-0.223623	-0.245284				-0.004719	0.000896	0.001224				-139.357536	88.026667	-83.510486
00297	16906012	-9.803308	-0.222887	-0.257466				-0.005175	0.001047	-0.000665				-139.360497	88.026445	-83.511919
00298	16906062	-9.821615	-0.198814	-0.272658				-0.005554	-0.000858	0.002567				-139.381406	88.027690	-83.533374
00299	16906112	-9.803906	-0.235953	-0.250529				-0.005443	0.002895	0.004061				-139.424394	88.027686	-83.574863
00300	16906162	-9.800859	-0.205312	-0.265699				-0.006209	0.003587	0.000731				-139.458176	88.027496	-83.609049
00301	16906212	-9.816099	-0.212148	-0.251916				-0.002737	0.003260	0.001682				-139.486966	88.027044	-83.637091
00302	16906262	-9.792653	-0.236788	-0.258978				-0.004038	0.002258	-0.004383				-139.481230	88.026329	-83.632297
00303	16906312	-9.794165	-0.226118	-0.267015				-0.004017	-0.002034	0.001241				-139.479091	88.027084	-83.628980
00304	16906362	-9.790502	-0.218816	-0.257320				-0.001959	0.001784	0.000582				-139.501077	88.027524	-83.652482
00305	16906412	-9.786625	-0.208748	-0.251570				-0.007382	0.000912	-0.001019				-139.501600	88.027345	-83.650817
00306	16906462	-9.812273	-0.216188	-0.245669				-0.003501	-0.000981	0.002786				-139.522823	88.028739	-83.673156
00307	16906512	-9.795794	-0.214506	-0.257751				-0.000866	0.001607	-0.001801				-139.520245	88.028188	-83.670287
00308	16906562	-9.816183	-0.196249	-0.271219				-0.001634	-0.002512	-0.000083				-139.515108	88.028994	-83.666888
00309	16906612	-9.800009	-0.226139	-0.246028				-0.002744	0.002056	-0.003237				-139.506446	88.027826	-83.657475
00310	16906662	-9.810525	-0.186430	-0.242997				-0.006152	-0.001558	-0.002280				-139.493246	88.028695	-83.644503
00311	16906712	-9.795780	-0.213215	-0.263025				-0.002085	0.001521	-0.001089				-139.495019	88.028275	-83.645638
00312	16906762	-9.792085	-0.229096	-0.250374				-0.003281	0.000519	-0.005808				-139.470076	88.027689	-83.621843
00313	16906812	-9.819196	-0.215199	-0.246392				-0.004418	0.002417	-0.002101				-139.470958	88.026973	-83.621394
00314	16906862	-9.809504	-0.217606	-0.267240				-0.003640	0.001170	-0.000215				-139.485606	88.026829	-83.637279
00315	16906912	-9.813630	-0.203446	-0.244484				-0.002181	-0.000415	0.000346				-139.486134	88.027023	-83.637166
00316	16906962	-9.807051	-0.217862	-0.279495				-0.002564	0.001248	-0.003139				-139.481601	88.026879	-83.633999
00317	16907012	-9.814936	-0.228889	-0.252659				-0.004017	0.001678	-0.004065				-139.466045	88.025771	-83.617278
00318	16907062	-9.792777	-0.224742	-0.263258				-0.005607	0.000554	-0.000798				-139.473829	88.026372	-83.625472
00319	16907112	-9.788951	-0.212369	-0.252342				-0.001857	0.004431	-0.003739				-139.474749	88.024596	-83.625896
00320	16907162	-9.799416	-0.219813	-0.277662				-0.002832	0.004198	0.001685				-139.516491	88.024579	-83.668954
00321	16907212	-9.804654	-0.225912	-0.265507				-0.002693	-0.001690	-0.002196				-139.493851	88.024723	-83.645466
00322	16907262	-9.814967	-0.208604	-0.249721				-0.003502	-0.000085	0.000799				-139.508001	88.025177	-83.660810
00323	16907312	-9.797554	-0.209120	-0.253109				-0.005345	0.006475	-0.001536				-139.534642	88.023431	-83.685947
00324	16907362	-9.803262	-0.222661	-0.265070				-0.006541	-0.000169	0.001900				-139.555618	88.024893	-83.707008
00325	16907412	-9.803945	-0.221977	-0.272083				-0.002491	0.001158	-0.000963				-139.556336	88.024607	-83.706957
00326	16907462	-9.812984	-0.212381	-0.254600				-0.005903	0.000677	-0.002331				-139.555478	88.024246	-83.706647
00327	16907512	-9.808783	-0.219731	-0.265869				-0.003711	0.002334	-0.002426				-139.554060	88.022935	-83.704279
00328	16907562	-9.799548	-0.210207	-0.275946				-0.002158	-0.000160	-0.000457				-139.558464	88.024059	-83.709999
00329	16907612	-9.802741	-0.214423	-0.251026				-0.007500	0.001721	-0.001137				-139.562232	88.023649	-83.711560
00330	16907662	-9.807970	-0.214452	-0.253654				-0.005818	0.002166	-0.001013				-139.577973	88.023565	-83.727752
00331	16907712	-9.803842	-0.204841	-0.247121				-0.007753	0.000385	-0.002682				-139.565136	88.022958	-83.712694
00332	16907762	-9.810732	-0.204545	-0.249485				-0.004465	-0.001296	-0.000647				-139.563193	88.023841	-83.711584
00333	16907812	-9.801565	-0.212323	-0.253968				-0.002719	-0.003219	-0.004897				-139.515676	88.023795	-83.663204
00334	16907862	-9.805252	-0.214252	-0.268883				-0.004328	-0.001656	-0.003155				-139.496423	88.023816	-83.644958
00335	16907912	-9.814989	-0.216909	-0.268398				-0.004273	-0.001132	0.000344				-139.493712	88.024217	-83.640993
00336	16907962	-9.821992	-0.212200	-0.260996				-0.002440	0.001641	-0.002817				-139.493228	88.024151	-83.641845
00337	16908012	-9.807142	-0.199060	-0.263553				-0.004517	-0.001656	-0.000393				-139.482945	88.024716	-83.630168
00338	16908062	-9.791670	-0.219606	-0.259774				-0.004973	0.003799	-0.001486				-139.503760	88.023497	-83.651923
00339	16908112	-9.779241	-0.231204	-0.244247				-0.006537	0.004344	-0.005073				-139.496922	88.021591	-83.643215
00340	16908162	-9.817513	-0.215606	-0.247768				-0.000342	0.001264	-0.000967				-139.505670	88.022075	-83.653850
00341	16908212	-9.823734	-0.226156	-0.259030				0.002895	0.001097	0.000308				-139.512695	88.021789	-83.661737
00342	16908262	-9.815424	-0.202997	-0.263403				-0.007138	0.000400	0.000168				-139.525620	88.022562	-83.674645
00343	16908312	-9.798955	-0.236112	-0.241393				-0.002495	0.000385	-0.000161				-139.527496	88.022372	-83.675835
00344	16908362	-9.804679	-0.207394	-0.260179				-0.002343	0.002945	0.000811				-139.557467	88.022457	-83.707273
00345	16908412	-9.796822	-0.210204	-0.253466				-0.002689	0.002717	0.000971				-139.578911	88.022144	-83.727926
00346	16908462	-9.810246	-0.200463	-0.259351				-0.000089	0.001132	-0.003023				-139.574148	88.021998	-83.725217
00347	16908512	-9.812387	-0.191748	-0.278031				-0.002467	-0.000016	-0.006359				-139.534662	88.020752	-83.685022
00348	16908562	-9.802389	-0.217590	-0.264619				-0.003970	0.001159	-0.003684				-139.526588	88.020733	-83.677820
00349	16908612	-9.795959	-0.223156	-0.252646				-0.003018	0.000469	-0.003722				-139.506291	88.019911	-83.656655
00350	16908662	-9.799400	-0.212594	-0.255568				-0.003875	0.001459	-0.000668				-139.518920	88.020184	-83.670254
00351	16908712	-9.810412	-0.219840	-0.270425				-0.004196	0.002851	0.002711				-139.552614	88.020063	-83.702768
00352	16908762	-9.796082	-0.234952	-0.247351				-0.002789	-0.000364	0.001054				-139.566470	88.020781	-83.717994
00353	16908812	-9.803837	-0.214507	-0.266327				-0.002685	0.000245	-0.002600				-139.552148	88.020421	-83.702833
00354	16908862	-9.807232	-0.211400	-0.262424				-0.001732	-0.000380	0.000666				-139.562908	88.021157	-83.715249
00355	16908912	-9.792609	-0.230456	-0.278296				-0.003702	-0.001096	-0.001004				-139.551769	88.021103	-83.703079
00356	16908962	-9.798965	-0.226338	-0.259739				-0.001746	0.005215	-0.001039				-139.581730	88.020477	-83.734632
00357	16909012	-9.802316	-0.218577	-0.272567				-0.004572	0.001121	-0.000922				-139.583275	88.020137	-83.734838
00358	16909062	-9.790011	-0.221777	-0.254423				-0.004870	0.001603	0.000010				-139.601011	88.020485	-83.753281
00359	16909112	-9.786506	-0.218207	-0.249369				-0.001260	-0.001277	0.000177				-139.595654	88.020858	-83.747535
00360	16909162	-9.812185	-0.224946	-0.281362				-0.001773	-0.000052	-0.000069				-139.603747	88.021152	-83.757357
00361	16909212	-9.819713	-0.218141	-0.271774				0.000177	-0.000254	-0.002483				-139.586387	88.020856	-83.740007
00362	16909262	-9.793160	-0.212399	-0.264701				-0.004222	0.000392	0.000736				-139.602406	88.021842	-83.756825
00363	16909312	-9.811531	-0.199666	-0.245827				-0.003620	-0.000671	-0.001607				-139.589961	88.021513	-83.743395
00364	16909362	-9.802541	-0.215634	-0.243061				-0.004937	-0.000430	0.000834				-139.602307	88.022452	-83.756388
00365	16909412	-9.805498	-0.199646	-0.258875				-0.001389	-0.000311	-0.001615				-139.590726	88.022150	-83.744422
00366	16909462	-9.795698	-0.223821	-0.254771				-0.004354	-0.001919	-0.003508				-139.567231	88.022864	-83.721637
00367	16909512	-9.804945	-0.223072	-0.262388				0.001533	-0.001685	-0.003359				-139.536568	88.022478	-83.691436
00368	16909562	-9.794940	-0.206983	-0.257100				-0.007123	0.001421	-0.007172				-139.509044	88.021529	-83.663932
00369	16909612	-9.807958	-0.209272	-0.264870				-0.003467	0.000759	-0.000252				-139.512669	88.021135	-83.666628
00370	16909662	-9.790664	-0.216488	-0.274508				-0.008706	-0.000793	-0.000510				-139.515849	88.021559	-83.669507
00371	16909712	-9.798606	-0.212178	-0.269367				-0.005323	-0.002483	-0.002289				-139.489730	88.021583	-83.641874
00372	16909762	-9.806566	-0.228800	-0.258312				-0.005932	-0.001195	0.000514				-139.496379	88.022774	-83.648868
00373	16909812	-9.804357	-0.218434	-0.251241				-0.007831	0.002038	0.000532				-139.513057	88.022261	-83.663367
00374	16909862	-9.797343	-0.208877	-0.257927				-0.001991	0.000977	0.001702				-139.537186	88.023305	-83.688931
00375	16909912	-9.821992	-0.217101	-0.272780				-0.000088	-0.002239	-0.004479				-139.496669	88.023041	-83.648343
00376	16909962	-9.800656	-0.234577	-0.261611				-0.004476	-0.002281	-0.003698				-139.470779	88.023610	-83.623198
00377	16910012	-9.822145	-0.213925	-0.255377				-0.007614	0.000131	0.000083				-139.474192	88.023506	-83.624462
00378	16910062	-9.810384	-0.200230	-0.259650				-0.003968	-0.001686	0.000219				-139.475642	88.024624	-83.626852
00379	16910112	-9.797452	-0.219266	-0.271589				-0.005466	0.001706	-0.005440				-139.452237	88.023139	-83.601904
00380	16910162	-9.808573	-0.216102	-0.250132				-0.003796	-0.001396	-0.003793				-139.430069	88.023515	-83.580700
00381	16910212	-9.798351	-0.208025	-0.263791				-0.003804	0.000324	0.001159				-139.440041	88.023805	-83.589536
00382	16910262	-9.797696	-0.207761	-0.253903				-0.004765	0.003440	-0.001297				-139.459416	88.023450	-83.609640
00383	16910312	-9.798678	-0.201966	-0.262269				-0.004440	0.005224	-0.001924				-139.476585	88.022032	-83.625527
00384	16910362	-9.821708	-0.204071	-0.269284				-0.001407	0.000366	-0.000964				-139.481332	88.021966	-83.632090
00385	16910412	-9.820388	-0.220146	-0.257037				-0.005199	0.000650	-0.001848				-139.474751	88.021499	-83.624012
00386	16910462	-9.817253	-0.222417	-0.259746				-0.003377	0.003045	0.000118				-139.500306	88.021873	-83.650595
00387	16910512	-9.799098	-0.203188	-0.268687				0.000311	0.001287	-0.006930				-139.463562	88.020349	-83.613902
00388	16910562	-9.809430	-0.226848	-0.244384				-0.001103	0.000622	-0.003850				-139.451490	88.019749	-83.603744
00389	16910612	-9.792535	-0.221989	-0.252120				-0.003953	-0.000167	-0.000863				-139.446469	88.019467	-83.597633
00390	16910662	-9.792032	-0.205945	-0.250215				-0.005563	0.000801	-0.004639				-139.430426	88.019558	-83.581940
00391	16910712	-9.807705	-0.205516	-0.258310				-0.004696	0.000948	-0.002270				-139.422617	88.019076	-83.572730
00392	16910762	-9.824276	-0.200411	-0.246044				-0.005881	0.001062	-0.001398				-139.429466	88.018422	-83.580247
00393	16910812	-9.798387	-0.220784	-0.272424				-0.005104	-0.000580	-0.003847				-139.403562	88.017984	-83.552814
00394	16910862	-9.801410	-0.219071	-0.247275				-0.005411	-0.000809	-0.000962				-139.402771	88.019031	-83.552428
00395	16910912	-9.797866	-0.211456	-0.258867				-0.000427	0.003036	0.001390				-139.428230	88.018469	-83.577833
00396	16910962	-9.788215	-0.220779	-0.260341				-0.006487	0.001056	-0.000019				-139.443150	88.018914	-83.592998
00397	16911012	-9.819009	-0.197114	-0.256155				-0.002622	0.002410	-0.001913				-139.444718	88.017995	-83.593830
00398	16911062	-9.813129	-0.206464	-0.264647				-0.003330	0.005368	-0.004361				-139.454882	88.016684	-83.605152
00399	16911112	-9.799587	-0.218991	-0.273413				-0.003818	0.000150	-0.005578				-139.421961	88.015505	-83.571153
00400	16911162	-9.796355	-0.222156	-0.250025				-0.002294	0.002428	0.002258				-139.457599	88.016689	-83.608018
00401	16911212	-9.778773	-0.230074	-0.266529				-0.004605	0.000212	-0.000412				-139.457549	88.016413	-83.606693
00402	16911262	-9.812101	-0.215285	-0.258694				-0.003415	-0.000995	-0.001702				-139.450419	88.016800	-83.600740
00403	16911312	-9.787716	-0.222267	-0.261012				-0.004430	-0.000534	-0.002728				-139.431749	88.016386	-83.580802
00404	16911362	-9.816532	-0.213512	-0.277981				-0.006431	0.003515	0.002180				-139.474532	88.016478	-83.623915
00405	16911412	-9.808619	-0.216481	-0.282051				-0.005159	0.001560	-0.000017				-139.484393	88.015918	-83.632371
00406	16911462	-9.792983	-0.213346	-0.274927				-0.002290	0.001796	-0.002750				-139.484847	88.016017	-83.634156
00407	16911512	-9.791927	-0.196619	-0.248259				-0.001310	-0.001837	-0.001969				-139.462966	88.016176	-83.611839
00408	16911562	-9.797309	-0.220582	-0.253303				-0.004549	0.000408	-0.000475				-139.472031	88.016304	-83.621828
00409	16911612	-9.802346	-0.215050	-0.258070				-0.003684	-0.000449	0.001282				-139.478696	88.016687	-83.627430
00410	16911662	-9.817610	-0.214503	-0.255806				-0.001967	-0.001065	0.001340				-139.489839	88.017528	-83.640196
00411	16911712	-9.806620	-0.215389	-0.260224				-0.005081	0.000975	-0.001848				-139.484940	88.017155	-83.633773
00412	16911762	-9.809170	-0.218658	-0.265745				-0.007757	0.001445	-0.002577				-139.486715	88.017064	-83.635432
00413	16911812	-9.797401	-0.212114	-0.254757				-0.003542	-0.000360	-0.005034				-139.454397	88.016064	-83.602125
00414	16911862	-9.792781	-0.219065	-0.256724				-0.003092	0.002017	0.000459				-139.476308	88.016534	-83.625196
00415	16911912	-9.793306	-0.228417	-0.268471				-0.002199	0.001931	-0.002590				-139.471137	88.015643	-83.619390
00416	16911962	-9.793591	-0.220701	-0.238286				-0.003668	0.002206	0.000431				-139.494787	88.015675	-83.644163
00417	16912012	-9.820127	-0.199913	-0.263111				-0.004087	0.003026	-0.003508				-139.490274	88.014203	-83.638532
00418	16912062	-9.811707	-0.215157	-0.245799				-0.004646	0.000469	-0.000982				-139.495986	88.014767	-83.644949
00419	16912112	-9.803594	-0.206694	-0.266480				-0.001448	0.001821	0.000520				-139.509447	88.014552	-83.657971
00420	16912162	-9.782616	-0.245995	-0.266866				-0.008480	0.003312	0.000191				-139.538749	88.014401	-83.687015
00421	16912212	-9.786765	-0.222003	-0.261055				-0.002094	0.000771	-0.000257				-139.541860	88.014109	-83.689555
00422	16912262	-9.796294	-0.221491	-0.262389				-0.000351	0.001088	-0.004393				-139.528165	88.013915	-83.677777
00423	16912312	-9.792572	-0.234500	-0.259385				-0.004415	0.002148	-0.002711				-139.523877	88.013139	-83.672162
00424	16912362	-9.802213	-0.220776	-0.269331				-0.004543	-0.000624	0.001444				-139.538855	88.014185	-83.687935
00425	16912412	-9.789931	-0.217087	-0.259575				-0.005200	0.000687	-0.000502				-139.540926	88.014085	-83.688470
00426	16912462	-9.799810	-0.213305	-0.248542				-0.001672	0.000654	-0.000389				-139.550286	88.014508	-83.699453
00427	16912512	-9.796065	-0.226640	-0.249440				-0.001753	-0.000002	-0.002762				-139.533661	88.014039	-83.682299
00428	16912562	-9.799029	-0.217015	-0.251094				-0.000843	-0.001240	0.000568				-139.538528	88.015136	-83.688985
00429	16912612	-9.783834	-0.217723	-0.242532				-0.005608	-0.002620	-0.000455				-139.523172	88.015800	-83.671951
00430	16912662	-9.795369	-0.222140	-0.254384				-0.003839	0.004626	0.000539				-139.560369	88.015267	-83.710253
00431	16912712	-9.818345	-0.208914	-0.264501				-0.005727	0.001829	-0.004439				-139.543905	88.014007	-83.692151
00432	16912762	-9.807489	-0.201420	-0.262321				-0.001662	-0.001840	-0.001939				-139.530366	88.014995	-83.680118
00433	16912812	-9.822593	-0.218392	-0.250025				-0.009280	-0.001169	-0.003773				-139.502792	88.014549	-83.649866
00434	16912862	-9.804397	-0.222532	-0.259311				-0.000201	0.002616	-0.003648				-139.502478	88.013584	-83.651705
00435	16912912	-9.788021	-0.219258	-0.256900				-0.004441	-0.001149	-0.002409				-139.482230	88.013523	-83.630130
00436	16912962	-9.799689	-0.217659	-0.259689				-0.002959	-0.002282	-0.000621				-139.475440	88.014373	-83.624637
00437	16913012	-9.792366	-0.234262	-0.254924				-0.003740	-0.001775	-0.000264				-139.465415	88.014690	-83.613535
00438	16913062	-9.796384	-0.212600	-0.265469				-0.006388	-0.002571	-0.003245				-139.440505	88.015379	-83.588865
00439	16913112	-9.810404	-0.218543	-0.257113				-0.001054	0.001469	-0.000703				-139.444408	88.014827	-83.592503
00440	16913162	-9.808263	-0.203981	-0.249004				-0.002889	0.002660	-0.002004				-139.454697	88.014694	-83.604035
00441	16913212	-9.807546	-0.206512	-0.282230				-0.008027	-0.001013	-0.000343				-139.449543	88.014764	-83.596600
00442	16913262	-9.778377	-0.239035	-0.273414				-0.005544	-0.004044	-0.003386				-139.415647	88.015700	-83.563181
00443	16913312	-9.816555	-0.214358	-0.272657				-0.007626	-0.000522	-0.001179				-139.407404	88.015684	-83.552719
00444	16913362	-9.792695	-0.206477	-0.257356				-0.001831	-0.002652	-0.002036				-139.389510	88.016225	-83.536477
00445	16913412	-9.810164	-0.208836	-0.239095				-0.003655	-0.000318	-0.000127				-139.387720	88.016313	-83.533628
00446	16913462	-9.801600	-0.216451	-0.260469				-0.001787	0.000264	0.000383				-139.400191	88.017228	-83.547574
00447	16913512	-9.796156	-0.218935	-0.250236				-0.001568	0.001526	0.000035				-139.409155	88.016654	-83.556175
00448	16913562	-9.781162	-0.210427	-0.266312				-0.004088	-0.000001	-0.000446				-139.415451	88.017337	-83.563356
00449	16913612	-9.805940	-0.203114	-0.239243				-0.003186	-0.004192	-0.000212				-139.392656	88.018034	-83.539697
00450	16913662	-9.801329	-0.213261	-0.271699				-0.003073	-0.001900	-0.002576				-139.374607	88.018812	-83.522789
00451	16913712	-9.804656	-0.213511	-0.274118				-0.001782	-0.000163	-0.003148				-139.354696	88.018210	-83.502370
00452	16913762	-9.786158	-0.235390	-0.256040				-0.002945	0.001240	-0.001536				-139.360052	88.018493	-83.508918
00453	16913812	-9.774883	-0.228289	-0.244063				-0.003465	0.000357	-0.002729				-139.345499	88.018135	-83.493291
00454	16913862	-9.807653	-0.211135	-0.255053				-0.003760	0.004008	-0.000744				-139.372213	88.017607	-83.521117
00455	16913912	-9.819772	-0.201730	-0.279818				-0.003358	0.001201	-0.002173				-139.365812	88.017029	-83.513721
00456	16913962	-9.787643	-0.227033	-0.262977				-0.004862	0.000978	-0.003393				-139.359041	88.016627	-83.507705
00457	16914012	-9.805814	-0.229580	-0.246767				-0.004019	-0.001300	-0.001606				-139.343165	88.016542	-83.490693
00458	16914062	-9.818778	-0.207237	-0.274893				-0.002757	-0.003865	-0.002647				-139.314815	88.017595	-83.463609
00459	16914112	-9.795889	-0.231686	-0.267986				-0.002062	0.002877	0.000590				-139.334673	88.016924	-83.482937
00460	16914162	-9.801499	-0.218483	-0.273454				-0.005016	0.001881	-0.002550				-139.337836	88.016882	-83.486662
00461	16914212	-9.778966	-0.223471	-0.249152				-0.004134	0.001644	-0.000055				-139.347506	88.016447	-83.495175
00462	16914262	-9.811031	-0.208639	-0.253576				-0.003979	0.003780	-0.001194				-139.369173	88.016089	-83.517804
00463	16914312	-9.787251	-0.224170	-0.254537				-0.002235	-0.000581	0.002880				-139.384915	88.016638	-83.532953
00464	16914362	-9.813551	-0.216319	-0.253460				-0.004689	0.000622	-0.003073				-139.378126	88.016648	-83.526900
00465	16914412	-9.811314	-0.203379	-0.256050				-0.003690	-0.002388	0.000443				-139.369054	88.017149	-83.516797
00466	16914462	-9.804898	-0.206285	-0.247993				-0.003935	0.001449	0.000043				-139.386477	88.017401	-83.535227
00467	16914512	-9.789809	-0.219176	-0.236813				-0.004201	0.000309	-0.004230				-139.362581	88.016566	-83.510105
00468	16914562	-9.820468	-0.211757	-0.260888				-0.003852	0.000743	-0.000216				-139.374037	88.017196	-83.522506
00469	16914612	-9.798314	-0.214116	-0.258572				-0.001507	0.001460	-0.002469				-139.366961	88.016450	-83.514975
00470	16914662	-9.797832	-0.210456	-0.265963				-0.005201	-0.000316	-0.001249				-139.366434	88.016879	-83.515082
00471	16914712	-9.804949	-0.204830	-0.282063				-0.005271	0.000747	-0.002331				-139.357092	88.016405	-83.504184
00472	16914762	-9.814260	-0.186960	-0.275535				-0.003844	-0.000583	-0.000609				-139.359549	88.016966	-83.507662
00473	16914812	-9.808667	-0.240323	-0.263085				-0.002419	0.000958	-0.002078				-139.352564	88.016303	-83.500000
00474	16914862	-9.801690	-0.224561	-0.230264				-0.005741	-0.000360	-0.000958				-139.353824	88.017096	-83.501609
00475	16914912	-9.807329	-0.215110	-0.261941				-0.001746	0.003039	-0.000789				-139.365891	88.016466	-83.513124
00476	16914962	-9.794238	-0.219897	-0.250531				-0.001182	0.004607	0.000662				-139.403046	88.016055	-83.552109
00477	16915012	-9.803085	-0.210104	-0.265008				-0.003349	-0.000421	-0.004650				-139.372582	88.015217	-83.520685
00478	16915062	-9.799195	-0.217339	-0.261748				-0.002465	0.001580	0.002249				-139.403824	88.015776	-83.553387
00479	16915112	-9.806963	-0.221902	-0.267864				-0.005519	0.000774	-0.001303				-139.401309	88.015381	-83.549281
00480	16915162	-9.803466	-0.216702	-0.266508				-0.005151	0.003304	-0.001129				-139.421331	88.015437	-83.569816
00481	16915212	-9.785763	-0.227226	-0.258831				-0.003093	-0.001248	-0.002481				-139.400091	88.015086	-83.547729
00482	16915262	-9.798822	-0.224393	-0.270128				-0.004936	0.002499	-0.000270				-139.421199	88.014986	-83.569581
00483	16915312	-9.806912	-0.206497	-0.269575				-0.002771	0.001857	-0.002745				-139.414963	88.013985	-83.562574
00484	16915362	-9.789669	-0.226429	-0.283238				-0.003834	-0.002846	0.000116				-139.409175	88.015707	-83.557623
00485	16915412	-9.798528	-0.231848	-0.263163				-0.002059	0.001711	-0.000604				-139.415291	88.015306	-83.563122
00486	16915462	-9.820922	-0.211952	-0.262979				-0.004470	-0.001079	-0.000226				-139.417433	88.015871	-83.566196
00487	16915512	-9.808810	-0.208420	-0.266120				-0.001939	-0.000032	-0.000033				-139.417537	88.015938	-83.565726
00488	16915562	-9.819744	-0.192506	-0.263475				-0.003403	-0.001356	-0.002059				-139.406007	88.016550	-83.555294
00489	16915612	-9.805688	-0.212481	-0.263379				-0.005807	0.002710	-0.000942				-139.416200	88.015717	-83.563849
00490	16915662	-9.787469	-0.225614	-0.255827				-0.003621	0.002756	0.000850				-139.445853	88.015777	-83.594618
00491	16915712	-9.797297	-0.228214	-0.240142				-0.004898	0.001103	-0.004803				-139.423052	88.014776	-83.570355
00492	16915762	-9.799533	-0.197219	-0.248262				-0.001989	0.000515	-0.002410				-139.419040	88.015151	-83.567773
00493	16915812	-9.781897	-0.217595	-0.247867				-0.002659	-0.000466	0.000574				-139.420771	88.015186	-83.568808
00494	16915862	-9.813386	-0.236099	-0.241201				-0.002189	-0.002166	0.000694				-139.421975	88.016289	-83.571507
00495	16915912	-9.796972	-0.218117	-0.274888				-0.005173	-0.000384	-0.002532				-139.405448	88.016024	-83.553446
00496	16915962	-9.809141	-0.208894	-0.250399				0.001612	0.000163	-0.000942				-139.408008	88.016126	-83.558670
00497	16916012	-9.816830	-0.204075	-0.249134				-0.007071	0.000130	-0.001686				-139.400315	88.015753	-83.548957
00498	16916062	-9.782640	-0.226391	-0.264214				-0.005014	0.000720	-0.001146				-139.406429	88.016382	-83.555654
00499	16916112	-9.787197	-0.232472	-0.247745				-0.005181	-0.001196	-0.004043				-139.376187	88.015916	-83.523899
00500	16916162	-9.800691	-0.214117	-0.259376				-0.004876	0.002728	-0.000399				-139.397692	88.015685	-83.546216
00501	16916212	-9.791485	-0.202526	-0.269901				-0.002112	0.001218	-0.003206				-139.384765	88.014618	-83.532741
00502	16916262	-9.797157	-0.204910	-0.271048				-0.006447	0.000631	-0.000533				-139.394521	88.015062	-83.542743
00503	16916312	-9.801438	-0.226187	-0.267180				-0.006264	-0.000306	-0.002591				-139.378562	88.014409	-83.525058
00504	16916362	-9.796431	-0.216648	-0.248499				-0.002336	-0.001789	-0.002419				-139.362138	88.015364	-83.509909
00505	16916412	-9.783008	-0.233882	-0.267808				-0.002478	0.003098	0.001395				-139.388477	88.014795	-83.535604
00506	16916462	-9.798754	-0.209873	-0.272772				-0.004887	0.001954	-0.000340				-139.405716	88.015294	-83.553446
00507	16916512	-9.803021	-0.211913	-0.271302				-0.004889	0.002883	-0.003154				-139.402864	88.013993	-83.549225
00508	16916562	-9.804904	-0.231523	-0.273650				-0.002890	0.000562	-0.002277				-139.400500	88.014139	-83.548080
00509	16916612	-9.807995	-0.218435	-0.262617				-0.004626	0.000921	-0.000691				-139.402542	88.013762	-83.548812
00510	16916662	-9.805143	-0.210146	-0.278473				-0.004645	0.001274	-0.002040				-139.405494	88.013771	-83.552525
00511	16916712	-9.784005	-0.229587	-0.268046				-0.003269	0.002792	0.000849				-139.426915	88.013026	-83.573121
00512	16916762	-9.813070	-0.220121	-0.246993				-0.002078	-0.001648	0.000116				-139.426942	88.014425	-83.574514
00513	16916812	-9.809250	-0.217973	-0.252493				-0.005370	-0.000258	-0.003554				-139.404846	88.013720	-83.550899
00514	16916862	-9.809034	-0.221842	-0.241035				-0.007935	0.000121	-0.001171				-139.408080	88.014342	-83.553872
00515	16916912	-9.804589	-0.216376	-0.239571				-0.004774	-0.003800	-0.000913				-139.383298	88.014997	-83.527709
00516	16916962	-9.789289	-0.208917	-0.264366				-0.004993	-0.001735	-0.000485				-139.380235	88.015812	-83.525367
00517	16917012	-9.797432	-0.205720	-0.263528				-0.003214	-0.003390	-0.001107				-139.355713	88.016500	-83.499855
00518	16917062	-9.795318	-0.222796	-0.262674				-0.002855	0.000597	-0.000795				-139.362728	88.016729	-83.508191
00519	16917112	-9.802023	-0.217340	-0.267481				-0.006032	0.002802	-0.000907				-139.373971	88.015902	-83.517725
00520	16917162	-9.806478	-0.215882	-0.242446				-0.006509	-0.001501	-0.000770				-139.370756	88.016696	-83.514747
00521	16917212	-9.808478	-0.202005	-0.255253				-0.005306	0.002006	-0.002965				-139.364752	88.015319	-83.507346
00522	16917262	-9.799090	-0.219854	-0.275158				-0.005208	0.001812	-0.004030				-139.358163	88.015001	-83.501315
00523	16917312	-9.793839	-0.230562	-0.255577				-0.001826	-0.004083	-0.004392				-139.309032	88.015290	-83.451554
00524	16917362	-9.791387	-0.215700	-0.257889				-0.003202	-0.000731	-0.000259				-139.311845	88.016112	-83.455527
00525	16917412	-9.799292	-0.210716	-0.260489				-0.002941	0.000405	0.001127				-139.321933	88.016341	-83.464742
00526	16917462	-9.801670	-0.223881	-0.272980				-0.004581	0.001670	0.000657				-139.343869	88.016765	-83.487457
00527	16917512	-9.800084	-0.201139	-0.266699				-0.002303	-0.000553	0.000925				-139.347120	88.017021	-83.490065
00528	16917562	-9.790048	-0.229750	-0.254239				-0.004771	-0.002160	-0.004248				-139.318460	88.017133	-83.462196
00529	16917612	-9.807803	-0.220213	-0.251084				-0.005540	-0.000770	0.000133				-139.316759	88.017352	-83.458900
00530	16917662	-9.806149	-0.225324	-0.277688				-0.002186	-0.000492	-0.001766				-139.310863	88.017660	-83.454507
00531	16917712	-9.815872	-0.199412	-0.258658				-0.006456	-0.001279	-0.001599				-139.295907	88.017557	-83.437719
00532	16917762	-9.801288	-0.214201	-0.238394				-0.005635	-0.001717	-0.000390				-139.293438	88.018998	-83.435549
00533	16917812	-9.781096	-0.230290	-0.275795				-0.001736	0.005688	-0.001641				-139.314355	88.017437	-83.455988
00534	16917862	-9.809496	-0.217129	-0.254053				-0.002878	0.004576	-0.000135				-139.346639	88.017094	-83.489545
00535	16917912	-9.802381	-0.209171	-0.264628				-0.003461	0.002792	0.002426				-139.377909	88.016751	-83.519907
00536	16917962	-9.796229	-0.219574	-0.275091				-0.005377	-0.001843	-0.001769				-139.366119	88.017772	-83.508564
00537	16918012	-9.790201	-0.226248	-0.236471				-0.002182	-0.002758	-0.002325				-139.337124	88.017769	-83.478983
00538	16918062	-9.798900	-0.227059	-0.253783				-0.000741	0.000533	-0.002536				-139.332188	88.017825	-83.475928
00539	16918112	-9.793417	-0.209763	-0.249791				-0.004134	0.001279	-0.004576				-139.311371	88.016582	-83.453956
00540	16918162	-9.794980	-0.224809	-0.274988				-0.000890	0.002243	-0.002818				-139.314051	88.016252	-83.458483
00541	16918212	-9.782806	-0.214777	-0.262022				0.000045	0.001071	-0.000194				-139.318691	88.016015	-83.463132
00542	16918262	-9.810616	-0.214966	-0.267845				-0.001497	-0.001600	0.003488				-139.339764	88.017678	-83.485849
00543	16918312	-9.816492	-0.228658	-0.253712				-0.004289	0.001284	-0.001912				-139.335478	88.017239	-83.480268
00544	16918362	-9.815062	-0.204783	-0.263986				-0.003337	-0.000482	-0.002372				-139.326853	88.017342	-83.472845
00545	16918412	-9.792943	-0.198680	-0.272142				-0.006208	-0.005221	-0.003163				-139.280581	88.017861	-83.424772
00546	16918462	-9.792418	-0.218959	-0.277270				-0.004340	-0.000239	-0.000639				-139.284342	88.018511	-83.429354
00547	16918512	-9.799072	-0.211786	-0.255446				-0.001233	0.000013	-0.000102				-139.283961	88.018404	-83.428650
00548	16918562	-9.783939	-0.229359	-0.241918				-0.005034	0.002627	-0.001777				-139.295763	88.018315	-83.441078
00549	16918612	-9.795940	-0.224554	-0.273478				-0.003131	0.001138	-0.002595				-139.286434	88.017604	-83.430836
00550	16918662	-9.808380	-0.219587	-0.274980				-0.005391	-0.003519	0.000598				-139.280916	88.019060	-83.425888
00551	16918712	-9.809203	-0.212663	-0.269987				-0.004131	-0.002592	-0.000170				-139.267072	88.019581	-83.410853
00552	16918762	-9.828968	-0.219886	-0.255812				-0.005654	0.000201	0.002963				-139.296069	88.020492	-83.440425
00553	16918812	-9.804798	-0.232365	-0.251600				-0.007884	0.000376	-0.002488				-139.284535	88.020252	-83.426516
00554	16918862	-9.825470	-0.211302	-0.263045				-0.003097	0.004374	-0.001351				-139.307686	88.019653	-83.450935
00555	16918912	-9.794271	-0.226075	-0.232766				-0.000831	0.002511	-0.001179				-139.313929	88.018931	-83.456927
00556	16918962	-9.799448	-0.216205	-0.263139				-0.004359	0.000637	-0.000086				-139.326437	88.019102	-83.470403
00557	16919012	-9.801326	-0.211724	-0.276257				-0.004283	-0.000948	-0.000995				-139.316487	88.019087	-83.459228
00558	16919062	-9.799292	-0.218978	-0.283061				-0.001873	0.001907	-0.002175				-139.321174	88.019015	-83.465463
00559	16919112	-9.789755	-0.227044	-0.267866				-0.001749	0.003775	-0.005437				-139.307980	88.017351	-83.451700
00560	16919162	-9.814910	-0.215437	-0.267401				-0.003659	0.002582	-0.003543				-139.307798	88.017011	-83.452491
00561	16919212	-9.796822	-0.210536	-0.276343				-0.005750	0.001902	-0.002004				-139.306906	88.016252	-83.449943
00562	16919262	-9.796258	-0.209917	-0.251469				-0.008183	0.001897	0.000311				-139.329554	88.016477	-83.472376
00563	16919312	-9.807133	-0.192009	-0.262337				-0.001439	-0.000340	0.002402				-139.343256	88.017078	-83.485647
00564	16919362	-9.801750	-0.208545	-0.253573				-0.003795	0.001740	-0.001528				-139.351816	88.017159	-83.495195
00565	16919412	-9.796792	-0.203485	-0.256621				-0.005057	-0.001902	-0.002509				-139.327348	88.017141	-83.469249
00566	16919462	-9.805015	-0.215017	-0.250686				-0.008433	0.000691	-0.001910				-139.329289	88.016799	-83.471016
00567	16919512	-9.814964	-0.196653	-0.257325				-0.002021	0.001817	0.002542				-139.355814	88.016788	-83.497007
00568	16919562	-9.798957	-0.221296	-0.255015				-0.003716	0.000420	-0.001310				-139.358159	88.017520	-83.500250
00569	16919612	-9.806538	-0.210936	-0.243791				-0.005039	0.003726	-0.003307				-139.358835	88.016177	-83.499453
00570	16919662	-9.793379	-0.223682	-0.267025				-0.001127	0.001528	-0.002307				-139.360567	88.016050	-83.502982
00571	16919712	-9.792967	-0.212034	-0.280352				-0.004362	-0.001403	-0.000390				-139.351796	88.016252	-83.492972
00572	16919762	-9.823866	-0.194092	-0.247927				-0.004894	0.000471	0.001102				-139.370348	88.016916	-83.512282
00573	16919812	-9.801128	-0.210626	-0.272008				-0.005320	0.001424	-0.002261				-139.365417	88.016103	-83.505851
00574	16919862	-9.799150	-0.200233	-0.257882				0.000340	-0.000222	-0.001325				-139.363219	88.016861	-83.505734
00575	16919912	-9.780660	-0.220821	-0.267212				-0.001863	0.001457	-0.003247				-139.350874	88.016083	-83.492804
00576	16919962	-9.798497	-0.223463	-0.264956				0.000285	0.002431	-0.003367				-139.350995	88.015447	-83.495160
00577	16920012	-9.820123	-0.215695	-0.248937				-0.003436	-0.000742	-0.005459				-139.313670	88.014585	-83.456834
00578	16920062	-9.812789	-0.206643	-0.258922				-0.003947	0.003718	-0.002098				-139.329625	88.013808	-83.473830
00579	16920112	-9.810074	-0.203185	-0.244177				-0.004649	-0.001395	0.000189				-139.324702	88.014084	-83.467589
00580	16920162	-9.789169	-0.202742	-0.275027				-0.003369	0.000561	-0.001060				-139.329353	88.014684	-83.473300
00581	16920212	-9.795678	-0.204538	-0.258458				-0.003559	0.000261	-0.003560				-139.309472	88.014158	-83.452322
00582	16920262	-9.797383	-0.218800	-0.262309				-0.004988	0.000881	-0.004648				-139.294178	88.013641	-83.437721
00583	16920312	-9.807222	-0.223024	-0.278986				-0.002852	0.000378	-0.000705				-139.292729	88.013253	-83.435515
00584	16920362	-9.793300	-0.241249	-0.261111				-0.002054	0.001420	-0.002405				-139.293977	88.013292	-83.438212
00585	16920412	-9.780700	-0.219450	-0.262601				-0.002044	0.001301	-0.001539				-139.292137	88.012538	-83.435846
00586	16920462	-9.809345	-0.196222	-0.259007				-0.004879	0.005394	0.003465				-139.351302	88.012826	-83.495690
00587	16920512	-9.807524	-0.212843	-0.251386				-0.005971	-0.001261	-0.000839				-139.340922	88.012973	-83.483583
00588	16920562	-9.810246	-0.217623	-0.262881				-0.003429	-0.001605	-0.000880				-139.335889	88.013567	-83.479748
00589	16920612	-9.803246	-0.235379	-0.281651				-0.000827	-0.000213	-0.006331				-139.295463	88.012396	-83.439073
00590	16920662	-9.800084	-0.210869	-0.265184				-0.006001	0.001872	-0.001461				-139.305670	88.012507	-83.449611
00591	16920712	-9.814635	-0.215092	-0.251906				-0.005813	0.001676	-0.003193				-139.296812	88.011151	-83.439213
00592	16920762	-9.822063	-0.198426	-0.238621				-0.001274	-0.000857	-0.001872				-139.287954	88.012207	-83.431897
00593	16920812	-9.817013	-0.210428	-0.261722				-0.002875	0.001214	-0.001858				-139.283586	88.011563	-83.426717
00594	16920862	-9.816649	-0.199411	-0.265039				-0.003297	0.000595	0.001545				-139.304899	88.012271	-83.449225
00595	16920912	-9.820693	-0.203055	-0.260200				-0.003695	-0.000154	0.000800				-139.310185	88.012433	-83.453461
00596	16920962	-9.791910	-0.240827	-0.254413				-0.003972	0.000192	-0.002728				-139.303097	88.012467	-83.447339
00597	16921012	-9.804453	-0.227591	-0.255981				-0.001756	-0.000604	0.001432				-139.309523	88.012972	-83.453234
00598	16921062	-9.814213	-0.207964	-0.256922				-0.003819	0.000154	-0.005902				-139.282397	88.012493	-83.427093
00599	16921112	-9.804765	-0.199771	-0.262496				-0.003006	0.000214	-0.002120				-139.271124	88.012121	-83.414931
00600	16921162	-9.793457	-0.219129	-0.280321				-0.003859	0.002748	-0.003643				-139.271887	88.011548	-83.416655
00601	16921212	-9.795479	-0.205997	-0.247890				-0.002181	-0.001453	0.000374				-139.266745	88.012080	-83.410833
00602	16921262	-9.797016	-0.204758	-0.272789				-0.004707	0.000444	-0.000509				-139.275022	88.012093	-83.420004
00603	16921312	-9.802227	-0.205266	-0.275643				-0.002210	0.000323	-0.001188				-139.269673	88.012074	-83.413926
00604	16921362	-9.813777	-0.203970	-0.258646				-0.002807	0.001059	-0.000994				-139.278149	88.012264	-83.423723
00605	16921412	-9.812044	-0.201949	-0.273934				-0.002316	0.000378	-0.004463				-139.252919	88.011363	-83.397815
00606	16921462	-9.788141	-0.212045	-0.268768				-0.003199	0.000241	-0.000519				-139.259374	88.011754	-83.405479
00607	16921512	-9.813079	-0.219787	-0.263627				-0.004166	0.000581	-0.000381				-139.261543	88.011478	-83.406480
00608	16921562	-9.788561	-0.226056	-0.248702				-0.005790	0.002465	0.002424				-139.299056	88.012172	-83.444414
00609	16921612	-9.802813	-0.220978	-0.265150				-0.003515	0.002506	0.001199				-139.321131	88.011726	-83.465539
00610	16921662	-9.805601	-0.203359	-0.234460				-0.005009	0.002693	-0.002807				-139.327476	88.011357	-83.472474
00611	16921712	-9.821877	-0.206991	-0.252055				-0.004004	0.000586	0.000393				-139.334441	88.011303	-83.478295
00612	16921762	-9.812935	-0.194623	-0.259635				-0.005001	0.002995	0.002296				-139.373883	88.011948	-83.518376
00613	16921812	-9.796418	-0.221883	-0.256355				-0.006310	0.003322	-0.001071				-139.386970	88.010854	-83.529714
00614	16921862	-9.791934	-0.226653	-0.280466				-0.005316	0.000072	-0.002757				-139.379296	88.010863	-83.522680
00615	16921912	-9.794253	-0.209539	-0.246943				-0.003235	-0.000398	0.002175				-139.391438	88.011462	-83.533866
00616	16921962	-9.818571	-0.205610	-0.250216				-0.004508	0.002124	-0.002775				-139.394347	88.011328	-83.537573
00617	16922012	-9.805869	-0.211899	-0.251135				-0.005772	-0.002750	-0.003251				-139.360654	88.011263	-83.502224
00618	16922062	-9.793099	-0.215758	-0.267290				-0.003679	-0.001773	-0.001168				-139.353127	88.011912	-83.495773
00619	16922112	-9.800606	-0.212243	-0.254315				-0.004032	0.000062	-0.003175				-139.334745	88.011320	-83.476219
00620	16922162	-9.800543	-0.211807	-0.265330				-0.006267	-0.002044	-0.000295				-139.331234	88.012474	-83.472943
00621	16922212	-9.812409	-0.221912	-0.251852				-0.007863	0.000741	-0.001620				-139.327363	88.011892	-83.466857
00622	16922262	-9.795172	-0.225331	-0.260118				-0.002492	-0.000782	-0.001133				-139.324658	88.012596	-83.465500
00623	16922312	-9.792929	-0.231082	-0.263542				-0.002403	0.002154	-0.005771				-139.300582	88.011148	-83.440691
00624	16922362	-9.794545	-0.221216	-0.253676				-0.004908	0.000435	-0.002852				-139.294137	88.011101	-83.434975
00625	16922412	-9.799741	-0.225981	-0.251644				-0.005489	-0.001448	-0.001702				-139.277528	88.010878	-83.416856
00626	16922462	-9.794072	-0.212631	-0.270258				-0.004853	0.001925	-0.002237				-139.282802	88.010769	-83.422821
00627	16922512	-9.802092	-0.217389	-0.273699				-0.004747	-0.000629	-0.002439				-139.265541	88.010428	-83.404196
00628	16922562	-9.809981	-0.201238	-0.261697				-0.003281	-0.001176	0.001115				-139.274404	88.011974	-83.414085
00629	16922612	-9.795668	-0.225116	-0.255781				-0.006291	-0.000037	0.001352				-139.284928	88.011820	-83.422943
00630	16922662	-9.810703	-0.218302	-0.265526				-0.005115	0.001083	-0.001113				-139.292739	88.012295	-83.431313
00631	16922712	-9.818751	-0.205676	-0.260969				-0.004895	0.000274	-0.000381				-139.293606	88.012069	-83.430808
00632	16922762	-9.799047	-0.223319	-0.252418				-0.003918	0.000944	0.000905				-139.312878	88.012671	-83.451084
00633	16922812	-9.793379	-0.219017	-0.253221				-0.002624	0.001512	0.000384				-139.324064	88.012371	-83.461547
00634	16922862	-9.814178	-0.205800	-0.267470				-0.000714	0.000706	-0.001225				-139.328079	88.012780	-83.467385
00635	16922912	-9.815606	-0.217082	-0.244848				-0.002356	-0.001365	-0.002930				-139.303105	88.012537	-83.441712
00636	16922962	-9.802353	-0.222879	-0.258141				-0.006601	-0.000758	-0.001892				-139.296671	88.013154	-83.435456
00637	16923012	-9.799911	-0.219252	-0.276143				-0.003041	0.000204	-0.003216				-139.278535	88.012629	-83.416394
00638	16923062	-9.809567	-0.196508	-0.262251				-0.006529	0.000280	-0.000794				-139.284700	88.012861	-83.422865
00639	16923112	-9.797258	-0.208950	-0.263418				-0.002189	-0.002361	-0.002135				-139.259425	88.012921	-83.396969
00640	16923162	-9.811023	-0.212867	-0.262768				-0.004897	0.002512	0.000046				-139.282086	88.012801	-83.420439
00641	16923212	-9.804419	-0.217083	-0.282662				-0.005138	0.003693	-0.003957				-139.278849	88.011268	-83.415722
00642	16923262	-9.799704	-0.219348	-0.269775				-0.004522	0.003514	-0.003123				-139.286933	88.010966	-83.424492
00643	16923312	-9.795933	-0.219529	-0.263199				-0.001839	-0.001025	0.001816				-139.293284	88.011388	-83.430365
00644	16923362	-9.805164	-0.210258	-0.251443				-0.003399	-0.000773	-0.004242				-139.271296	88.011112	-83.409598
00645	16923412	-9.787671	-0.219325	-0.253242				-0.005390	0.001886	0.000303				-139.284816	88.010897	-83.421535
00646	16923462	-9.803861	-0.219580	-0.252386				-0.004429	-0.001068	0.002179				-139.301875	88.012047	-83.439473
00647	16923512	-9.801618	-0.233012	-0.241145				-0.006736	-0.001208	0.000259				-139.298807	88.012255	-83.434510
00648	16923562	-9.792510	-0.213302	-0.251754				0.000419	-0.000503	-0.000206				-139.302386	88.013078	-83.440299
00649	16923612	-9.804658	-0.207594	-0.263473				-0.002871	0.002190	0.000234				-139.316480	88.012862	-83.453505
00650	16923662	-9.807254	-0.208532	-0.264941				-0.006648	0.005192	-0.000029				-139.354079	88.012578	-83.491252
00651	16923712	-9.798530	-0.225250	-0.255577				-0.004765	0.001147	-0.002402				-139.346766	88.011864	-83.482577
00652	16923762	-9.797823	-0.221044	-0.263719				-0.006536	0.000638	0.000621				-139.363048	88.012728	-83.499037
00653	16923812	-9.804546	-0.212461	-0.270956				0.000477	0.002699	-0.001252				-139.369830	88.011662	-83.506038
00654	16923862	-9.799719	-0.185696	-0.258713				-0.004297	0.003447	-0.005084				-139.365562	88.010725	-83.502620
00655	16923912	-9.807199	-0.222413	-0.245625				-0.004514	-0.001816	-0.001550				-139.347460	88.010957	-83.483175
00656	16923962	-9.793202	-0.205996	-0.269552				-0.004230	0.001317	-0.003043				-139.344494	88.010535	-83.481178
00657	16924012	-9.812775	-0.208457	-0.257956				-0.000323	0.002822	0.000838				-139.364716	88.010237	-83.501269
00658	16924062	-9.810790	-0.219938	-0.247323				-0.003944	-0.000317	0.000541				-139.375664	88.010739	-83.513294
00659	16924112	-9.810807	-0.218315	-0.248771				-0.004427	0.000868	-0.000156				-139.380779	88.010443	-83.517171
00660	16924162	-9.810138	-0.227646	-0.261220				-0.002210	-0.000610	-0.001167				-139.378171	88.011418	-83.515878
00661	16924212	-9.803081	-0.219036	-0.264872				-0.003118	0.000462	-0.003593				-139.359027	88.010566	-83.495854
00662	16924262	-9.808174	-0.220518	-0.245926				-0.006622	0.000924	-0.001911				-139.361693	88.010482	-83.498792
00663	16924312	-9.801912	-0.240762	-0.255728				-0.005092	-0.000929	-0.003373				-139.336964	88.010099	-83.472575
00664	16924362	-9.794490	-0.227650	-0.250337				-0.004229	0.002357	-0.002650				-139.342091	88.009755	-83.478591
00665	16924412	-9.793102	-0.215757	-0.267605				-0.004935	0.001341	-0.002785				-139.333140	88.009079	-83.468179
00666	16924462	-9.794811	-0.238268	-0.252776				-0.001466	0.003216	-0.000636				-139.355096	88.008689	-83.491898
00667	16924512	-9.805222	-0.227813	-0.246589				-0.004283	-0.003140	-0.002231				-139.325537	88.008808	-83.461143
00668	16924562	-9.791485	-0.215351	-0.258752				-0.002427	0.001194	-0.001061				-139.333704	88.009281	-83.470628
00669	16924612	-9.810586	-0.204546	-0.234332				-0.001358	-0.001209	-0.000750				-139.322809	88.009552	-83.459287
00670	16924662	-9.798450	-0.210817	-0.259380				-0.005421	-0.000019	0.003721				-139.355608	88.010626	-83.492748
00671	16924712	-9.790359	-0.208129	-0.264418				-0.000026	-0.001868	-0.001563				-139.335817	88.010602	-83.472991
00672	16924762	-9.817348	-0.215474	-0.274668				-0.006127	0.001709	-0.001077				-139.347203	88.010979	-83.484621
00673	16924812	-9.817273	-0.215847	-0.247084				-0.005409	0.000104	-0.002528				-139.333416	88.010590	-83.469241
00674	16924862	-9.783624	-0.219938	-0.251074				-0.003937	0.001226	-0.001891				-139.337778	88.010473	-83.474624
00675	16924912	-9.810494	-0.224842	-0.247390				-0.001998	0.001780	-0.002151				-139.334266	88.009849	-83.470482
00676	16924962	-9.814118	-0.213236	-0.261708				-0.006409	0.002348	-0.002225				-139.342378	88.009530	-83.478898
00677	16925012	-9.805873	-0.211404	-0.251481				-0.003424	0.002235	-0.002751				-139.338079	88.008463	-83.473639
00678	16925062	-9.791396	-0.226102	-0.253699				0.002048	0.001432	-0.001743				-139.342222	88.008508	-83.480443
00679	16925112	-9.799751	-0.218280	-0.264959				-0.003333	0.002334	-0.003648				-139.333044	88.007145	-83.470366
00680	16925162	-9.800471	-0.218129	-0.263719				-0.002928	0.002355	0.003989				-139.379270	88.008420	-83.517748
00681	16925212	-9.807650	-0.199755	-0.257891				-0.002152	0.000419	-0.003179				-139.362162	88.007698	-83.500029
00682	16925262	-9.799376	-0.229300	-0.264653				-0.002474	-0.001394	-0.001135				-139.355777	88.008472	-83.495018
00683	16925312	-9.804526	-0.225092	-0.287398				-0.003568	-0.000482	-0.002349				-139.339471	88.008086	-83.477692
00684	16925362	-9.803066	-0.202758	-0.261072				-0.004252	0.000895	-0.004518				-139.325046	88.007805	-83.464098
00685	16925412	-9.791574	-0.222473	-0.269027				-0.003020	0.000929	0.002120				-139.344286	88.007931	-83.482503
00686	16925462	-9.811022	-0.208951	-0.271706				-0.002958	-0.001104	0.001211				-139.354387	88.009250	-83.493802
00687	16925512	-9.803864	-0.210920	-0.269657				-0.000158	0.000130	-0.004242				-139.328458	88.008478	-83.467798
00688	16925562	-9.802846	-0.196215	-0.270701				-0.003547	0.002541	0.002676				-139.367884	88.008748	-83.508437
00689	16925612	-9.811932	-0.214979	-0.266005				-0.003204	-0.000469	0.000411				-139.368961	88.008874	-83.508610
00690	16925662	-9.786155	-0.216484	-0.273632				-0.002801	0.001863	-0.001086				-139.380480	88.009107	-83.521368
00691	16925712	-9.809081	-0.205570	-0.243771				-0.003503	0.000919	0.000323				-139.388463	88.009006	-83.528339
00692	16925762	-9.797858	-0.204102	-0.253187				-0.002807	0.001254	0.000290				-139.405706	88.009348	-83.546901
00693	16925812	-9.800446	-0.220145	-0.264929				-0.002947	0.002511	-0.000953				-139.414122	88.008687	-83.554458
00694	16925862	-9.798193	-0.216965	-0.249801				-0.007655	0.001587	-0.000145				-139.431454	88.008953	-83.571721
00695	16925912	-9.787718	-0.237242	-0.247035				-0.005428	0.002181	0.002419				-139.459922	88.009126	-83.598584
00696	16925962	-9.794147	-0.204246	-0.276396				-0.001699	0.000326	-0.002797				-139.451951	88.009062	-83.592269
00697	16926012	-9.805493	-0.224046	-0.247549				-0.002710	-0.002112	-0.002100				-139.428495	88.009080	-83.568037
00698	16926062	-9.804222	-0.226896	-0.255332				-0.002892	0.001799	-0.001312				-139.439012	88.009211	-83.579800
00699	16926112	-9.811167	-0.228810	-0.245067				-0.004829	-0.003829	-0.000049				-139.419887	88.009833	-83.559349
00700	16926162	-9.815752	-0.215092	-0.264123				0.003819	0.000302	-0.001137				-139.420200	88.010455	-83.562772
00701	16926212	-9.812467	-0.196442	-0.254767				-0.004636	0.000250	-0.000926				-139.417097	88.010042	-83.558403
00702	16926262	-9.790523	-0.219157	-0.253679				-0.002138	0.001330	0.000834				-139.437961	88.010754	-83.580733
00703	16926312	-9.809017	-0.219590	-0.265585				-0.005000	0.001074	-0.004932				-139.414477	88.009492	-83.555837
00704	16926362	-9.825143	-0.194662	-0.250163				-0.001679	0.001585	-0.004999				-139.399376	88.009118	-83.542260
00705	16926412	-9.805157	-0.227855	-0.257160				-0.002334	0.002296	-0.001594				-139.402677	88.008093	-83.544970
00706	16926462	-9.804479	-0.218119	-0.270401				-0.002152	0.000781	0.000993				-139.421416	88.008998	-83.565121
00707	16926512	-9.813898	-0.219380	-0.245861				-0.005592	0.002141	-0.000367				-139.432172	88.008394	-83.574303
00708	16926562	-9.810912	-0.201587	-0.264611				-0.004290	0.000119	-0.003948				-139.417350	88.008045	-83.560411
00709	16926612	-9.810678	-0.218931	-0.267485				-0.002842	0.001485	0.002349				-139.440727	88.008306	-83.582940
00710	16926662	-9.798707	-0.211062	-0.256115				-0.003553	0.003138	-0.004382				-139.438738	88.007437	-83.582036
00711	16926712	-9.797701	-0.224179	-0.276393				-0.004904	0.000306	-0.002500				-139.426143	88.007019	-83.567988
00712	16926762	-9.801676	-0.219536	-0.258398				-0.004413	0.000221	-0.001027				-139.429964	88.007099	-83.572764
00713	16926812	-9.805516	-0.213022	-0.267922				-0.005444	-0.001866	-0.001353				-139.412865	88.007196	-83.554117
00714	16926862	-9.793859	-0.215528	-0.261390				-0.001983	0.002564	0.000972				-139.441607	88.007819	-83.584271
00715	16926912	-9.800052	-0.224189	-0.243317				-0.002127	0.001008	0.000224				-139.449240	88.007557	-83.591327
00716	16926962	-9.787543	-0.205052	-0.263034				-0.005308	-0.000087	-0.001282				-139.449192	88.008406	-83.591731
00717	16927012	-9.800639	-0.221516	-0.268976				-0.003061	0.000593	-0.003142				-139.433468	88.007724	-83.575110
00718	16927062	-9.784959	-0.224275	-0.257989				-0.004226	-0.000913	-0.002892				-139.420097	88.007764	-83.562687
00719	16927112	-9.813181	-0.213169	-0.259370				-0.005846	0.001201	0.001457				-139.437295	88.007788	-83.578219
00720	16927162	-9.820828	-0.217074	-0.247071				-0.002693	0.002578	-0.001594				-139.449619	88.007349	-83.591951
00721	16927212	-9.800705	-0.215324	-0.270988				-0.004320	0.003223	-0.003254				-139.447685	88.006206	-83.588724
00722	16927262	-9.835691	-0.205358	-0.254822				-0.005290	-0.001672	-0.002953				-139.429346	88.006838	-83.570896
00723	16927312	-9.811543	-0.217682	-0.246118				-0.005024	-0.000855	-0.000194				-139.425035	88.006998	-83.565142
00724	16927362	-9.791574	-0.245239	-0.261619				-0.004607	0.001151	-0.002115				-139.427081	88.006899	-83.567980
00725	16927412	-9.802265	-0.223602	-0.270600				-0.007439	0.000553	-0.002073				-139.419047	88.006559	-83.557750
00726	16927462	-9.797130	-0.217905	-0.266122				-0.002069	0.003308	0.001483				-139.454558	88.006527	-83.594874
00727	16927512	-9.805415	-0.209383	-0.252953				-0.007237	0.003733	0.001793				-139.487865	88.005896	-83.626176
00728	16927562	-9.795821	-0.212581	-0.256486				-0.001735	-0.000380	-0.000460				-139.490935	88.006737	-83.630804
00729	16927612	-9.810662	-0.225020	-0.257967				-0.000647	0.003942	0.000399				-139.514529	88.006086	-83.654182
00730	16927662	-9.794303	-0.199033	-0.260210				-0.002115	0.002426	-0.001857				-139.524342	88.005808	-83.665454
00731	16927712	-9.826644	-0.198774	-0.268615				-0.004143	0.000709	-0.002209				-139.515778	88.005038	-83.655764
00732	16927762	-9.826974	-0.174166	-0.264515				-0.005471	-0.000831	-0.000478				-139.517229	88.006187	-83.657641
00733	16927812	-9.804161	-0.218534	-0.244787				-0.003157	0.002121	0.001352				-139.538050	88.005822	-83.677625
00734	16927862	-9.813635	-0.214893	-0.260034				-0.003240	0.000563	-0.001315				-139.541953	88.005926	-83.682754
00735	16927912	-9.797462	-0.196755	-0.253879				-0.003476	0.000042	-0.000836				-139.538054	88.005815	-83.677840
00736	16927962	-9.812220	-0.199090	-0.250503				-0.003216	0.001120	0.001544				-139.561890	88.006768	-83.702799
00737	16928012	-9.802875	-0.201495	-0.255537				-0.002854	0.000707	0.000993				-139.572689	88.006750	-83.712802
00738	16928062	-9.793535	-0.221749	-0.262228				-0.003780	-0.000738	-0.001578				-139.567913	88.007157	-83.709093
00739	16928112	-9.811572	-0.208537	-0.260050				-0.003620	0.000134	-0.003403				-139.548336	88.006335	-83.688521
00740	16928162	-9.789227	-0.219214	-0.270972				-0.003251	0.001658	-0.003941				-139.541251	88.006105	-83.682523
00741	16928212	-9.799015	-0.226942	-0.251242				-0.003774	0.001394	-0.000282				-139.547909	88.005703	-83.688119
00742	16928262	-9.797187	-0.242900	-0.245195				-0.000627	-0.002173	-0.000312				-139.542578	88.006858	-83.684684
00743	16928312	-9.796464	-0.213139	-0.267579				-0.003498	0.001693	-0.001022				-139.546172	88.006305	-83.687275
00744	16928362	-9.800484	-0.203736	-0.252381				-0.007563	-0.001683	-0.003242				-139.526485	88.006753	-83.667516
00745	16928412	-9.814928	-0.206543	-0.259490				-0.005783	-0.002062	0.000861				-139.522298	88.007602	-83.661592
00746	16928462	-9.810333	-0.204604	-0.275188				-0.004756	0.001964	-0.000277				-139.540580	88.007598	-83.680666
00747	16928512	-9.791276	-0.233670	-0.255284				-0.004567	-0.002276	-0.001936				-139.517429	88.007770	-83.656178
00748	16928562	-9.797147	-0.201490	-0.257353				-0.004795	0.003152	-0.002392				-139.528419	88.007276	-83.667914
00749	16928612	-9.805234	-0.215823	-0.268589				-0.002773	-0.004112	0.000584				-139.511018	88.008210	-83.649725
00750	16928662	-9.816895	-0.237813	-0.264333				-0.004479	-0.000847	-0.001318				-139.507431	88.008908	-83.646937
00751	16928712	-9.805383	-0.223157	-0.268444				-0.004150	-0.000937	0.001277				-139.511346	88.009445	-83.649632
00752	16928762	-9.794441	-0.211930	-0.250227				-0.002348	-0.002262	0.000396				-139.509981	88.010649	-83.649697
00753	16928812	-9.799690	-0.231609	-0.246458				-0.002548	-0.000367	-0.003247				-139.488334	88.010245	-83.627266
00754	16928862	-9.785336	-0.222923	-0.236829				-0.007585	-0.004007	-0.000913				-139.471772	88.011296	-83.610724
00755	16928912	-9.798365	-0.198912	-0.258465				-0.005504	0.002168	-0.002458				-139.469747	88.010238	-83.607165
00756	16928962	-9.804049	-0.199572	-0.262426				-0.002081	-0.002845	-0.002556				-139.446047	88.011320	-83.584832
00757	16929012	-9.810966	-0.215195	-0.267392				-0.005059	-0.001860	-0.000808				-139.432488	88.011668	-83.569782
00758	16929062	-9.798435	-0.211938	-0.259206				-0.000347	0.002160	-0.004779				-139.422157	88.010649	-83.561548
00759	16929112	-9.813375	-0.207330	-0.278446				-0.006241	-0.000947	-0.002567				-139.402513	88.010532	-83.540055
00760	16929162	-9.787438	-0.237925	-0.252632				-0.002380	-0.003492	-0.000510				-139.389270	88.011862	-83.528203
00761	16929212	-9.796985	-0.223393	-0.278794				-0.003189	0.000856	-0.001823				-139.383097	88.011418	-83.521086
00762	16929262	-9.825696	-0.220678	-0.260643				-0.005823	-0.000544	0.001800				-139.400816	88.012644	-83.539212
00763	16929312	-9.814107	-0.214919	-0.260562				-0.001485	0.001729	-0.001119				-139.403771	88.011929	-83.541786
00764	16929362	-9.790266	-0.215754	-0.264298				-0.005514	0.002693	-0.000463				-139.424437	88.012087	-83.562931
00765	16929412	-9.808430	-0.217090	-0.249939				-0.004324	-0.000583	0.000257				-139.423914	88.012464	-83.561104
00766	16929462	-9.807911	-0.204142	-0.244714				-0.004478	0.000089	-0.001923				-139.421831	88.012364	-83.559965
00767	16929512	-9.804397	-0.223684	-0.234114				-0.005847	-0.001064	-0.000866				-139.412332	88.012645	-83.548715
00768	16929562	-9.794582	-0.211258	-0.268005				-0.003047	-0.001602	-0.002741				-139.395526	88.012699	-83.533265
00769	16929612	-9.820153	-0.211424	-0.252574				-0.003522	-0.000966	-0.004530				-139.362868	88.012151	-83.499549
00770	16929662	-9.798232	-0.200693	-0.276428				-0.004822	0.000992	-0.000378				-139.375335	88.012513	-83.512722
00771	16929712	-9.791532	-0.197292	-0.251081				-0.002249	0.001448	-0.003403				-139.362631	88.011402	-83.499414
00772	16929762	-9.804445	-0.204209	-0.265371				-0.003657	0.000787	0.000967				-139.381287	88.011897	-83.519174
00773	16929812	-9.809016	-0.213435	-0.277975				-0.004541	-0.001048	-0.002315				-139.362376	88.011826	-83.498907
00774	16929862	-9.818535	-0.207299	-0.260468				-0.005206	0.000789	-0.002332				-139.361346	88.011886	-83.498476
00775	16929912	-9.810934	-0.189462	-0.269342				-0.005115	0.001954	-0.002712				-139.356464	88.010997	-83.492112
00776	16929962	-9.821466	-0.204269	-0.269937				-0.003589	0.000463	-0.000157				-139.366408	88.011978	-83.502989
00777	16930012	-9.798637	-0.207950	-0.255517				-0.005075	0.001023	0.000713				-139.377844	88.011781	-83.513007
00778	16930062	-9.806279	-0.220711	-0.265150				-0.006101	-0.003233	0.000597				-139.373978	88.013550	-83.509411
00779	16930112	-9.792089	-0.204337	-0.245464				-0.002604	0.001543	-0.002820				-139.365544	88.012641	-83.500242
00780	16930162	-9.808089	-0.213903	-0.256782				-0.003971	-0.002175	-0.006107				-139.324206	88.012274	-83.459972
00781	16930212	-9.793024	-0.213290	-0.268497				-0.008266	0.003219	-0.004688				-139.314383	88.010844	-83.447727
00782	16930262	-9.810559	-0.217245	-0.235975				-0.003149	-0.001405	-0.002292				-139.301100	88.011309	-83.435648
00783	16930312	-9.812310	-0.204001	-0.248806				-0.000186	-0.003100	-0.002047				-139.271423	88.011691	-83.405875
00784	16930362	-9.802704	-0.219032	-0.269859				-0.001999	0.000615	-0.003371				-139.262089	88.011500	-83.398086
00785	16930412	-9.795599	-0.215825	-0.270861				-0.005081	0.001986	-0.001784				-139.263068	88.010901	-83.397558
00786	16930462	-9.795288	-0.230259	-0.253118				-0.003886	0.000656	0.000481				-139.278782	88.011253	-83.414339
00787	16930512	-9.803493	-0.202718	-0.252074				-0.003854	0.000452	-0.003047				-139.263695	88.010559	-83.398148
00788	16930562	-9.811506	-0.218118	-0.273263				-0.006594	0.005290	-0.002917				-139.283130	88.009708	-83.417756
00789	16930612	-9.817668	-0.227117	-0.259285				-0.007538	0.003789	-0.000001				-139.305765	88.008873	-83.438244
00790	16930662	-9.817006	-0.220831	-0.264024				-0.005461	0.001118	0.001581				-139.330262	88.009711	-83.463242
00791	16930712	-9.812649	-0.210448	-0.257055				-0.006496	-0.000585	0.001834				-139.340517	88.009947	-83.471721
00792	16930762	-9.800360	-0.211566	-0.240554				-0.004285	0.000261	-0.000221				-139.349319	88.010596	-83.481369
00793	16930812	-9.801097	-0.218900	-0.259458				-0.002182	-0.002619	-0.002009				-139.323261	88.010854	-83.454651
00794	16930862	-9.800727	-0.212529	-0.256230				-0.004709	0.001410	-0.001888				-139.328202	88.011023	-83.460287
00795	16930912	-9.796786	-0.217707	-0.266621				-0.001179	0.003386	0.000746				-139.351373	88.010416	-83.483142
00796	16930962	-9.801602	-0.223094	-0.247139				-0.003387	0.003248	-0.000564				-139.374370	88.009926	-83.507409
00797	16931012	-9.781502	-0.212722	-0.245699				-0.008603	-0.001278	-0.002757				-139.352905	88.009496	-83.483525
00798	16931062	-9.809684	-0.196587	-0.263993				-0.001501	-0.001925	-0.002073				-139.337422	88.010625	-83.469567
00799	16931112	-9.809908	-0.213847	-0.270363				-0.003190	0.004124	-0.000912				-139.354915	88.009407	-83.486207
00800	16931162	-9.797574	-0.221004	-0.247820				-0.002562	0.001153	-0.004942				-139.338866	88.008881	-83.471514
00801	16931212	-9.808414	-0.223471	-0.262051				-0.000745	-0.000821	-0.005080				-139.303005	88.008129	-83.435414
00802	16931262	-9.811772	-0.210975	-0.243917				-0.002672	0.002708	-0.003546				-139.303775	88.007666	-83.437433
00803	16931312	-9.795972	-0.221178	-0.276433				-0.002397	-0.005179	-0.001990				-139.264362	88.008220	-83.397373
00804	16931362	-9.804638	-0.213045	-0.277498				-0.002891	0.002440	-0.003390				-139.264697	88.008018	-83.398853
00805	16931412	-9.794224	-0.212512	-0.267464				-0.002609	-0.000332	-0.002447				-139.248434	88.007656	-83.381828
00806	16931462	-9.804354	-0.225347	-0.259970				-0.005207	0.001884	-0.002618				-139.251664	88.007017	-83.385794
00807	16931512	-9.806735	-0.219290	-0.271970				-0.005367	0.001752	-0.004189				-139.236569	88.005608	-83.369228
00808	16931562	-9.788262	-0.239470	-0.252631				-0.005971	0.000646	-0.001983				-139.236834	88.006368	-83.369696
00809	16931612	-9.802333	-0.228676	-0.270538				-0.002433	0.001261	-0.001150				-139.237199	88.005768	-83.369403
00810	16931662	-9.801403	-0.216579	-0.253319				-0.000155	-0.000668	0.001200				-139.248612	88.006868	-83.382837
00811	16931712	-9.801830	-0.221572	-0.252123				0.001643	0.002404	0.000127				-139.261565	88.006596	-83.396200
00812	16931762	-9.808023	-0.210599	-0.273207				-0.005025	0.002545	0.001749				-139.295710	88.006962	-83.431062
00813	16931812	-9.789629	-0.221675	-0.260794				-0.002241	0.000155	-0.004724				-139.267478	88.006213	-83.402111
00814	16931862	-9.811362	-0.232670	-0.266906				-0.004709	0.001219	-0.002588				-139.266974	88.006136	-83.402341
00815	16931912	-9.797244	-0.206296	-0.253475				-0.004750	-0.001268	0.000380				-139.264080	88.006187	-83.398183
00816	16931962	-9.784502	-0.246760	-0.268758				-0.005349	0.001304	-0.000761				-139.275636	88.006440	-83.410316
00817	16932012	-9.807228	-0.204208	-0.260620				-0.007018	-0.002607	-0.001452				-139.254493	88.006766	-83.387141
00818	16932062	-9.800520	-0.218467	-0.238603				-0.002855	-0.002594	-0.000629				-139.245309	88.007877	-83.379230
00819	16932112	-9.802203	-0.207535	-0.258808				-0.004073	-0.000582	-0.002218				-139.229581	88.007485	-83.362357
00820	16932162	-9.794430	-0.221668	-0.253786				-0.008217	-0.000102	0.000141				-139.240031	88.008230	-83.372557
00821	16932212	-9.798004	-0.221790	-0.254801				-0.003581	0.002176	-0.002497				-139.236879	88.007535	-83.368297
00822	16932262	-9.800378	-0.219813	-0.258617				-0.002827	0.000709	0.000898				-139.255298	88.007792	-83.388153
00823	16932312	-9.820012	-0.214207	-0.253213				-0.003415	0.001049	-0.000957				-139.255990	88.007424	-83.387854
00824	16932362	-9.804708	-0.227199	-0.275567				-0.003085	-0.001404	-0.000459				-139.253719	88.008550	-83.386726
00825	16932412	-9.806599	-0.202322	-0.251566				-0.002332	-0.001009	-0.003442				-139.227700	88.008001	-83.360058
00826	16932462	-9.794158	-0.221570	-0.259089				-0.005300	-0.000018	0.000486				-139.239814	88.008917	-83.372705
00827	16932512	-9.811869	-0.213344	-0.262815				-0.002351	-0.000394	-0.003536				-139.216524	88.008326	-83.348728
00828	16932562	-9.805068	-0.201752	-0.268922				-0.006199	0.002806	-0.003443				-139.219567	88.007674	-83.352137
00829	16932612	-9.815657	-0.207477	-0.277979				-0.004295	0.002255	-0.004221				-139.206401	88.006304	-83.337763
00830	16932662	-9.803252	-0.207679	-0.280602				-0.002401	0.000288	-0.001385				-139.207581	88.006781	-83.340312
00831	16932712	-9.793409	-0.226915	-0.255677				-0.001538	-0.001963	-0.003482				-139.175638	88.006613	-83.307890
00832	16932762	-9.800912	-0.213273	-0.262658				-0.006155	0.000846	0.002320				-139.204415	88.007550	-83.336998
00833	16932812	-9.794517	-0.225500	-0.271314				-0.002437	0.000321	-0.000776				-139.201930	88.007304	-83.333822
00834	16932862	-9.807759	-0.210680	-0.239104				-0.005199	-0.000174	0.001927				-139.222303	88.008495	-83.354781
00835	16932912	-9.815637	-0.211252	-0.272080				-0.004181	-0.001903	0.002431				-139.228374	88.009534	-83.359600
00836	16932962	-9.817883	-0.218622	-0.241229				-0.002733	-0.000267	-0.000840				-139.230524	88.009546	-83.363234
00837	16933012	-9.788818	-0.233989	-0.252374				-0.008737	0.001083	-0.000435				-139.236327	88.009182	-83.366551
00838	16933062	-9.781468	-0.224999	-0.263948				-0.004558	-0.000463	-0.001705				-139.231887	88.009481	-83.362963
00839	16933112	-9.804220	-0.217471	-0.259260				-0.007115	-0.000631	-0.000733				-139.225750	88.009334	-83.354836
00840	16933162	-9.793375	-0.214994	-0.246362				-0.005084	-0.000181	-0.002757				-139.216983	88.009904	-83.346557
00841	16933212	-9.787286	-0.216730	-0.264910				-0.001850	0.000011	-0.000940				-139.211613	88.009810	-83.340622
00842	16933262	-9.801973	-0.213968	-0.243756				-0.000983	0.001991	-0.002887				-139.212494	88.009342	-83.343374
00843	16933312	-9.811655	-0.214566	-0.255597				-0.005022	-0.000951	-0.000420				-139.206141	88.009496	-83.335574
00844	16933362	-9.808909	-0.223028	-0.259098				-0.005399	0.000884	-0.001888				-139.208039	88.009808	-83.337948
00845	16933412	-9.801826	-0.223428	-0.248419				-0.002368	-0.001173	-0.005142				-139.170259	88.009005	-83.299498
00846	16933462	-9.812582	-0.211093	-0.266999				-0.004148	0.002842	-0.003289				-139.174094	88.008435	-83.304252
00847	16933512	-9.806097	-0.205327	-0.248970				-0.003624	0.000562	-0.000063				-139.177791	88.008274	-83.306923
00848	16933562	-9.814625	-0.221094	-0.262560				-0.004251	0.000194	-0.001056				-139.181344	88.008854	-83.311284
00849	16933612	-9.798843	-0.228343	-0.258632				-0.000294	0.001653	-0.001609				-139.180222	88.008086	-83.310116
00850	16933662	-9.803546	-0.234419	-0.256455				-0.005336	0.001915	-0.003099				-139.180469	88.007716	-83.310947
00851	16933712	-9.795164	-0.220269	-0.253834				-0.002364	0.000097	-0.001322				-139.173190	88.007462	-83.302981
00852	16933762	-9.791833	-0.220975	-0.252374				-0.002203	0.001230	-0.000290				-139.186542	88.007772	-83.317822
00853	16933812	-9.787061	-0.221460	-0.253612				-0.004830	0.000889	-0.003716				-139.169514	88.006920	-83.299386
00854	16933862	-9.820798	-0.225659	-0.257023				-0.001357	0.001387	0.004301				-139.212022	88.008076	-83.343646
00855	16933912	-9.814611	-0.197020	-0.275301				-0.006878	0.001017	-0.002038				-139.206834	88.007304	-83.336536
00856	16933962	-9.799476	-0.202054	-0.248283				-0.003640	0.001716	-0.004996				-139.193734	88.006792	-83.324395
00857	16934012	-9.813560	-0.195273	-0.256703				-0.005850	-0.003970	0.001300				-139.182207	88.007848	-83.311200
00858	16934062	-9.799923	-0.220157	-0.255995				-0.008332	0.002380	-0.002771				-139.187849	88.007553	-83.316525
00859	16934112	-9.790586	-0.225111	-0.253112				-0.002859	0.001241	-0.005740				-139.159634	88.006056	-83.287530
00860	16934162	-9.812220	-0.208139	-0.254163				-0.006445	-0.001331	0.000606				-139.165249	88.007539	-83.293267
00861	16934212	-9.800406	-0.200208	-0.256188				-0.002007	0.000002	-0.001131				-139.158648	88.007427	-83.286056
00862	16934262	-9.821374	-0.194524	-0.264746				-0.004992	0.000381	0.001288				-139.177799	88.008032	-83.305949
00863	16934312	-9.809801	-0.220229	-0.274644				-0.001957	0.003397	-0.002169				-139.183172	88.006729	-83.310817
00864	16934362	-9.793063	-0.213771	-0.260161				-0.001729	-0.001930	-0.002135				-139.168060	88.007580	-83.297215
00865	16934412	-9.796867	-0.221444	-0.245639				-0.001404	-0.001057	-0.004087				-139.137232	88.007224	-83.265906
00866	16934462	-9.804586	-0.227601	-0.255722				-0.006922	0.002276	-0.002418				-139.144206	88.006572	-83.273125
00867	16934512	-9.795488	-0.226835	-0.265316				-0.004520	0.001153	-0.003745				-139.128376	88.005568	-83.256009
00868	16934562	-9.795749	-0.224846	-0.265750				-0.003102	-0.000626	0.000122				-139.134420	88.006482	-83.263239
00869	16934612	-9.783753	-0.231172	-0.267436				-0.004326	-0.003015	-0.003963				-139.094854	88.006253	-83.222454
00870	16934662	-9.825626	-0.219925	-0.257460				-0.002389	-0.000902	0.000284				-139.099941	88.007323	-83.228903
00871	16934712	-9.799613	-0.202920	-0.263204				-0.007184	0.002725	-0.001451				-139.107659	88.006351	-83.234600
00872	16934762	-9.806076	-0.203814	-0.255190				-0.002521	-0.000974	-0.000623				-139.107063	88.006983	-83.235445
00873	16934812	-9.801718	-0.218886	-0.276082				-0.006305	0.001124	-0.002524				-139.099135	88.006444	-83.225643
00874	16934862	-9.796120	-0.216856	-0.259937				-0.004473	-0.003042	0.000558				-139.094751	88.007956	-83.222070
00875	16934912	-9.789950	-0.229483	-0.269375				-0.003478	-0.002247	-0.001108				-139.076555	88.008322	-83.202840
00876	16934962	-9.788253	-0.239630	-0.254261				0.000364	-0.000913	0.000492				-139.082346	88.009149	-83.210880
00877	16935012	-9.812718	-0.200086	-0.267658				-0.004903	0.002740	0.001463				-139.107764	88.008640	-83.234972
00878	16935062	-9.788740	-0.221695	-0.250437				-0.005893	0.001357	-0.001593				-139.114634	88.008823	-83.242232
00879	16935112	-9.798210	-0.202726	-0.259053				-0.003865	-0.000094	-0.002056				-139.102366	88.008630	-83.228793
00880	16935162	-9.776783	-0.219946	-0.262021				-0.004286	-0.000877	-0.000808				-139.101389	88.009349	-83.228687
00881	16935212	-9.803517	-0.212467	-0.267166				0.000601	0.000204	-0.005306				-139.069162	88.008383	-83.196589
00882	16935262	-9.802176	-0.227678	-0.260717				-0.001053	0.001350	0.000702				-139.088795	88.008895	-83.218061
00883	16935312	-9.814173	-0.203484	-0.256569				-0.002730	-0.000560	-0.002923				-139.068276	88.008390	-83.196772
00884	16935362	-9.783899	-0.229123	-0.248388				-0.002943	0.002053	-0.004260				-139.061347	88.007782	-83.191094
00885	16935412	-9.803102	-0.209098	-0.263123				-0.003031	0.000024	-0.000738				-139.057692	88.007660	-83.186560
00886	16935462	-9.812565	-0.215756	-0.260453				-0.003932	0.000872	-0.004359				-139.044002	88.007414	-83.173761
00887	16935512	-9.798990	-0.216793	-0.258546				-0.005626	-0.001256	-0.002508				-139.023201	88.007131	-83.151363
00888	16935562	-9.806025	-0.231500	-0.284615				-0.003078	-0.000395	0.001536				-139.039244	88.008332	-83.168575
00889	16935612	-9.780725	-0.212351	-0.255304				-0.004541	0.000829	-0.003429				-139.023675	88.007522	-83.151689
00890	16935662	-9.801897	-0.217594	-0.248489				-0.005743	0.000782	0.000007				-139.037678	88.007631	-83.166295
00891	16935712	-9.793427	-0.208510	-0.249788				-0.006293	0.001834	-0.001752				-139.038828	88.006524	-83.165768
00892	16935762	-9.794357	-0.217454	-0.274113				-0.004416	-0.001351	0.003845				-139.063358	88.008921	-83.190914
00893	16935812	-9.807871	-0.213716	-0.253567				-0.006329	0.002330	0.001945				-139.089771	88.008910	-83.215487
00894	16935862	-9.813230	-0.221923	-0.255582				-0.001679	-0.001184	0.000181				-139.092889	88.009850	-83.220240
00895	16935912	-9.779728	-0.225984	-0.274238				-0.004267	0.000450	-0.001571				-139.086679	88.009350	-83.212839
00896	16935962	-9.782655	-0.216393	-0.281783				-0.004043	0.004721	-0.000844				-139.116186	88.008742	-83.243339
00897	16936012	-9.813350	-0.213443	-0.253976				-0.001606	0.002599	-0.002559				-139.114482	88.007759	-83.241163
00898	16936062	-9.813004	-0.226866	-0.244188				-0.004628	0.002836	-0.001202				-139.131491	88.007729	-83.258890
00899	16936112	-9.791624	-0.217692	-0.254501				-0.003932	-0.001097	-0.002125				-139.113157	88.007563	-83.239419
00900	16936162	-9.800684	-0.208663	-0.271064				-0.003879	0.000624	0.001254				-139.133270	88.008450	-83.260482
00901	16936212	-9.808822	-0.211621	-0.258093				-0.006030	0.002781	0.000115				-139.150585	88.008099	-83.276000
00902	16936262	-9.795167	-0.224498	-0.245358				-0.004497	-0.000396	-0.001284				-139.149857	88.007920	-83.276279
00903	16936312	-9.799529	-0.214483	-0.254214				-0.001664	-0.000995	-0.003605				-139.122616	88.007222	-83.248622
00904	16936362	-9.801706	-0.221511	-0.272364				0.000027	0.005867	0.000308				-139.163818	88.006845	-83.291911
00905	16936412	-9.796088	-0.215868	-0.268121				-0.003033	-0.001244	-0.002674				-139.141614	88.006529	-83.268851
00906	16936462	-9.815491	-0.234236	-0.250145				-0.001831	0.000034	-0.006072				-139.111578	88.006589	-83.240194
00907	16936512	-9.805079	-0.207656	-0.254508				-0.004068	0.002392	-0.002459				-139.110214	88.005629	-83.237659
00908	16936562	-9.806001	-0.204098	-0.267652				-0.003510	-0.001219	-0.002030				-139.100405	88.005774	-83.229078
00909	16936612	-9.795203	-0.229778	-0.265794				-0.004949	0.001156	0.001934				-139.119912	88.005930	-83.247161
00910	16936662	-9.796103	-0.216823	-0.261960				-0.008023	0.002005	0.000597				-139.144257	88.006347	-83.271313
00911	16936712	-9.813437	-0.222083	-0.260794				-0.004082	-0.001095	0.000253				-139.141025	88.006427	-83.266980
00912	16936762	-9.789276	-0.233665	-0.255054				-0.003875	0.000560	0.001317				-139.161010	88.007454	-83.287866
00913	16936812	-9.818151	-0.205525	-0.262543				-0.003497	0.000559	-0.001668				-139.154512	88.007153	-83.280319
00914	16936862	-9.810909	-0.216886	-0.255942				-0.007589	0.000560	0.001425				-139.176081	88.007876	-83.301867
00915	16936912	-9.799484	-0.221032	-0.285258				-0.001764	0.001564	0.000161				-139.185953	88.007385	-83.311297
00916	16936962	-9.812406	-0.210229	-0.258818				-0.005031	0.001537	0.000589				-139.207420	88.007958	-83.333391
00917	16937012	-9.819766	-0.212518	-0.258194				-0.003607	-0.002320	-0.002640				-139.179695	88.007851	-83.304651
00918	16937062	-9.809969	-0.213240	-0.262144				0.000408	0.000697	-0.000521				-139.187370	88.008426	-83.314498
00919	16937112	-9.798037	-0.218439	-0.255435				-0.006174	0.001030	-0.001528				-139.185557	88.007683	-83.310993
00920	16937162	-9.807583	-0.198836	-0.251954				-0.003648	-0.004803	0.001575				-139.177831	88.010007	-83.304215
00921	16937212	-9.786541	-0.221305	-0.259631				-0.004271	0.001646	-0.000762				-139.182785	88.009634	-83.307907
00922	16937262	-9.805085	-0.206928	-0.255435				-0.002290	-0.000194	-0.002156				-139.176790	88.009828	-83.303382
00923	16937312	-9.804908	-0.215437	-0.266768				-0.004263	0.000487	-0.000925				-139.174854	88.009385	-83.300274
00924	16937362	-9.793272	-0.218324	-0.256190				0.000297	-0.000019	-0.001074				-139.175458	88.010125	-83.302993
00925	16937412	-9.789056	-0.227131	-0.265892				-0.006533	0.003386	-0.000138				-139.194701	88.009439	-83.320354
00926	16937462	-9.798209	-0.220245	-0.262025				-0.003789	0.003754	-0.000817				-139.218646	88.008930	-83.345382
00927	16937512	-9.797797	-0.219664	-0.254094				-0.006695	0.002281	-0.002774				-139.215551	88.008128	-83.340296
00928	16937562	-9.817974	-0.210855	-0.242646				-0.004294	0.000154	-0.003365				-139.204326	88.007759	-83.330060
00929	16937612	-9.814050	-0.210942	-0.262041				-0.006653	-0.001177	-0.002278				-139.185758	88.007660	-83.309551
00930	16937662	-9.810749	-0.210962	-0.255639				-0.006965	0.000889	-0.000693				-139.196167	88.007766	-83.320140
00931	16937712	-9.798162	-0.227035	-0.256008				-0.003585	0.002071	-0.005191				-139.176081	88.006437	-83.298979
00932	16937762	-9.804014	-0.217110	-0.253853				-0.004226	0.002392	-0.000728				-139.193239	88.006448	-83.317036
00933	16937812	-9.797730	-0.225872	-0.251580				-0.001887	-0.000997	-0.003158				-139.168536	88.005961	-83.291812
00934	16937862	-9.816251	-0.207902	-0.257497				-0.006066	-0.000189	0.001322				-139.185052	88.007298	-83.308576
00935	16937912	-9.794462	-0.197634	-0.259606				-0.005276	0.002279	-0.000049				-139.198425	88.007024	-83.320365
00936	16937962	-9.797602	-0.226959	-0.269074				-0.001080	-0.003114	-0.000827				-139.184512	88.008223	-83.308236
00937	16938012	-9.818461	-0.202737	-0.256811				-0.002234	-0.000803	0.000508				-139.183975	88.008427	-83.307075
00938	16938062	-9.800045	-0.209898	-0.255740				-0.004357	0.001515	0.000074				-139.201618	88.008697	-83.325609
00939	16938112	-9.803688	-0.212026	-0.279436				-0.003494	0.001335	-0.003268				-139.189307	88.007885	-83.312261
00940	16938162	-9.805590	-0.207468	-0.249619				-0.001959	-0.002545	-0.001047				-139.177380	88.008759	-83.301941
00941	16938212	-9.794514	-0.217494	-0.248081				-0.003991	0.001172	0.000388				-139.187152	88.008552	-83.310586
00942	16938262	-9.784064	-0.226399	-0.265337				-0.004636	0.000217	0.000000				-139.197613	88.009143	-83.321822
00943	16938312	-9.799180	-0.215434	-0.268631				-0.002755	0.000118	-0.003917				-139.174806	88.008325	-83.298230
00944	16938362	-9.807267	-0.220624	-0.260426				-0.003214	-0.002312	-0.001140				-139.163366	88.009237	-83.287985
00945	16938412	-9.804520	-0.214835	-0.254188				-0.008724	-0.001641	-0.004522				-139.128999	88.008585	-83.251152
00946	16938462	-9.810421	-0.223804	-0.243405				-0.002190	-0.002518	-0.001846				-139.112219	88.009507	-83.235805
00947	16938512	-9.809034	-0.210933	-0.264175				-0.002921	-0.001863	-0.004406				-139.075484	88.008804	-83.198300
00948	16938562	-9.801210	-0.223717	-0.270964				-0.001083	-0.002015	-0.001048				-139.066117	88.009921	-83.190656
00949	16938612	-9.810892	-0.227112	-0.276135				-0.002903	-0.003443	-0.003484				-139.026620	88.010154	-83.150253
00950	16938662	-9.812955	-0.203307	-0.261061				-0.001765	-0.001542	-0.001135				-139.019205	88.010769	-83.144470
00951	16938712	-9.796073	-0.220745	-0.260368				-0.004831	0.003254	-0.002036				-139.025534	88.009715	-83.149409
00952	16938762	-9.810624	-0.217068	-0.263800				-0.007056	0.000560	-0.002751				-139.020509	88.010211	-83.144299
00953	16938812	-9.784984	-0.232677	-0.257511				-0.005847	0.003042	-0.000976				-139.032500	88.009515	-83.154569
00954	16938862	-9.799090	-0.223428	-0.268121				-0.004069	-0.001679	-0.000715				-139.028093	88.010069	-83.151210
00955	16938912	-9.793979	-0.237552	-0.257469				-0.001507	0.003541	-0.000341				-139.045196	88.009326	-83.167865
00956	16938962	-9.799841	-0.222023	-0.265133				-0.005582	0.002823	0.000145				-139.070341	88.009608	-83.193453
00957	16939012	-9.796921	-0.222820	-0.273438				-0.006633	0.000606	0.001167				-139.082744	88.009622	-83.203986
00958	16939062	-9.805347	-0.219315	-0.264594				-0.005700	0.001364	0.000070				-139.100204	88.009790	-83.222005
00959	16939112	-9.807442	-0.220419	-0.270972				-0.006803	-0.000431	-0.001116				-139.092764	88.009652	-83.212620
00960	16939162	-9.822257	-0.205736	-0.254605				-0.002816	0.000151	-0.002792				-139.084812	88.009917	-83.205893
00961	16939212	-9.825442	-0.210836	-0.267027				-0.002814	-0.001080	-0.003985				-139.054853	88.009482	-83.175083
00962	16939262	-9.822062	-0.199488	-0.259326				-0.005575	-0.002872	-0.002769				-139.030852	88.010285	-83.151550
00963	16939312	-9.804966	-0.209453	-0.270483				-0.005602	-0.001736	0.000699				-139.027881	88.010562	-83.147046
00964	16939362	-9.818648	-0.202629	-0.266103				-0.004417	-0.002911	-0.000816				-139.015944	88.011911	-83.135858
00965	16939412	-9.814631	-0.201668	-0.262374				-0.004686	0.002839	0.000305				-139.034868	88.011092	-83.153533
00966	16939462	-9.799127	-0.208714	-0.253053				-0.003943	-0.000608	-0.000935				-139.034296	88.011669	-83.153952
00967	16939512	-9.804961	-0.202011	-0.246601				-0.002692	0.001648	0.001832				-139.055428	88.011475	-83.174386
00968	16939562	-9.816883	-0.215380	-0.294412				-0.006092	-0.000382	0.001671				-139.072706	88.013163	-83.191813
00969	16939612	-9.805316	-0.216115	-0.277454				-0.001881	-0.001230	-0.005436				-139.032559	88.012552	-83.151055
00970	16939662	-9.795621	-0.220081	-0.256661				-0.001917	0.001007	-0.002179				-139.033055	88.012248	-83.153230
00971	16939712	-9.807730	-0.222777	-0.258501				-0.005764	-0.000835	-0.001475				-139.020970	88.012228	-83.139457
00972	16939762	-9.812054	-0.225630	-0.246793				-0.004038	0.001360	-0.001115				-139.030313	88.012133	-83.149870
00973	16939812	-9.803938	-0.211417	-0.239842				-0.005151	0.000948	-0.003618				-139.014256	88.011378	-83.132284
00974	16939862	-9.796135	-0.214195	-0.254991				-0.004529	-0.000174	0.000740				-139.026931	88.012424	-83.145709
00975	16939912	-9.796709	-0.221723	-0.249147				-0.007277	0.001665	-0.001293				-139.030164	88.011732	-83.146885
00976	16939962	-9.799074	-0.217356	-0.260832				-0.005637	0.001303	-0.002903				-139.028312	88.011476	-83.145555
00977	16940012	-9.781709	-0.215886	-0.261447				-0.005772	0.003789	-0.001160				-139.043177	88.010504	-83.158756
00978	16940062	-9.808325	-0.216071	-0.269451				-0.004461	0.001778	-0.001264				-139.053755	88.010702	-83.170121
00979	16940112	-9.789404	-0.235719	-0.285744				-0.005969	-0.000959	0.002383				-139.065228	88.011245	-83.179927
00980	16940162	-9.800203	-0.219414	-0.267047				-0.001829	0.000491	-0.003304				-139.055351	88.011096	-83.171660
00981	16940212	-9.812459	-0.213225	-0.261052				-0.003273	0.002705	-0.001262				-139.062954	88.010460	-83.178266
00982	16940262	-9.805662	-0.204529	-0.260674				-0.003777	-0.002634	0.000443				-139.060483	88.011454	-83.176919
00983	16940312	-9.802241	-0.192256	-0.261324				-0.002199	-0.000058	-0.002240				-139.046797	88.010947	-83.162626
00984	16940362	-9.792737	-0.207451	-0.266081				-0.001300	-0.000886	-0.000516				-139.046723	88.012045	-83.164144
00985	16940412	-9.799184	-0.218361	-0.279781				-0.002263	0.001337	0.002444				-139.069935	88.012259	-83.186704
00986	16940462	-9.808790	-0.218533	-0.266128				-0.006535	0.002713	0.000928				-139.099887	88.012077	-83.217032
00987	16940512	-9.777609	-0.215540	-0.268738				-0.005290	-0.003806	-0.002643				-139.064269	88.012401	-83.179879
00988	16940562	-9.806921	-0.219077	-0.258353				-0.003932	-0.000829	-0.000609				-139.064702	88.013409	-83.181190
00989	16940612	-9.789126	-0.221031	-0.243610				-0.005598	-0.000764	-0.001245				-139.054402	88.013153	-83.169338
00990	16940662	-9.809696	-0.204252	-0.264093				-0.002248	-0.001118	0.002050				-139.069230	88.015061	-83.185439
00991	16940712	-9.786757	-0.226790	-0.270205				-0.007201	0.000273	-0.000755				-139.067894	88.014867	-83.182036
00992	16940762	-9.795126	-0.211465	-0.257260				-0.005264	-0.000638	-0.005448				-139.039724	88.014438	-83.154497
00993	16940812	-9.808352	-0.222819	-0.251649				-0.003651	0.000236	-0.003297				-139.021777	88.013467	-83.135589
00994	16940862	-9.800804	-0.211668	-0.262769				-0.003460	0.001337	-0.003327				-139.016621	88.013520	-83.131439
00995	16940912	-9.809329	-0.220489	-0.252656				-0.004663	0.002901	-0.003216				-139.013762	88.012088	-83.127309
00996	16940962	-9.802560	-0.223970	-0.261556				-0.007190	0.000891	0.000339				-139.030463	88.012878	-83.143985
00997	16941012	-9.806855	-0.227372	-0.252418				-0.005922	0.001790	0.003584				-139.064113	88.013214	-83.175944
00998	16941062	-9.789922	-0.227932	-0.256201				-0.007417	-0.000991	-0.000665				-139.064575	88.013801	-83.176443
00999	16941112	-9.815669	-0.210157	-0.248302				-0.003628	0.000691	-0.002044				-139.056664	88.013231	-83.167504
01000	16941162	-9.818142	-0.202801	-0.248479				-0.002328	0.000098	-0.001154				-139.058495	88.013575	-83.170801
01001	16941212	-9.806306	-0.209716	-0.262139				-0.003745	-0.001534	0.001408				-139.059962	88.014213	-83.171181
01002	16941262	-9.807805	-0.208657	-0.252175				-0.002903	0.001521	0.002132				-139.090379	88.014814	-83.202928
01003	16941312	-9.785123	-0.213229	-0.252977				-0.001821	-0.001703	-0.001039				-139.075262	88.014863	-83.187318
01004	16941362	-9.816027	-0.213543	-0.259958				-0.001831	-0.002509	-0.001390				-139.060937	88.015916	-83.174485
01005	16941412	-9.798098	-0.212535	-0.236108				0.000297	-0.001120	-0.005401				-139.021299	88.015025	-83.134941
01006	16941462	-9.798833	-0.194842	-0.268026				-0.005879	0.000110	0.002317				-139.045313	88.016335	-83.159304
01007	16941512	-9.797555	-0.204614	-0.261991				-0.002892	-0.001097	0.001924				-139.052077	88.017078	-83.165195
01008	16941562	-9.801823	-0.212513	-0.250439				-0.001016	-0.001881	-0.000492				-139.046874	88.018285	-83.161730
01009	16941612	-9.797194	-0.207837	-0.275937				-0.003868	0.000039	-0.001759				-139.037202	88.017952	-83.150942
01010	16941662	-9.789666	-0.209456	-0.257470				-0.000249	-0.000963	-0.002227				-139.025460	88.018431	-83.141219
01011	16941712	-9.811904	-0.224602	-0.251403				-0.007576	-0.001421	-0.004932				-138.989296	88.017771	-83.102875
01012	16941762	-9.804549	-0.213038	-0.270152				-0.002073	-0.000189	-0.004206				-138.970133	88.017769	-83.085173
01013	16941812	-9.799736	-0.238057	-0.266606				-0.003422	0.002576	0.000980				-138.991270	88.017659	-83.105257
01014	16941862	-9.818000	-0.209335	-0.258695				-0.006501	0.003386	-0.002118				-139.006150	88.016487	-83.120616
01015	16941912	-9.806475	-0.217187	-0.257394				-0.004262	0.000684	-0.000950				-139.005091	88.016205	-83.118324
01016	16941962	-9.804029	-0.205641	-0.252892				-0.002234	0.000037	-0.002272				-138.999341	88.016508	-83.113994
01017	16942012	-9.823315	-0.204363	-0.255618				-0.003914	-0.002348	0.000155				-138.988803	88.017029	-83.102330
01018	16942062	-9.819074	-0.212166	-0.271987				-0.002103	0.001172	-0.001175				-138.995589	88.017394	-83.110571
01019	16942112	-9.796682	-0.213803	-0.269249				-0.006445	0.001842	-0.000139				-139.006258	88.017088	-83.119362
01020	16942162	-9.810470	-0.221733	-0.257699				-0.001837	0.001857	-0.001818				-139.013890	88.016728	-83.128639
01021	16942212	-9.802392	-0.201138	-0.257455				-0.006037	0.001610	-0.005081				-138.992386	88.015448	-83.105386
01022	16942262	-9.799469	-0.220935	-0.265953				-0.003910	0.002829	0.002395				-139.031685	88.015883	-83.145709
01023	16942312	-9.788844	-0.219611	-0.253726				-0.002260	0.002205	0.000688				-139.048796	88.015436	-83.162211
01024	16942362	-9.806665	-0.216637	-0.266535				-0.000042	0.000689	-0.002117				-139.046601	88.015832	-83.162022
01025	16942412	-9.799626	-0.226508	-0.268275				-0.004721	0.001966	-0.001556				-139.049095	88.014982	-83.163201
01026	16942462	-9.799763	-0.202861	-0.255768				-0.002642	0.000191	0.000807				-139.063694	88.015721	-83.179150
01027	16942512	-9.788276	-0.226261	-0.257011				-0.005265	-0.001151	-0.001670				-139.048333	88.015748	-83.162242
01028	16942562	-9.804528	-0.210788	-0.278073				-0.003374	0.000659	-0.003489				-139.039021	88.015685	-83.154032
01029	16942612	-9.793358	-0.225068	-0.244534				0.001305	-0.000188	0.000241				-139.039242	88.015653	-83.154668
01030	16942662	-9.805027	-0.214470	-0.267278				-0.002912	0.001185	-0.003068				-139.034914	88.015724	-83.151532
01031	16942712	-9.810007	-0.203321	-0.254266				-0.006016	-0.000805	-0.002012				-139.019669	88.015638	-83.134513
01032	16942762	-9.799794	-0.211994	-0.269997				-0.005234	0.001923	-0.001134				-139.031981	88.015777	-83.147396
01033	16942812	-9.807399	-0.204320	-0.249546				-0.003900	0.000205	-0.000826				-139.029222	88.015457	-83.143559
01034	16942862	-9.798555	-0.203372	-0.257638				-0.000703	-0.001747	-0.001648				-139.017331	88.016023	-83.133600
01035	16942912	-9.809451	-0.220884	-0.269883				-0.004400	0.001843	-0.000975				-139.022537	88.015419	-83.137555
01036	16942962	-9.800498	-0.219208	-0.257956				-0.004598	0.001360	0.002162				-139.052309	88.016253	-83.168118
01037	16943012	-9.804283	-0.215328	-0.269440				-0.001355	0.000961	0.000519				-139.061220	88.016059	-83.176676
01038	16943062	-9.807577	-0.201194	-0.266014				-0.000332	-0.000289	-0.001897				-139.055452	88.016359	-83.172940
01039	16943112	-9.808124	-0.215874	-0.262698				-0.005125	0.000671	0.002065				-139.073410	88.016556	-83.189455
01040	16943162	-9.804714	-0.226060	-0.254757				-0.003885	-0.000349	-0.002115				-139.067768	88.016957	-83.184768
01041	16943212	-9.814089	-0.220395	-0.251913				-0.003321	0.000754	-0.005382				-139.039149	88.015977	-83.155120
01042	16943262	-9.811067	-0.204258	-0.272463				-0.005259	-0.001738	-0.003946				-139.014655	88.015713	-83.131385
01043	16943312	-9.813353	-0.216966	-0.262431				-0.002252	-0.000184	0.000127				-139.014777	88.015851	-83.130837
01044	16943362	-9.805035	-0.215746	-0.262161				-0.001547	-0.002540	-0.003510				-138.987011	88.016797	-83.104586
01045	16943412	-9.801539	-0.221843	-0.275744				-0.009040	0.001598	-0.001863				-138.986669	88.016155	-83.101638
01046	16943462	-9.797367	-0.206424	-0.250519				-0.003648	-0.000867	-0.004362				-138.963390	88.016249	-83.079371
01047	16943512	-9.793027	-0.217142	-0.238141				-0.002573	0.002776	-0.002871				-138.961152	88.015065	-83.076415
01048	16943562	-9.787704	-0.209150	-0.268173				-0.002151	-0.004355	0.002733				-138.962916	88.017199	-83.079657
01049	16943612	-9.805886	-0.208439	-0.255113				-0.002532	0.001618	-0.000149				-138.971318	88.017069	-83.087260
01050	16943662	-9.813357	-0.210991	-0.274123				-0.005635	0.000858	0.003804				-139.009240	88.018091	-83.125762
01051	16943712	-9.809935	-0.222632	-0.265358				-0.003812	0.001366	-0.001622				-139.007485	88.017431	-83.122927
01052	16943762	-9.811775	-0.204270	-0.235637				-0.004794	0.003295	-0.000040				-139.034574	88.017091	-83.150851
01053	16943812	-9.806578	-0.212815	-0.250649				0.001279	-0.002553	-0.001527				-139.010890	88.017321	-83.127533
01054	16943862	-9.805120	-0.208864	-0.262100				-0.005606	0.001528	-0.001714				-139.017944	88.017427	-83.135044
01055	16943912	-9.818570	-0.201717	-0.260236				-0.005451	0.000431	-0.003356				-139.001173	88.016533	-83.116756
