// General information: 
//  MT Manager version: 2022.0.0 
//  XDA version: 2022.0.0 build 7085 rev 119802 built on 2022-11-08
// Device information: 
//  DeviceId: 037004D1
//  ProductCode: MTi-300-2A5G4
//  Firmware Version: 1.4.1
//  Hardware Version: 2.1.0
// Device settings: 
//  Filter Profile: general(39.16)
//  Option Flags: Orientation Smoother Disabled, Position/Velocity Smoother Disabled, Continuous Zero Rotation Update Disabled, AHS Disabled, ICC Disabled
// Coordinate system: ENU
PacketCounter	SampleTimeFine	Acc_X	Acc_Y	Acc_Z	AccHR_X	AccHR_Y	AccHR_Z	Gyr_X	Gyr_Y	Gyr_Z	GyrHR_X	GyrHR_Y	GyrHR_Z	Roll	Pitch	Yaw
00001	13633562	0.060903	0.131714	-9.816130				-0.002136	-0.001293	-0.001151				179.319698	-0.409970	-40.578935
00002	13633612	0.077916	0.123625	-9.814294				-0.003693	-0.000479	0.000368				179.318641	-0.409834	-40.579038
00003	13633662	0.081989	0.111956	-9.826536				-0.003222	0.001559	-0.001744				179.319717	-0.409998	-40.579316
00004	13633712	0.085765	0.119646	-9.811457				-0.002404	-0.000944	-0.001439				179.319025	-0.409723	-40.578914
00005	13633762	0.076078	0.124192	-9.824107				-0.002879	0.002152	-0.000326				179.320202	-0.410062	-40.579578
00006	13633812	0.060059	0.112770	-9.832414				-0.003246	-0.000732	-0.002459				179.319267	-0.409844	-40.578872
00007	13633862	0.064446	0.121725	-9.823580				-0.004803	0.000018	-0.001104				179.319892	-0.409570	-40.579342
00008	13633912	0.081565	0.108857	-9.823895				-0.002471	0.003454	0.000317				179.319184	-0.410560	-40.579417
00009	13633962	0.071206	0.129512	-9.820007				-0.002616	-0.000137	0.000687				179.320439	-0.410247	-40.580409
00010	13634012	0.068724	0.118442	-9.824787				-0.002196	-0.001258	0.001322				179.319813	-0.409891	-40.580800
00011	13634062	0.075726	0.103174	-9.812601				-0.005651	-0.001583	0.000107				179.320197	-0.409162	-40.581608
00012	13634112	0.088807	0.114688	-9.824656				-0.003882	-0.001680	0.000968				179.319086	-0.408685	-40.581892
00013	13634162	0.093572	0.111462	-9.830429				-0.004248	-0.002204	0.000486				179.319874	-0.407779	-40.582823
00014	13634212	0.076709	0.124044	-9.812608				-0.003512	-0.000450	-0.003037				179.318861	-0.407639	-40.581948
00015	13634262	0.066550	0.129667	-9.841316				-0.006518	-0.000633	-0.002063				179.318993	-0.407175	-40.582117
00016	13634312	0.078586	0.121765	-9.833704				-0.002940	0.001758	-0.002542				179.318146	-0.407670	-40.581375
00017	13634362	0.056587	0.132559	-9.809152				-0.004607	-0.000140	-0.000878				179.318827	-0.407351	-40.581902
00018	13634412	0.088763	0.110981	-9.827765				-0.007324	0.003748	-0.002588				179.316723	-0.408416	-40.581147
00019	13634462	0.078045	0.122876	-9.838739				-0.006007	0.000578	-0.000587				179.317005	-0.408303	-40.581771
00020	13634512	0.072323	0.122865	-9.828407				-0.005025	0.001013	-0.001836				179.315562	-0.408587	-40.581244
00021	13634562	0.078455	0.115744	-9.833231				-0.000378	0.004140	0.000544				179.317458	-0.409499	-40.582144
00022	13634612	0.074299	0.115898	-9.835604				-0.004463	-0.000793	-0.003358				179.316172	-0.409260	-40.581180
00023	13634662	0.076801	0.102560	-9.813320				-0.006701	0.004475	-0.001266				179.316253	-0.410262	-40.581599
00024	13634712	0.083752	0.110218	-9.814562				-0.004803	-0.001213	-0.002365				179.314872	-0.409906	-40.580925
00025	13634762	0.086310	0.126549	-9.832788				-0.001927	-0.001872	-0.000928				179.316322	-0.409091	-40.581427
00026	13634812	0.061619	0.147941	-9.836031				-0.001647	0.002659	-0.000323				179.315849	-0.409851	-40.581325
00027	13634862	0.074519	0.112456	-9.817388				-0.002951	0.000080	-0.002103				179.317003	-0.409591	-40.581533
00028	13634912	0.066361	0.122930	-9.827418				-0.002009	0.000743	-0.000850				179.316426	-0.409801	-40.581283
00029	13634962	0.071783	0.112484	-9.811142				-0.008666	-0.002711	-0.004094				179.315938	-0.408734	-40.580904
00030	13635012	0.111742	0.105960	-9.823088				-0.007194	-0.000449	-0.001261				179.313874	-0.408602	-40.580544
00031	13635062	0.077111	0.122116	-9.809737				-0.004799	-0.001145	-0.000818				179.314502	-0.407995	-40.581121
00032	13635112	0.088913	0.117073	-9.832558				-0.000863	-0.005317	-0.002491				179.314250	-0.406463	-40.580420
00033	13635162	0.077426	0.106744	-9.828665				-0.005022	-0.001285	-0.002300				179.314810	-0.405811	-40.580533
00034	13635212	0.077806	0.125731	-9.831546				-0.002117	0.003029	-0.003821				179.314196	-0.406666	-40.579423
00035	13635262	0.065589	0.106363	-9.826447				-0.004314	-0.000397	-0.001363				179.314961	-0.406272	-40.579817
00036	13635312	0.071134	0.109598	-9.805150				-0.002131	-0.000457	-0.001050				179.314349	-0.406137	-40.579514
00037	13635362	0.069482	0.110380	-9.835581				-0.004986	0.001891	0.001215				179.314926	-0.406408	-40.580630
00038	13635412	0.064991	0.114541	-9.827888				0.000301	-0.000278	0.000292				179.315013	-0.406329	-40.580713
00039	13635462	0.091416	0.111507	-9.819630				-0.001089	-0.000120	-0.003904				179.316697	-0.406005	-40.580384
00040	13635512	0.083203	0.115843	-9.826778				-0.005130	-0.003934	0.000032				179.315228	-0.404879	-40.580414
00041	13635562	0.061990	0.129659	-9.821646				-0.001439	0.001243	0.000691				179.316821	-0.404961	-40.581404
00042	13635612	0.077215	0.120712	-9.806386				-0.005659	0.001844	-0.000419				179.315199	-0.405488	-40.581272
00043	13635662	0.089966	0.129943	-9.833044				-0.001999	0.002357	-0.002445				179.316625	-0.405879	-40.581323
00044	13635712	0.068931	0.132016	-9.809936				-0.003952	-0.001322	0.001425				179.315496	-0.405505	-40.581734
00045	13635762	0.083724	0.123491	-9.831344				-0.004922	-0.000478	-0.002938				179.316084	-0.405082	-40.581686
00046	13635812	0.081057	0.115419	-9.814305				-0.005884	-0.001528	-0.003003				179.314392	-0.404634	-40.580837
00047	13635862	0.075259	0.130944	-9.820990				-0.000043	0.001453	-0.001814				179.316380	-0.404769	-40.581055
00048	13635912	0.092515	0.099919	-9.814839				-0.007635	0.000554	0.000605				179.314194	-0.404929	-40.581224
00049	13635962	0.079365	0.106949	-9.822922				-0.002836	-0.002268	0.001670				179.315389	-0.404010	-40.582514
00050	13636012	0.070550	0.115433	-9.827673				-0.004047	0.002649	0.000353				179.314231	-0.404770	-40.582601
00051	13636062	0.072606	0.117854	-9.828169				-0.003916	0.000897	-0.005080				179.315103	-0.404734	-40.581933
00052	13636112	0.079731	0.118393	-9.824130				-0.006720	0.000820	-0.001222				179.313175	-0.404964	-40.581576
00053	13636162	0.079198	0.114874	-9.830360				-0.004678	-0.004019	-0.000098				179.313839	-0.403538	-40.582346
00054	13636212	0.079827	0.120854	-9.814060				-0.006323	-0.001763	-0.003037				179.312022	-0.403022	-40.581483
00055	13636262	0.073698	0.125995	-9.831292				-0.004445	0.000697	-0.002255				179.312748	-0.402939	-40.581632
00056	13636312	0.078777	0.116630	-9.830828				-0.006372	-0.002079	-0.001112				179.310921	-0.402339	-40.581325
00057	13636362	0.058864	0.131317	-9.822593				-0.003991	0.002844	0.000130				179.311782	-0.402879	-40.582111
00058	13636412	0.079809	0.112296	-9.813821				-0.005286	0.003507	0.001866				179.310271	-0.403890	-40.582634
00059	13636462	0.099857	0.120167	-9.838844				-0.001840	0.002551	-0.001359				179.311746	-0.404341	-40.583038
00060	13636512	0.087856	0.128276	-9.815059				-0.001460	-0.001611	-0.002823				179.311322	-0.403869	-40.582226
00061	13636562	0.089750	0.111414	-9.811958				-0.004306	0.000345	-0.002325				179.312088	-0.403685	-40.582352
00062	13636612	0.082045	0.110166	-9.828929				-0.003930	0.001612	-0.003441				179.310955	-0.404135	-40.581358
00063	13636662	0.072355	0.118922	-9.820014				-0.004424	0.002189	-0.001380				179.311690	-0.404481	-40.581724
00064	13636712	0.074994	0.114861	-9.832494				-0.004470	0.000666	-0.000332				179.310409	-0.404671	-40.581628
00065	13636762	0.066256	0.134615	-9.835326				-0.001787	0.001077	0.001525				179.311905	-0.404709	-40.582862
00066	13636812	0.077842	0.124819	-9.829396				-0.004762	0.003357	0.003599				179.310548	-0.405683	-40.583883
00067	13636862	0.059947	0.134788	-9.843205				-0.004319	0.004064	0.000200				179.311316	-0.406573	-40.584682
00068	13636912	0.074615	0.100113	-9.815468				-0.003390	0.000781	-0.002000				179.310341	-0.406790	-40.584106
00069	13636962	0.081031	0.116329	-9.809516				-0.004400	-0.000851	-0.002903				179.311079	-0.406260	-40.584037
00070	13637012	0.093645	0.116954	-9.841693				-0.006928	-0.000864	-0.002971				179.309089	-0.406002	-40.583187
00071	13637062	0.082432	0.112016	-9.821980				-0.005106	0.002697	0.000580				179.309632	-0.406502	-40.584115
00072	13637112	0.093118	0.103222	-9.832582				-0.003885	0.004093	-0.006153				179.308507	-0.407653	-40.582331
00073	13637162	0.077401	0.093115	-9.819559				-0.005640	0.002297	-0.000801				179.308895	-0.408033	-40.582904
00074	13637212	0.076983	0.130183	-9.821963				-0.005116	-0.000218	-0.001939				179.307425	-0.407964	-40.582347
00075	13637262	0.072987	0.115174	-9.810908				-0.002446	-0.000656	-0.001597				179.308727	-0.407495	-40.582678
00076	13637312	0.091126	0.109129	-9.832333				-0.003999	0.001971	-0.000265				179.307581	-0.408058	-40.582591
00077	13637362	0.090180	0.108745	-9.834960				-0.005552	0.000291	-0.002416				179.307991	-0.407858	-40.582667
00078	13637412	0.072247	0.134490	-9.825054				-0.008550	0.005285	-0.000357				179.305540	-0.409371	-40.582536
00079	13637462	0.087706	0.120176	-9.816496				-0.001379	0.001044	-0.001496				179.307148	-0.409390	-40.582904
00080	13637512	0.066099	0.124090	-9.792187				-0.002752	-0.000312	-0.004348				179.306350	-0.409285	-40.581661
00081	13637562	0.078102	0.109583	-9.809736				-0.003990	0.000612	-0.002098				179.307209	-0.409178	-40.581843
00082	13637612	0.078833	0.115972	-9.834191				-0.007055	0.001463	0.000258				179.305189	-0.409598	-40.581903
00083	13637662	0.071041	0.128252	-9.823375				-0.005919	0.001969	-0.000896				179.305497	-0.409884	-40.582420
00084	13637712	0.082687	0.134280	-9.824866				-0.002597	0.002251	-0.001482				179.304750	-0.410524	-40.581993
00085	13637762	0.075612	0.122161	-9.830820				-0.003163	0.000080	0.002583				179.305854	-0.410280	-40.583469
00086	13637812	0.097439	0.117093	-9.823737				-0.003066	0.002795	-0.000899				179.304974	-0.411078	-40.583199
00087	13637862	0.097388	0.115738	-9.819662				-0.006114	0.002064	-0.000864				179.305226	-0.411391	-40.583707
00088	13637912	0.087505	0.132647	-9.838314				-0.003602	0.002722	0.000574				179.304195	-0.412173	-40.583859
00089	13637962	0.087349	0.098271	-9.828719				-0.001482	0.000330	-0.000954				179.305775	-0.411989	-40.584386
00090	13638012	0.078004	0.120661	-9.823408				-0.003362	0.000139	0.000177				179.304812	-0.412029	-40.584439
00091	13638062	0.053577	0.135738	-9.830227				-0.005939	-0.000358	0.001689				179.305120	-0.411658	-40.585723
00092	13638112	0.077379	0.127273	-9.822679				-0.001597	-0.002257	-0.000416				179.304662	-0.411010	-40.585613
00093	13638162	0.068250	0.114317	-9.846116				-0.003686	0.001036	-0.002477				179.305607	-0.411023	-40.585651
00094	13638212	0.060662	0.123590	-9.803658				-0.007150	-0.003035	-0.002714				179.303554	-0.410144	-40.584887
00095	13638262	0.073729	0.103493	-9.817624				-0.005416	0.003303	0.000361				179.304009	-0.410816	-40.585759
00096	13638312	0.066601	0.118852	-9.825257				-0.009616	-0.001913	-0.001388				179.301251	-0.410263	-40.585371
00097	13638362	0.051061	0.129528	-9.819430				-0.004110	0.003519	-0.002079				179.302076	-0.410989	-40.585541
00098	13638412	0.083353	0.110900	-9.813840				-0.004639	0.001693	-0.004496				179.300737	-0.411458	-40.584251
00099	13638462	0.089205	0.103280	-9.828009				-0.002258	-0.000158	0.003444				179.302104	-0.411150	-40.586004
00100	13638512	0.077655	0.111983	-9.828191				-0.003932	-0.000327	-0.002169				179.300973	-0.411049	-40.585384
00101	13638562	0.062425	0.127849	-9.826438				-0.001560	-0.000283	-0.000662				179.302531	-0.410690	-40.585971
00102	13638612	0.073835	0.125845	-9.814034				-0.008793	0.001855	0.000331				179.300013	-0.411222	-40.586050
00103	13638662	0.075055	0.121712	-9.835847				-0.000384	0.002165	-0.000879				179.301907	-0.411564	-40.586569
00104	13638712	0.072738	0.107308	-9.806594				-0.003691	-0.001543	0.001391				179.300853	-0.411127	-40.586979
00105	13638762	0.073267	0.115300	-9.833681				-0.002826	0.004542	-0.000734				179.302048	-0.412151	-40.587512
00106	13638812	0.086773	0.123407	-9.828235				-0.000522	-0.001886	-0.003115				179.301892	-0.411600	-40.586630
00107	13638862	0.070655	0.118708	-9.827675				-0.001463	-0.000346	-0.000670				179.303478	-0.411223	-40.587203
00108	13638912	0.056752	0.103346	-9.818488				-0.005366	-0.000549	-0.003123				179.301934	-0.411055	-40.586306
00109	13638962	0.073076	0.109160	-9.813303				-0.005975	-0.001626	-0.003100				179.302223	-0.410303	-40.586201
00110	13639012	0.089451	0.129188	-9.813148				-0.001148	-0.001111	0.000354				179.301895	-0.409986	-40.586311
00111	13639062	0.066841	0.110903	-9.828615				-0.003694	0.003427	-0.002114				179.302839	-0.410686	-40.586455
00112	13639112	0.082767	0.103473	-9.828934				-0.002901	-0.000209	0.000334				179.302008	-0.410627	-40.586554
00113	13639162	0.060521	0.126090	-9.819720				-0.004104	0.000157	-0.001138				179.302838	-0.410393	-40.587019
00114	13639212	0.054574	0.131051	-9.822089				-0.002648	0.001933	-0.000807				179.302077	-0.410944	-40.586781
00115	13639262	0.091053	0.123260	-9.823944				-0.004748	-0.001924	-0.001692				179.302721	-0.410112	-40.587053
00116	13639312	0.069261	0.129330	-9.830310				-0.000790	0.003862	-0.002667				179.302489	-0.411209	-40.586278
00117	13639362	0.080884	0.128923	-9.825809				-0.005565	0.002941	-0.001987				179.302897	-0.411769	-40.586453
00118	13639412	0.080926	0.118177	-9.825576				-0.005155	0.000206	0.001050				179.301422	-0.411832	-40.586752
00119	13639462	0.068756	0.128703	-9.835814				-0.008151	0.001441	-0.002080				179.301090	-0.411963	-40.586922
00120	13639512	0.073489	0.117180	-9.832726				-0.002225	-0.002721	-0.003434				179.300446	-0.411171	-40.585945
00121	13639562	0.066027	0.122966	-9.811600				-0.002364	0.000801	-0.001938				179.301772	-0.411119	-40.586159
00122	13639612	0.080500	0.127367	-9.813111				-0.001133	0.001238	-0.002870				179.301441	-0.411463	-40.585327
00123	13639662	0.088190	0.120385	-9.811713				-0.005538	0.000002	-0.001103				179.301859	-0.411185	-40.585797
00124	13639712	0.065258	0.133644	-9.826932				-0.003686	0.000294	-0.000015				179.300804	-0.411269	-40.585786
00125	13639762	0.084653	0.128649	-9.832789				-0.001284	0.001109	-0.002360				179.302438	-0.411303	-40.585917
00126	13639812	0.071541	0.121152	-9.812592				-0.004313	0.002767	-0.002438				179.301198	-0.412088	-40.585207
00127	13639862	0.064909	0.121797	-9.818303				-0.000905	0.002007	-0.003594				179.302938	-0.412375	-40.584943
00128	13639912	0.093431	0.123262	-9.823720				-0.003287	0.000020	-0.002789				179.301990	-0.412371	-40.584146
00129	13639962	0.076061	0.121912	-9.809965				-0.005481	0.001399	-0.005726				179.302416	-0.412477	-40.583307
00130	13640012	0.070448	0.127969	-9.840143				-0.004422	0.001487	-0.003005				179.301143	-0.412893	-40.582450
00131	13640062	0.080516	0.113489	-9.830601				-0.004800	0.000022	-0.004838				179.301765	-0.412607	-40.581841
00132	13640112	0.068963	0.119166	-9.822161				-0.005712	-0.000244	-0.001147				179.300126	-0.412533	-40.581510
00133	13640162	0.065794	0.128203	-9.824780				-0.005790	0.000041	-0.003903				179.300466	-0.412256	-40.581136
00134	13640212	0.077605	0.113628	-9.817165				0.000213	0.001321	0.002148				179.300531	-0.412642	-40.581745
00135	13640262	0.070007	0.123549	-9.818565				-0.001245	-0.001521	-0.000493				179.302181	-0.411930	-40.582404
00136	13640312	0.071246	0.132590	-9.834151				-0.001959	-0.001141	0.000987				179.301622	-0.411606	-40.582683
00137	13640362	0.089157	0.123658	-9.834482				-0.007629	-0.002576	-0.003273				179.301438	-0.410581	-40.582570
00138	13640412	0.067888	0.114614	-9.841803				-0.002404	-0.002518	-0.002836				179.300743	-0.409850	-40.581772
00139	13640462	0.067604	0.122254	-9.828617				-0.001211	0.000551	0.000770				179.302406	-0.409736	-40.582757
00140	13640512	0.064934	0.110625	-9.810628				-0.003488	-0.000169	0.001995				179.301410	-0.409694	-40.583328
00141	13640562	0.087704	0.119013	-9.837114				-0.002105	0.001299	-0.002275				179.302811	-0.409783	-40.583463
00142	13640612	0.072603	0.106507	-9.840867				-0.005820	-0.000696	-0.000636				179.301142	-0.409582	-40.583274
00143	13640662	0.072700	0.107317	-9.822409				-0.003614	-0.000697	-0.003371				179.302108	-0.409095	-40.583107
00144	13640712	0.079332	0.136123	-9.826051				-0.002342	0.003954	-0.000428				179.301436	-0.410226	-40.582965
00145	13640762	0.071007	0.108607	-9.816897				-0.004327	0.000779	-0.001243				179.302201	-0.410170	-40.583384
00146	13640812	0.062604	0.111653	-9.815890				-0.006512	0.000939	-0.000177				179.300335	-0.410439	-40.583324
00147	13640862	0.071938	0.096910	-9.827440				-0.002627	0.001623	-0.000730				179.301590	-0.410626	-40.583900
00148	13640912	0.091723	0.110870	-9.819871				-0.004165	0.000425	-0.002751				179.300391	-0.410738	-40.583107
00149	13640962	0.059673	0.127281	-9.819960				-0.004206	0.004345	0.001440				179.301197	-0.411712	-40.584283
00150	13641012	0.070964	0.134333	-9.819298				-0.003689	0.004025	-0.000164				179.300140	-0.412865	-40.584219
00151	13641062	0.084778	0.121714	-9.822958				-0.002898	0.005398	0.000606				179.301319	-0.414138	-40.585162
00152	13641112	0.080436	0.122570	-9.836353				-0.005101	-0.000072	-0.000186				179.299857	-0.414116	-40.585102
00153	13641162	0.076173	0.119886	-9.837049				-0.001587	0.000919	-0.004971				179.301400	-0.414088	-40.584470
00154	13641212	0.061088	0.120351	-9.815169				-0.005326	0.001833	-0.001298				179.299871	-0.414608	-40.584090
00155	13641262	0.070439	0.127811	-9.811384				-0.005653	-0.000149	-0.003873				179.300252	-0.414277	-40.583768
00156	13641312	0.080305	0.112544	-9.842822				-0.004902	-0.001258	0.001442				179.298851	-0.413922	-40.584184
00157	13641362	0.078750	0.105582	-9.843291				-0.003691	-0.001311	-0.000902				179.299799	-0.413268	-40.584717
00158	13641412	0.068059	0.126074	-9.829585				-0.003043	0.004682	-0.001418				179.298925	-0.414604	-40.584289
00159	13641462	0.082642	0.116935	-9.838284				-0.004057	-0.001701	-0.000294				179.299770	-0.413841	-40.585021
00160	13641512	0.074700	0.131542	-9.841837				-0.002543	0.000072	0.000320				179.299043	-0.413863	-40.585116
00161	13641562	0.065180	0.136299	-9.817590				-0.003061	0.004127	-0.003376				179.300167	-0.414758	-40.584895
00162	13641612	0.080984	0.108399	-9.820296				-0.006831	-0.001172	-0.001538				179.298207	-0.414417	-40.584458
00163	13641662	0.076067	0.125406	-9.828662				-0.002971	0.000153	-0.003173				179.299358	-0.414174	-40.584336
00164	13641712	0.083805	0.116244	-9.819115				-0.003729	0.001348	0.001872				179.298294	-0.414567	-40.584869
00165	13641762	0.086087	0.114313	-9.834942				-0.003651	0.002702	-0.000016				179.299256	-0.415066	-40.585639
00166	13641812	0.064858	0.125582	-9.826688				-0.007175	0.001771	0.000279				179.297201	-0.415574	-40.585711
00167	13641862	0.060894	0.122619	-9.827150				-0.004379	0.001064	-0.003998				179.297947	-0.415590	-40.585324
00168	13641912	0.096520	0.105207	-9.822531				-0.001907	0.000211	-0.000709				179.297399	-0.415648	-40.585114
00169	13641962	0.083537	0.099117	-9.820071				-0.004086	0.002077	-0.002489				179.298233	-0.415959	-40.585201
00170	13642012	0.086744	0.119770	-9.822489				-0.002421	-0.001870	-0.000779				179.297538	-0.415421	-40.584989
00171	13642062	0.074526	0.132422	-9.818835				-0.003493	0.001469	-0.003133				179.298540	-0.415555	-40.584856
00172	13642112	0.081238	0.122227	-9.844987				-0.003500	0.000729	-0.002561				179.297532	-0.415755	-40.584113
00173	13642162	0.082275	0.103519	-9.814307				-0.002988	0.001901	-0.002395				179.298679	-0.416016	-40.584217
00174	13642212	0.084968	0.129782	-9.811458				-0.001527	0.001478	-0.000349				179.298241	-0.416438	-40.584109
00175	13642262	0.078615	0.125687	-9.826999				-0.001472	-0.001394	0.000890				179.299830	-0.415767	-40.585151
00176	13642312	0.068870	0.119578	-9.805621				-0.002718	0.000390	-0.001343				179.299049	-0.415874	-40.584764
00177	13642362	0.063315	0.117717	-9.824288				-0.005414	0.001608	-0.000306				179.299506	-0.416058	-40.585457
00178	13642412	0.063042	0.119645	-9.835058				-0.001612	-0.001439	-0.003954				179.299036	-0.415632	-40.584337
00179	13642462	0.083791	0.137923	-9.826795				-0.005351	0.001667	-0.002424				179.299508	-0.415826	-40.584424
00180	13642512	0.079453	0.125581	-9.814301				-0.004818	0.004432	0.001889				179.298131	-0.417102	-40.584951
00181	13642562	0.074133	0.108243	-9.819064				-0.005025	0.002681	-0.000399				179.298701	-0.417594	-40.585591
00182	13642612	0.085108	0.100810	-9.821280				-0.003169	0.000541	-0.002113				179.297788	-0.417741	-40.584983
00183	13642662	0.081899	0.114522	-9.819585				-0.003403	0.002029	0.000303				179.298823	-0.418048	-40.585830
00184	13642712	0.092800	0.123179	-9.823719				-0.000729	0.000526	0.001761				179.298618	-0.418205	-40.586327
00185	13642762	0.077219	0.127583	-9.826754				-0.003511	0.001080	-0.003166				179.299616	-0.418228	-40.586225
00186	13642812	0.098777	0.117801	-9.823025				-0.001194	-0.000065	-0.000711				179.299272	-0.418207	-40.586021
00187	13642862	0.082082	0.107157	-9.807121				-0.001775	-0.001080	-0.001451				179.300770	-0.417618	-40.586390
00188	13642912	0.071909	0.129149	-9.809236				-0.004853	0.001964	-0.003866				179.299372	-0.418167	-40.585271
00189	13642962	0.085518	0.115698	-9.829187				-0.005415	0.001470	-0.003513				179.299823	-0.418301	-40.585051
00190	13643012	0.073602	0.116588	-9.829357				0.000836	0.000350	-0.003536				179.300055	-0.418389	-40.584037
00191	13643062	0.087391	0.120290	-9.831836				-0.006571	0.002678	-0.002993				179.300176	-0.418870	-40.583944
00192	13643112	0.065659	0.140647	-9.821188				-0.002049	0.002959	0.002007				179.299593	-0.419725	-40.584501
00193	13643162	0.083072	0.133668	-9.816477				-0.003842	0.001826	0.001618				179.300506	-0.419979	-40.585733
00194	13643212	0.054145	0.142109	-9.813934				-0.004236	0.001012	-0.000435				179.299291	-0.420267	-40.585595
00195	13643262	0.071867	0.113168	-9.816895				-0.005923	-0.000604	-0.000507				179.299603	-0.419817	-40.586255
00196	13643312	0.074433	0.121971	-9.832010				-0.004339	-0.000439	0.004206				179.298369	-0.419706	-40.587464
00197	13643362	0.100752	0.114648	-9.829508				-0.003618	0.000800	0.002123				179.299346	-0.419668	-40.588828
00198	13643412	0.065412	0.119071	-9.817108				-0.007087	0.001425	0.005280				179.297327	-0.420095	-40.590326
00199	13643462	0.075266	0.108498	-9.822186				-0.003062	-0.000677	0.001410				179.298462	-0.419631	-40.591505
00200	13643512	0.078813	0.118089	-9.837783				-0.004381	-0.000841	-0.003564				179.297200	-0.419377	-40.590481
00201	13643562	0.079784	0.104419	-9.813821				-0.003580	-0.001725	-0.001068				179.298182	-0.418605	-40.590962
00202	13643612	0.075895	0.130918	-9.812128				-0.004803	-0.001851	-0.004303				179.296797	-0.418059	-40.589738
00203	13643662	0.074098	0.124259	-9.801575				-0.000905	0.003678	-0.005120				179.298537	-0.418820	-40.589057
00204	13643712	0.074570	0.125401	-9.811880				-0.001626	0.002508	-0.002170				179.298066	-0.419531	-40.588422
00205	13643762	0.070375	0.115887	-9.813775				-0.001770	-0.000013	-0.000003				179.299569	-0.419252	-40.589204
00206	13643812	0.084871	0.096276	-9.820077				-0.003913	-0.002447	-0.002093				179.298444	-0.418544	-40.588607
00207	13643862	0.069138	0.126301	-9.825517				-0.004502	0.000066	-0.002366				179.299159	-0.418280	-40.588703
00208	13643912	0.076143	0.130562	-9.818123				-0.003671	-0.001954	-0.001515				179.298105	-0.417715	-40.588273
00209	13643962	0.089020	0.113830	-9.823209				0.000383	-0.000630	-0.003832				179.300217	-0.417246	-40.587971
00210	13644012	0.104559	0.097206	-9.827367				-0.007266	0.001442	-0.000914				179.298133	-0.417655	-40.587702
00211	13644062	0.092138	0.131874	-9.817486				-0.004216	0.001433	-0.000598				179.298934	-0.417789	-40.588287
00212	13644112	0.085444	0.119809	-9.823675				-0.003870	0.001334	-0.002753				179.297820	-0.418161	-40.587492
00213	13644162	0.070977	0.125605	-9.824323				-0.003026	-0.002107	-0.002193				179.298959	-0.417275	-40.587654
00214	13644212	0.083546	0.108231	-9.828218				-0.001474	0.004710	-0.002033				179.298532	-0.418617	-40.587056
00215	13644262	0.090844	0.122567	-9.824908				-0.004455	0.000352	-0.004067				179.299258	-0.418429	-40.586670
00216	13644312	0.083155	0.110486	-9.819356				-0.005802	0.002823	-0.001293				179.297593	-0.419233	-40.586285
00217	13644362	0.071164	0.121857	-9.816898				-0.002144	0.004636	-0.000906				179.298988	-0.420283	-40.586811
00218	13644412	0.091950	0.110565	-9.820353				-0.001323	0.001931	-0.002693				179.298603	-0.420827	-40.586037
00219	13644462	0.076383	0.103172	-9.828178				-0.004167	0.000560	-0.002209				179.299415	-0.420705	-40.586184
00220	13644512	0.082041	0.107750	-9.825576				-0.004036	0.003631	-0.002030				179.298255	-0.421738	-40.585582
00221	13644562	0.090624	0.108661	-9.830412				-0.006341	0.002785	0.000633				179.298450	-0.422263	-40.586550
00222	13644612	0.052970	0.121243	-9.816566				-0.005405	0.000311	-0.000696				179.296901	-0.422349	-40.586352
00223	13644662	0.065572	0.117547	-9.840595				-0.006307	0.001424	-0.002515				179.297100	-0.422473	-40.586429
00224	13644712	0.074667	0.102236	-9.831047				-0.004170	-0.000051	0.000162				179.295906	-0.422459	-40.586478
00225	13644762	0.067778	0.123321	-9.821193				-0.001499	0.001670	-0.000317				179.297486	-0.422662	-40.587125
00226	13644812	0.071426	0.101243	-9.828156				-0.004475	0.001294	-0.001719				179.296201	-0.423026	-40.586631
00227	13644862	0.061477	0.106614	-9.845361				-0.004538	0.003231	-0.003184				179.296905	-0.423666	-40.586506
00228	13644912	0.064899	0.117720	-9.827646				-0.002594	-0.003421	-0.000563				179.296161	-0.422684	-40.586354
00229	13644962	0.080588	0.118910	-9.825565				-0.004407	0.003299	-0.001488				179.296907	-0.423349	-40.586693
00230	13645012	0.071089	0.118547	-9.816894				-0.003548	0.001279	-0.001784				179.295887	-0.423709	-40.586173
00231	13645062	0.074970	0.127475	-9.815720				-0.004163	-0.000441	-0.001311				179.296703	-0.423304	-40.586597
00232	13645112	0.083760	0.102914	-9.837088				-0.002628	-0.002484	-0.000303				179.295949	-0.422591	-40.586518
00233	13645162	0.063833	0.113084	-9.818053				-0.004232	0.002689	-0.002962				179.296742	-0.423076	-40.586439
00234	13645212	0.091145	0.109958	-9.812200				-0.001984	-0.001474	-0.001360				179.296171	-0.422649	-40.586050
00235	13645262	0.088116	0.104182	-9.828959				-0.009242	0.004050	-0.004260				179.295526	-0.423519	-40.585581
00236	13645312	0.083206	0.110375	-9.821504				-0.006184	0.002883	0.000218				179.293754	-0.424346	-40.585632
00237	13645362	0.079020	0.125898	-9.804721				-0.005497	0.000312	-0.000248				179.294191	-0.424159	-40.586376
00238	13645412	0.064694	0.123357	-9.842506				-0.003177	-0.000136	0.000674				179.293283	-0.424123	-40.586570
00239	13645462	0.094650	0.116031	-9.818213				-0.003926	-0.001960	-0.000650				179.294169	-0.423284	-40.587174
00240	13645512	0.072332	0.133520	-9.810432				-0.007071	0.002611	-0.000168				179.292143	-0.424032	-40.587118
00241	13645562	0.054844	0.131357	-9.823045				-0.005972	0.001912	-0.003955				179.292435	-0.424291	-40.586759
00242	13645612	0.089679	0.120970	-9.822264				-0.002513	0.001041	-0.001472				179.291712	-0.424584	-40.586332
00243	13645662	0.084831	0.123367	-9.823665				-0.000990	-0.001424	0.000724				179.293442	-0.423903	-40.587305
00244	13645712	0.075303	0.107217	-9.814994				-0.003136	-0.000554	-0.001732				179.292540	-0.423738	-40.586809
00245	13645762	0.060254	0.143425	-9.820919				-0.004845	-0.001265	-0.001023				179.293162	-0.423098	-40.587298
00246	13645812	0.079916	0.117012	-9.816935				-0.003297	0.000181	-0.003657				179.292209	-0.423137	-40.586250
00247	13645862	0.070305	0.124010	-9.818091				-0.002420	0.000005	-0.002341				179.293523	-0.422855	-40.586373
00248	13645912	0.066267	0.124388	-9.810163				-0.005262	0.000289	0.002766				179.292022	-0.422948	-40.587163
00249	13645962	0.044304	0.117022	-9.811245				-0.003821	-0.003348	-0.002096				179.292935	-0.421706	-40.587360
00250	13646012	0.072746	0.116975	-9.819304				-0.003774	-0.001499	0.000732				179.291855	-0.421280	-40.587566
00251	13646062	0.081286	0.113912	-9.832047				-0.001155	0.002711	-0.001433				179.293533	-0.421776	-40.587934
00252	13646112	0.100458	0.095510	-9.820633				-0.002740	0.000197	0.000415				179.292749	-0.421834	-40.588044
00253	13646162	0.085256	0.131917	-9.819847				-0.005001	0.001675	-0.001910				179.293325	-0.422032	-40.588295
00254	13646212	0.082355	0.091040	-9.847857				-0.005970	-0.000090	0.000069				179.291615	-0.422007	-40.588314
00255	13646262	0.089253	0.112039	-9.807639				-0.003763	0.000113	-0.000098				179.292549	-0.421764	-40.589064
00256	13646312	0.067012	0.136820	-9.824792				-0.007915	0.004886	-0.002396				179.290276	-0.423155	-40.588354
00257	13646362	0.081832	0.130737	-9.812879				-0.002572	-0.001126	-0.000391				179.291551	-0.422556	-40.589038
00258	13646412	0.064556	0.118497	-9.835792				-0.000668	0.000425	-0.002536				179.291354	-0.422669	-40.588307
00259	13646462	0.067469	0.114589	-9.822391				-0.003644	0.003346	-0.002001				179.292319	-0.423345	-40.588495
00260	13646512	0.077310	0.123270	-9.832741				-0.003926	-0.001057	-0.003980				179.291185	-0.423028	-40.587367
00261	13646562	0.081117	0.126102	-9.837081				-0.003167	0.001419	-0.000987				179.292289	-0.423157	-40.587823
00262	13646612	0.085813	0.120702	-9.819605				-0.002448	-0.001229	-0.003824				179.291579	-0.422791	-40.586738
00263	13646662	0.102683	0.117627	-9.799321				-0.007904	-0.000668	-0.000764				179.291326	-0.422322	-40.587295
00264	13646712	0.079606	0.112126	-9.821015				-0.003219	0.003093	-0.002133				179.290399	-0.423201	-40.586671
00265	13646762	0.072024	0.120630	-9.825047				-0.004385	0.000297	-0.002211				179.291150	-0.423003	-40.586813
00266	13646812	0.086862	0.116351	-9.816014				-0.001199	0.001259	-0.000351				179.290806	-0.423363	-40.586707
00267	13646862	0.082597	0.109994	-9.835167				-0.002643	0.004437	0.000120				179.292062	-0.424359	-40.587532
00268	13646912	0.064174	0.115239	-9.819738				-0.004078	-0.002063	-0.001451				179.290891	-0.423763	-40.587129
00269	13646962	0.072674	0.117138	-9.838713				-0.006269	0.001756	0.002615				179.291114	-0.424001	-40.588665
00270	13647012	0.080558	0.111727	-9.832752				0.000840	-0.000847	-0.004055				179.291346	-0.423744	-40.587510
00271	13647062	0.073736	0.102513	-9.831525				-0.005371	0.000113	-0.002109				179.291815	-0.423494	-40.587659
00272	13647112	0.064936	0.116235	-9.831237				0.002693	-0.002419	0.000389				179.292588	-0.422802	-40.587788
00273	13647162	0.080276	0.106955	-9.822927				-0.004568	-0.001131	-0.002824				179.293287	-0.422193	-40.587750
00274	13647212	0.061517	0.120624	-9.825228				-0.009483	-0.001541	-0.001655				179.290567	-0.421746	-40.587282
00275	13647262	0.090054	0.109660	-9.816271				-0.007306	0.001602	-0.000337				179.290487	-0.421929	-40.587983
00276	13647312	0.069254	0.126687	-9.808739				-0.001196	0.000095	-0.000773				179.290142	-0.421953	-40.587753
00277	13647362	0.072275	0.112667	-9.833920				-0.001202	0.001159	-0.001220				179.291809	-0.422006	-40.588181
00278	13647412	0.083885	0.112401	-9.830135				-0.005281	0.001311	-0.003453				179.290289	-0.422370	-40.587175
00279	13647462	0.070528	0.116963	-9.835345				-0.003850	0.000624	-0.003168				179.291193	-0.422262	-40.587051
00280	13647512	0.081210	0.112319	-9.836839				-0.002038	-0.001954	-0.000523				179.290608	-0.421700	-40.586909
00281	13647562	0.073543	0.117382	-9.797977				-0.003949	-0.002287	-0.002545				179.291485	-0.420762	-40.586980
00282	13647612	0.060007	0.134183	-9.819955				-0.005178	0.001116	-0.004283				179.289992	-0.421066	-40.585752
00283	13647662	0.078084	0.130495	-9.814300				-0.001908	0.000046	-0.002857				179.291453	-0.420795	-40.585731
00284	13647712	0.063744	0.110684	-9.831948				-0.001983	0.002636	0.000108				179.290885	-0.421550	-40.585750
00285	13647762	0.082304	0.108825	-9.836597				-0.003470	0.000862	-0.002108				179.291901	-0.421515	-40.585935
00286	13647812	0.059581	0.140812	-9.818276				-0.005637	-0.001572	-0.003081				179.290279	-0.421053	-40.585059
00287	13647862	0.070096	0.119888	-9.829832				-0.001463	-0.003624	0.001322				179.291877	-0.419745	-40.586240
00288	13647912	0.081762	0.112351	-9.833725				-0.002383	-0.000123	-0.002442				179.291189	-0.419701	-40.585539
00289	13647962	0.062366	0.126655	-9.851117				-0.003224	0.001185	-0.001592				179.292275	-0.419760	-40.585838
00290	13648012	0.078506	0.124766	-9.827242				-0.003621	0.000762	-0.000894				179.291236	-0.419976	-40.585575
00291	13648062	0.077834	0.112523	-9.814775				-0.004571	0.002132	-0.002454				179.291936	-0.420302	-40.585639
00292	13648112	0.070293	0.131696	-9.835587				-0.004201	-0.000386	-0.002658				179.290727	-0.420182	-40.584874
00293	13648162	0.073060	0.130720	-9.820499				-0.001154	-0.000097	0.000443				179.292411	-0.419881	-40.585808
00294	13648212	0.086911	0.114078	-9.820093				-0.002302	0.000531	0.001410				179.291754	-0.420038	-40.586209
00295	13648262	0.054509	0.120649	-9.836946				-0.005808	0.000522	-0.004315				179.292095	-0.419898	-40.585761
00296	13648312	0.089255	0.117082	-9.832084				-0.001867	-0.000080	-0.000900				179.291559	-0.419872	-40.585508
00297	13648362	0.080049	0.119122	-9.825572				-0.005441	0.003375	-0.003697				179.292006	-0.420550	-40.585202
00298	13648412	0.072007	0.129970	-9.829844				-0.004005	0.002497	-0.003157				179.290852	-0.421254	-40.584294
00299	13648462	0.082935	0.119273	-9.801140				-0.004255	0.001859	0.001941				179.291651	-0.421519	-40.585621
00300	13648512	0.082174	0.112880	-9.833484				-0.006494	-0.001650	-0.000576				179.289790	-0.421044	-40.585464
00301	13648562	0.060202	0.136399	-9.821638				-0.007253	0.000083	-0.001687				179.289722	-0.420787	-40.585764
00302	13648612	0.088535	0.100636	-9.830165				-0.002921	0.000577	-0.002915				179.288880	-0.420942	-40.584927
00303	13648662	0.091830	0.099540	-9.825864				-0.002122	-0.002282	-0.001459				179.290283	-0.420008	-40.585304
00304	13648712	0.087584	0.123957	-9.808591				-0.004831	-0.001259	0.002564				179.288904	-0.419656	-40.586036
00305	13648762	0.080808	0.118134	-9.829403				-0.001717	-0.005156	-0.002531				179.290421	-0.417896	-40.586085
00306	13648812	0.076120	0.122387	-9.824353				-0.006669	0.000803	-0.001846				179.288507	-0.418119	-40.585550
00307	13648862	0.085668	0.110657	-9.812887				-0.003310	-0.000534	-0.004970				179.289562	-0.417674	-40.581792
00308	13648912	0.067475	0.131711	-9.835814				-0.005312	0.000378	-0.001274				179.288038	-0.417777	-40.581425
00309	13648962	0.083437	0.109833	-9.825103				-0.003552	0.001372	-0.003137				179.289028	-0.417885	-40.578198
00310	13649012	0.075089	0.112309	-9.831532				-0.007279	0.001894	-0.001422				179.286940	-0.418422	-40.577778
00311	13649062	0.059814	0.130685	-9.826668				-0.001889	0.001701	0.000457				179.288415	-0.418636	-40.575584
00312	13649112	0.061834	0.139146	-9.834101				-0.003699	-0.002053	-0.002289				179.287350	-0.418040	-40.574943
00313	13649162	0.068141	0.115360	-9.813524				-0.002079	0.002695	-0.000210				179.288768	-0.418536	-40.575645
00314	13649212	0.068352	0.140794	-9.838699				-0.006767	0.002099	0.000186				179.286830	-0.419138	-40.575689
00315	13649262	0.085409	0.114148	-9.839493				-0.006075	0.002337	-0.000975				179.287102	-0.419529	-40.576168
00316	13649312	0.099632	0.128348	-9.826389				-0.002456	0.001363	-0.000122				179.286398	-0.419919	-40.576126
00317	13649362	0.077205	0.116127	-9.814532				-0.007891	-0.002258	-0.002246				179.286148	-0.418989	-40.576266
00318	13649412	0.070702	0.123577	-9.832472				-0.004049	-0.000320	-0.005388				179.284977	-0.418878	-40.574730
00319	13649462	0.073920	0.116505	-9.814031				-0.005692	0.000042	-0.002877				179.285355	-0.418605	-40.571592
00320	13649512	0.084231	0.120601	-9.829901				-0.002479	-0.001159	-0.002187				179.284641	-0.418265	-40.570971
00321	13649562	0.081564	0.128776	-9.824862				-0.003059	0.001455	0.001129				179.285781	-0.418411	-40.568978
00322	13649612	0.087238	0.123778	-9.827044				-0.004737	-0.001045	-0.006194				179.284411	-0.418090	-40.567206
00323	13649662	0.085796	0.115669	-9.845011				-0.003688	0.000201	-0.005867				179.285358	-0.417852	-40.563211
00324	13649712	0.073790	0.121327	-9.837038				-0.005907	0.001438	0.002297				179.283670	-0.418272	-40.563867
00325	13649762	0.075616	0.094879	-9.841843				-0.006560	0.001454	-0.001586				179.283802	-0.418408	-40.561093
00326	13649812	0.075423	0.115866	-9.824345				-0.000943	-0.000609	0.001723				179.283536	-0.418240	-40.561587
00327	13649862	0.075070	0.108977	-9.820752				-0.003033	0.001161	-0.002015				179.284678	-0.418290	-40.558686
00328	13649912	0.057867	0.126232	-9.818744				-0.002973	-0.000744	-0.003248				179.283820	-0.418066	-40.557763
00329	13649962	0.087541	0.121238	-9.819857				-0.004771	0.001522	-0.001404				179.284465	-0.418222	-40.555024
00330	13650012	0.081726	0.121809	-9.818627				-0.002585	-0.000665	-0.000045				179.283724	-0.418031	-40.555006
00331	13650062	0.067605	0.110559	-9.824542				-0.001019	-0.002608	0.000680				179.285449	-0.417012	-40.552895
00332	13650112	0.068262	0.114143	-9.809937				-0.003406	0.001900	-0.001760				179.284469	-0.417550	-40.552379
00333	13650162	0.077818	0.122921	-9.831069				-0.005120	0.000320	-0.002279				179.285012	-0.417359	-40.549399
00334	13650212	0.091942	0.114780	-9.819151				-0.002455	-0.003861	0.000551				179.284310	-0.416255	-40.549571
00335	13650262	0.089372	0.087694	-9.825368				-0.005423	-0.001202	-0.000653				179.284771	-0.415634	-40.547055
00336	13650312	0.081901	0.109842	-9.821737				-0.004096	-0.000667	-0.001130				179.283595	-0.415439	-40.546727
00337	13650362	0.088261	0.093959	-9.833028				-0.005539	-0.004433	0.002476				179.284029	-0.413903	-40.548240
00338	13650412	0.083076	0.129058	-9.807375				-0.003943	0.001565	-0.002916				179.282893	-0.414341	-40.547391
00339	13650462	0.086180	0.115704	-9.817929				-0.003776	0.002743	0.000972				179.283829	-0.414855	-40.548422
00340	13650512	0.074606	0.122687	-9.816192				-0.005727	-0.000462	0.000188				179.282189	-0.414724	-40.548480
00341	13650562	0.087664	0.131319	-9.840943				-0.003348	-0.004008	-0.000511				179.283245	-0.413299	-40.549122
00342	13650612	0.090317	0.103339	-9.826094				-0.004213	-0.002050	0.000178				179.282038	-0.412713	-40.549181
00343	13650662	0.092945	0.114618	-9.822759				-0.000099	0.004674	-0.003969				179.284018	-0.413763	-40.545690
00344	13650712	0.097485	0.105282	-9.819901				-0.006954	0.001576	-0.004353				179.282016	-0.414198	-40.544435
00345	13650762	0.075662	0.104019	-9.837046				-0.002812	-0.002804	-0.001466				179.283224	-0.413115	-40.541720
00346	13650812	0.075607	0.112650	-9.826015				-0.004121	0.002509	0.000814				179.282045	-0.413837	-40.541941
00347	13650862	0.077139	0.109371	-9.810693				-0.003788	0.000697	-0.002922				179.282970	-0.413752	-40.538799
00348	13650912	0.080515	0.117682	-9.827481				-0.001872	0.001057	-0.001580				179.282431	-0.414049	-40.538346
00349	13650962	0.080292	0.123552	-9.811194				-0.001843	0.001023	-0.002155				179.283915	-0.414060	-40.535412
00350	13651012	0.085991	0.125427	-9.824639				-0.006717	-0.002971	-0.001841				179.281987	-0.413202	-40.534893
00351	13651062	0.077128	0.106465	-9.805655				-0.007232	0.000283	-0.001118				179.281929	-0.413005	-40.532277
00352	13651112	0.065356	0.127846	-9.822388				-0.002033	0.002217	-0.001795				179.281343	-0.413633	-40.531755
00353	13651162	0.070559	0.103804	-9.813298				-0.003620	0.001805	-0.000604				179.282321	-0.413874	-40.529264
00354	13651212	0.070572	0.127300	-9.829108				-0.003154	-0.001231	-0.003539				179.281411	-0.413509	-40.528259
00355	13651262	0.073997	0.125192	-9.827934				-0.003467	0.001708	-0.002626				179.282428	-0.413714	-40.525174
00356	13651312	0.063581	0.129722	-9.813270				-0.001878	0.002184	-0.003685				179.281883	-0.414326	-40.524116
00357	13651362	0.069083	0.116932	-9.836056				-0.002929	-0.000198	-0.004724				179.283051	-0.413978	-40.520461
00358	13651412	0.078009	0.118761	-9.821008				-0.003088	0.000868	-0.003500				179.282159	-0.414214	-40.519460
00359	13651462	0.097505	0.115140	-9.819659				-0.002813	-0.002776	-0.001757				179.283365	-0.413138	-40.516650
00360	13651512	0.072316	0.108825	-9.808515				-0.005485	0.001223	0.001484				179.281797	-0.413494	-40.517070
00361	13651562	0.061643	0.117712	-9.828589				-0.005230	0.000805	-0.002047				179.282311	-0.413443	-40.514186
00362	13651612	0.082359	0.101015	-9.837799				-0.004308	-0.001151	-0.001390				179.281074	-0.413108	-40.513783
00363	13651662	0.076216	0.122138	-9.812124				-0.002842	-0.001935	-0.002875				179.282272	-0.412269	-40.510701
00364	13651712	0.071445	0.133080	-9.821212				-0.000967	0.002654	-0.002815				179.281989	-0.413019	-40.509882
00365	13651762	0.077183	0.134477	-9.823399				-0.004866	0.002687	-0.001335				179.282608	-0.413510	-40.507185
00366	13651812	0.066387	0.135296	-9.823104				-0.005900	0.000396	-0.005092				179.280907	-0.413605	-40.505725
00367	13651862	0.089841	0.109492	-9.821301				-0.006151	0.001595	-0.001758				179.281158	-0.413781	-40.502880
00368	13651912	0.067208	0.130575	-9.823825				-0.006358	0.002912	-0.003830				179.279329	-0.414601	-40.501771
00369	13651962	0.094908	0.118204	-9.803359				-0.003424	0.003548	-0.002171				179.280361	-0.415336	-40.498846
00370	13652012	0.095591	0.108952	-9.835466				-0.003553	-0.000331	-0.000748				179.279341	-0.415238	-40.498635
00371	13652062	0.072170	0.118038	-9.838467				-0.003013	0.000319	-0.005361				179.280484	-0.415036	-40.494812
00372	13652112	0.071170	0.122561	-9.826251				-0.004331	0.003121	0.000303				179.279244	-0.415931	-40.494879
00373	13652162	0.063768	0.122896	-9.836269				-0.006228	-0.000992	-0.001673				179.279473	-0.415366	-40.492094
00374	13652212	0.085101	0.108568	-9.811689				-0.004355	0.003596	-0.003221				179.278219	-0.416385	-40.491152
00375	13652262	0.097392	0.112247	-9.828048				-0.004163	-0.001535	-0.000527				179.279042	-0.415669	-40.488714
00376	13652312	0.053213	0.124720	-9.820869				-0.008194	0.000327	-0.003584				179.276687	-0.415750	-40.487679
00377	13652362	0.067204	0.129557	-9.818556				-0.006487	0.002171	-0.001846				179.276842	-0.416090	-40.484830
00378	13652412	0.074207	0.110045	-9.805164				-0.006728	-0.002425	-0.001808				179.274911	-0.415389	-40.484316
00379	13652462	0.084421	0.110411	-9.830625				-0.004477	0.001468	0.000742				179.275648	-0.415538	-40.482230
00380	13652512	0.070511	0.111143	-9.813297				-0.002116	0.002832	-0.000762				179.275040	-0.416346	-40.481996
00381	13652562	0.083598	0.117099	-9.825824				-0.006445	0.002013	0.001327				179.275214	-0.416653	-40.480063
00382	13652612	0.076192	0.110552	-9.826029				-0.004110	-0.001080	-0.000232				179.274036	-0.416343	-40.480003
00383	13652662	0.071358	0.125457	-9.831515				-0.002898	0.002006	-0.001179				179.275221	-0.416639	-40.477363
00384	13652712	0.071834	0.104815	-9.819288				-0.002036	0.002284	-0.000799				179.274637	-0.417290	-40.477132
00385	13652762	0.095067	0.101921	-9.808867				-0.002691	0.000554	-0.002218				179.275879	-0.417167	-40.474170
00386	13652812	0.059915	0.126927	-9.841998				-0.005064	-0.000489	-0.002985				179.274422	-0.417016	-40.473316
00387	13652862	0.089448	0.107725	-9.826334				-0.007538	0.002927	-0.003317				179.274274	-0.417568	-40.470075
00388	13652912	0.094382	0.121493	-9.803111				-0.003430	0.002643	-0.003394				179.273284	-0.418313	-40.469092
00389	13652962	0.068555	0.111396	-9.816879				-0.002906	0.001332	-0.000994				179.274467	-0.418417	-40.466487
00390	13653012	0.065360	0.113390	-9.836996				-0.003771	0.001348	-0.000414				179.273386	-0.418801	-40.466359
00391	13653062	0.081348	0.119907	-9.832523				-0.001819	-0.000687	-0.001938				179.274879	-0.418323	-40.463514
00392	13653112	0.071329	0.121939	-9.816656				-0.004283	0.000305	-0.001283				179.273649	-0.418406	-40.463147
00393	13653162	0.088287	0.103659	-9.823926				-0.000472	0.002173	-0.003341				179.275524	-0.418742	-40.459882
00394	13653212	0.082277	0.106770	-9.832045				-0.008841	0.001515	-0.002485				179.272986	-0.419167	-40.459166
00395	13653262	0.085169	0.120944	-9.840212				-0.000886	-0.001770	-0.000570				179.274750	-0.418384	-40.456712
00396	13653312	0.093408	0.116292	-9.819403				-0.004268	0.003756	-0.004990				179.273516	-0.419442	-40.455273
00397	13653362	0.092113	0.107396	-9.825152				-0.004075	0.004093	0.000049				179.274367	-0.420341	-40.452954
00398	13653412	0.071266	0.116117	-9.839183				-0.004300	-0.000151	-0.002220				179.273131	-0.420289	-40.452316
00399	13653462	0.061518	0.123079	-9.821875				-0.005009	-0.001133	-0.001578				179.273711	-0.419684	-40.449570
00400	13653512	0.071305	0.116914	-9.811859				-0.004935	0.001946	0.000682				179.272299	-0.420244	-40.449759
00401	13653562	0.093169	0.104465	-9.816048				-0.008117	0.000880	-0.001724				179.271989	-0.420216	-40.446971
00402	13653612	0.086592	0.104884	-9.830865				-0.007875	0.000400	-0.001854				179.269729	-0.420324	-40.446434
00403	13653662	0.102098	0.114198	-9.822565				-0.006596	-0.000778	-0.003500				179.269851	-0.419814	-40.443141
00404	13653712	0.087137	0.113233	-9.822002				-0.005477	0.000544	-0.000991				179.268280	-0.419966	-40.442856
00405	13653762	0.076577	0.127757	-9.839925				-0.001710	-0.001041	-0.000725				179.269807	-0.419392	-40.440339
00406	13653812	0.071788	0.118015	-9.839427				-0.004699	0.003331	-0.002164				179.268456	-0.420338	-40.439709
00407	13653862	0.084600	0.125490	-9.827271				-0.001495	-0.001044	-0.004351				179.270038	-0.419750	-40.439275
00408	13653912	0.056514	0.126144	-9.814427				-0.000763	0.002694	0.000227				179.269820	-0.420522	-40.439334
00409	13653962	0.071272	0.126802	-9.818334				0.000658	0.001299	0.000603				179.272029	-0.420622	-40.437167
00410	13654012	0.083898	0.108502	-9.831816				-0.003191	-0.002007	-0.002006				179.271110	-0.420040	-40.436599
00411	13654062	0.079820	0.106439	-9.816456				-0.005087	0.000426	0.000453				179.271673	-0.419890	-40.434434
00412	13654112	0.078844	0.120645	-9.819570				-0.003496	-0.002369	-0.001302				179.270669	-0.419206	-40.434069
00413	13654162	0.077685	0.117259	-9.830347				-0.005718	0.001383	0.000583				179.271052	-0.419330	-40.435007
00414	13654212	0.047399	0.123170	-9.809105				-0.003446	-0.000683	-0.000551				179.270063	-0.419133	-40.434853
00415	13654262	0.067316	0.112617	-9.812561				-0.006894	0.000743	-0.000792				179.270105	-0.419068	-40.435397
00416	13654312	0.071612	0.113043	-9.845176				-0.001162	0.002006	-0.000899				179.269770	-0.419640	-40.435130
00417	13654362	0.084766	0.118993	-9.819837				-0.002927	0.002205	0.000196				179.270952	-0.419998	-40.435968
00418	13654412	0.097359	0.112996	-9.819901				-0.001208	0.000267	-0.001169				179.270603	-0.420070	-40.435640
00419	13654462	0.084479	0.120484	-9.820799				-0.003210	0.001608	-0.004294				179.271694	-0.420241	-40.435151
00420	13654512	0.071624	0.135793	-9.816180				-0.007238	0.002707	-0.000879				179.269619	-0.421013	-40.434886
00421	13654562	0.055735	0.127115	-9.841504				-0.003628	0.002997	-0.001909				179.270595	-0.421591	-40.435107
00422	13654612	0.075083	0.113394	-9.833690				-0.002463	0.001270	-0.002793				179.269883	-0.421944	-40.434299
00423	13654662	0.076732	0.127962	-9.818835				-0.002917	-0.000254	-0.000425				179.271067	-0.421596	-40.431906
00424	13654712	0.073189	0.112539	-9.822178				-0.004193	0.002469	-0.002106				179.269861	-0.422295	-40.431294
00425	13654762	0.072219	0.115981	-9.840864				-0.008344	-0.001126	-0.002562				179.269486	-0.421689	-40.431318
00426	13654812	0.080956	0.109691	-9.817659				-0.000993	0.000720	-0.000490				179.269200	-0.421894	-40.431176
00427	13654862	0.092909	0.105321	-9.835937				-0.001194	0.002982	-0.000737				179.270876	-0.422471	-40.431721
00428	13654912	0.071817	0.103693	-9.815937				-0.004540	0.002173	-0.003164				179.269568	-0.423082	-40.430803
00429	13654962	0.091708	0.121250	-9.803824				-0.002889	0.000910	-0.001126				179.270759	-0.423064	-40.431286
00430	13655012	0.082035	0.120969	-9.822227				-0.005741	-0.001208	-0.001320				179.269112	-0.422713	-40.430907
00431	13655062	0.080545	0.108818	-9.820536				-0.004904	0.002914	0.000016				179.269727	-0.423274	-40.431690
00432	13655112	0.066819	0.117013	-9.825976				-0.002535	-0.001217	-0.000270				179.269000	-0.422924	-40.431619
00433	13655162	0.088182	0.124746	-9.816740				-0.003380	0.002029	-0.003491				179.270044	-0.423219	-40.431372
00434	13655212	0.079060	0.132687	-9.826764				-0.006626	-0.000710	-0.001797				179.268142	-0.423009	-40.430858
00435	13655262	0.062210	0.124839	-9.814458				-0.002667	0.000782	-0.002921				179.269391	-0.422948	-40.430776
00436	13655312	0.066290	0.103078	-9.815667				-0.003723	0.000964	-0.000318				179.268324	-0.423223	-40.430678
00437	13655362	0.070183	0.124866	-9.846601				-0.007318	-0.001980	-0.000647				179.268247	-0.422380	-40.431292
00438	13655412	0.073924	0.101845	-9.828637				0.001830	-0.000525	-0.000217				179.268771	-0.422229	-40.431227
00439	13655462	0.086114	0.121064	-9.827759				-0.003175	-0.001289	0.000081				179.269883	-0.421586	-40.428978
00440	13655512	0.087078	0.121543	-9.828233				-0.001575	-0.002133	0.001581				179.269435	-0.420980	-40.429434
00441	13655562	0.057401	0.104600	-9.821856				-0.008101	-0.001670	-0.001413				179.269133	-0.420223	-40.426781
00442	13655612	0.070926	0.125171	-9.824564				-0.005060	0.002878	0.000593				179.267684	-0.421049	-40.426943
00443	13655662	0.097714	0.107058	-9.830930				-0.003955	-0.001182	-0.002931				179.268566	-0.420426	-40.426923
00444	13655712	0.071691	0.113114	-9.816182				-0.002208	0.002636	-0.001917				179.267930	-0.421174	-40.426363
00445	13655762	0.069080	0.114165	-9.836052				-0.002225	-0.000082	-0.002414				179.269308	-0.420868	-40.426448
00446	13655812	0.062052	0.117273	-9.811577				-0.004318	0.000463	-0.002054				179.268067	-0.420993	-40.425853
00447	13655862	0.079703	0.124831	-9.834669				-0.002012	-0.000665	-0.003221				179.269505	-0.420517	-40.425735
00448	13655912	0.079393	0.116222	-9.839464				-0.004257	0.001496	-0.003011				179.268279	-0.420934	-40.424868
00449	13655962	0.066180	0.128802	-9.819270				-0.004467	-0.000925	-0.000195				179.269019	-0.420395	-40.425585
00450	13656012	0.080270	0.109116	-9.827004				-0.002993	-0.001228	-0.002678				179.268156	-0.420033	-40.424817
00451	13656062	0.083085	0.103329	-9.818870				-0.002870	-0.003937	0.000100				179.269356	-0.418632	-40.425651
00452	13656112	0.067581	0.119187	-9.819755				-0.005999	0.002890	-0.001169				179.267634	-0.419455	-40.425300
00453	13656162	0.091898	0.102187	-9.843122				-0.005897	-0.000402	-0.001574				179.267963	-0.419060	-40.425617
00454	13656212	0.078964	0.111889	-9.836102				-0.004221	0.003405	-0.000755				179.266753	-0.420033	-40.425392
00455	13656262	0.067189	0.126700	-9.820230				-0.005548	-0.001167	-0.000002				179.267184	-0.419424	-40.426171
00456	13656312	0.081460	0.112904	-9.827490				-0.002155	0.000755	-0.003023				179.266560	-0.419630	-40.425295
00457	13656362	0.066219	0.122428	-9.833648				-0.006364	0.003269	-0.003217				179.266752	-0.420280	-40.425131
00458	13656412	0.084474	0.109375	-9.826782				-0.002077	0.003638	-0.001723				179.266153	-0.421316	-40.424620
00459	13656462	0.076080	0.126178	-9.825074				-0.003899	0.002412	0.000009				179.267057	-0.421733	-40.425409
00460	13656512	0.060632	0.133792	-9.811570				-0.001736	0.001058	-0.000035				179.266560	-0.422036	-40.425401
00461	13656562	0.075100	0.124318	-9.815718				-0.003919	0.001322	0.002569				179.267464	-0.422150	-40.426915
00462	13656612	0.063801	0.111707	-9.849930				-0.005355	0.000405	-0.005801				179.265918	-0.422244	-40.425253
00463	13656662	0.076757	0.133381	-9.821243				-0.003165	0.004392	-0.003766				179.267025	-0.423215	-40.424944
00464	13656712	0.063310	0.120030	-9.826682				-0.003387	0.003421	-0.002645				179.266049	-0.424185	-40.424172
00465	13656762	0.074194	0.110452	-9.823384				-0.004628	0.003340	-0.000110				179.266745	-0.424867	-40.424917
00466	13656812	0.089427	0.109633	-9.835438				-0.003242	0.002545	-0.004098				179.265807	-0.425581	-40.423731
00467	13656862	0.067712	0.131380	-9.830302				-0.005038	-0.000095	0.000095				179.266386	-0.425280	-40.424521
00468	13656912	0.069491	0.117807	-9.823120				-0.005476	0.001474	-0.001530				179.264814	-0.425697	-40.424073
00469	13656962	0.070236	0.119370	-9.833671				-0.005762	0.000605	-0.000509				179.265184	-0.425594	-40.424702
00470	13657012	0.085171	0.117900	-9.822479				-0.004444	-0.000370	0.002721				179.263917	-0.425498	-40.425476
00471	13657062	0.072490	0.123999	-9.841825				-0.004364	-0.004420	-0.002210				179.264685	-0.423949	-40.425651
00472	13657112	0.058822	0.146611	-9.814922				-0.004219	0.001701	0.000618				179.263477	-0.424439	-40.425817
00473	13657162	0.082420	0.122735	-9.814078				-0.004743	-0.000321	-0.001030				179.264138	-0.424069	-40.426293
00474	13657212	0.077608	0.122339	-9.832739				-0.006448	-0.000152	-0.000960				179.262289	-0.424022	-40.426015
00475	13657262	0.078682	0.113761	-9.826277				-0.001882	0.002314	-0.002372				179.263767	-0.424402	-40.426106
00476	13657312	0.077235	0.130387	-9.835627				-0.002807	0.000195	-0.002926				179.262957	-0.424447	-40.425265
00477	13657362	0.060137	0.127135	-9.825228				-0.004529	0.001943	-0.004129				179.263673	-0.424714	-40.421812
00478	13657412	0.075249	0.108157	-9.821946				-0.007524	-0.002138	0.004037				179.261527	-0.424117	-40.422970
00479	13657462	0.084810	0.107056	-9.814082				-0.002655	0.000428	-0.002249				179.262784	-0.423957	-40.420049
00480	13657512	0.071750	0.105935	-9.829833				-0.001922	-0.000431	-0.001452				179.262230	-0.423828	-40.419631
00481	13657562	0.063561	0.129650	-9.826919				-0.007237	-0.001459	0.000127				179.262180	-0.423137	-40.417409
00482	13657612	0.064625	0.121991	-9.810630				-0.003892	0.001148	-0.001793				179.261061	-0.423459	-40.416895
00483	13657662	0.070375	0.135538	-9.838947				-0.003971	0.002705	-0.000563				179.261944	-0.423957	-40.414454
00484	13657712	0.059777	0.140969	-9.838409				-0.000295	0.000854	-0.001965				179.261856	-0.424194	-40.413897
00485	13657762	0.079313	0.115584	-9.831555				-0.002997	-0.000166	-0.004113				179.263011	-0.423857	-40.410427
00486	13657812	0.083388	0.128557	-9.808098				-0.003005	0.003824	0.001970				179.262154	-0.424960	-40.410973
00487	13657862	0.088309	0.106990	-9.837352				-0.001987	0.001472	-0.001446				179.263604	-0.425102	-40.408262
00488	13657912	0.062026	0.129783	-9.839135				-0.005765	-0.000696	-0.002309				179.261948	-0.424894	-40.407607
00489	13657962	0.068634	0.128211	-9.825275				-0.004810	-0.000387	-0.003759				179.262584	-0.424495	-40.407315
00490	13658012	0.080809	0.111141	-9.836827				-0.002072	0.000276	-0.002318				179.261986	-0.424566	-40.406648
00491	13658062	0.066658	0.103751	-9.846103				-0.003079	-0.000451	-0.001387				179.263124	-0.424157	-40.407032
00492	13658112	0.077258	0.116549	-9.843044				-0.006602	0.002684	-0.002066				179.261229	-0.424918	-40.406430
00493	13658162	0.074671	0.132644	-9.819550				-0.003063	-0.003076	-0.003616				179.262366	-0.423749	-40.406162
00494	13658212	0.081379	0.121654	-9.836597				-0.003596	-0.000238	-0.002989				179.261330	-0.423669	-40.405308
00495	13658262	0.070992	0.132319	-9.829122				-0.003635	-0.000205	-0.003244				179.262304	-0.423324	-40.405131
00496	13658312	0.066342	0.123189	-9.827899				-0.003203	0.000382	-0.003561				179.261379	-0.423421	-40.404107
00497	13658362	0.086849	0.109568	-9.834466				-0.004734	0.001261	-0.002854				179.262040	-0.423497	-40.404072
00498	13658412	0.077889	0.120089	-9.836101				0.000376	0.002202	0.001378				179.262151	-0.424133	-40.404459
00499	13658462	0.071129	0.123280	-9.829839				-0.003433	0.001101	0.001412				179.263193	-0.424179	-40.405647
00500	13658512	0.085875	0.131027	-9.843575				-0.002119	0.000954	-0.000293				179.262586	-0.424451	-40.405558
00501	13658562	0.048964	0.123493	-9.845542				-0.003326	-0.003015	-0.004093				179.263647	-0.423298	-40.405196
00502	13658612	0.065608	0.126582	-9.824537				-0.006414	0.000814	-0.001340				179.261806	-0.423526	-40.404806
00503	13658662	0.089743	0.119229	-9.815789				-0.002165	0.001949	-0.005102				179.263199	-0.423791	-40.401079
00504	13658712	0.077829	0.104639	-9.827950				-0.004303	0.001985	-0.001949				179.261962	-0.424352	-40.400510
00505	13658762	0.088892	0.122712	-9.826815				-0.002037	-0.001658	0.001617				179.263405	-0.423609	-40.398726
00506	13658812	0.088892	0.109362	-9.820824				-0.002035	0.001284	-0.000297				179.262821	-0.423976	-40.398627
00507	13658862	0.075515	0.099156	-9.813079				-0.004482	-0.002576	-0.000367				179.263560	-0.422962	-40.396309
00508	13658912	0.068957	0.132816	-9.836299				-0.001480	0.002740	-0.003333				179.263129	-0.423735	-40.395335
00509	13658962	0.068197	0.126296	-9.818322				-0.007632	0.002191	0.001399				179.262969	-0.424093	-40.393464
00510	13659012	0.068359	0.114882	-9.813764				-0.001074	0.003170	-0.002784				179.262656	-0.424991	-40.392647
00511	13659062	0.065319	0.107897	-9.818781				-0.002959	0.002176	-0.000251				179.263831	-0.425339	-40.390269
00512	13659112	0.082212	0.095771	-9.819342				-0.003566	0.003836	-0.003384				179.262802	-0.426426	-40.389279
00513	13659162	0.066524	0.134425	-9.809924				0.000938	0.001001	-0.005114				179.265084	-0.426419	-40.385549
00514	13659212	0.066816	0.114789	-9.818305				-0.004208	-0.001316	-0.004052				179.263870	-0.426027	-40.384395
00515	13659262	0.085531	0.134557	-9.815294				-0.001551	0.004493	0.000336				179.265450	-0.427041	-40.382232
00516	13659312	0.086059	0.109348	-9.833982				-0.004085	0.001113	-0.002019				179.264275	-0.427352	-40.381647
00517	13659362	0.100149	0.098309	-9.819194				-0.003038	-0.000578	0.000179				179.265429	-0.426913	-40.379417
00518	13659412	0.075455	0.111851	-9.809486				-0.003560	0.001572	-0.003237				179.264402	-0.427351	-40.378481
00519	13659462	0.070525	0.117691	-9.838454				-0.001991	-0.000198	0.000311				179.265856	-0.427021	-40.376299
00520	13659512	0.074998	0.133374	-9.825787				-0.001449	-0.001974	0.000333				179.265442	-0.426457	-40.376405
00521	13659562	0.065895	0.134427	-9.802252				-0.001954	0.004002	0.001202				179.266909	-0.427333	-40.374496
00522	13659612	0.066460	0.096068	-9.809676				-0.001640	-0.003465	-0.001919				179.266435	-0.426334	-40.373961
00523	13659662	0.062602	0.106102	-9.840809				-0.003785	-0.000173	0.000346				179.267376	-0.426011	-40.371787
00524	13659712	0.078456	0.104777	-9.821956				-0.002276	0.000795	0.000928				179.266726	-0.426242	-40.372056
00525	13659762	0.080472	0.112852	-9.847135				0.001651	0.002187	-0.000748				179.269221	-0.426591	-40.369599
00526	13659812	0.069732	0.116318	-9.824075				-0.002459	-0.000861	-0.003316				179.268510	-0.426332	-40.368652
00527	13659862	0.077575	0.134245	-9.822920				-0.005937	-0.001994	-0.000884				179.268832	-0.425483	-40.366170
00528	13659912	0.071345	0.125643	-9.829842				-0.001772	0.001980	-0.003403				179.268317	-0.426038	-40.365185
00529	13659962	0.090446	0.117852	-9.823226				-0.007118	0.000822	-0.002304				179.268297	-0.425990	-40.362289
00530	13660012	0.085329	0.110353	-9.841406				-0.001906	-0.002090	-0.001311				179.267749	-0.425386	-40.361924
00531	13660062	0.093240	0.111846	-9.838338				-0.004155	0.002360	-0.001053				179.268581	-0.425784	-40.359359
00532	13660112	0.078964	0.121280	-9.827244				-0.006209	0.000315	-0.004491				179.266792	-0.425858	-40.358067
00533	13660162	0.077027	0.108778	-9.821472				-0.003194	0.001612	0.001699				179.267906	-0.426051	-40.356321
00534	13660212	0.090959	0.114547	-9.826816				-0.005212	0.001206	-0.002687				179.266407	-0.426387	-40.355545
00535	13660262	0.080837	0.112123	-9.833479				-0.004388	0.001875	-0.000190				179.267174	-0.426649	-40.353252
00536	13660312	0.083083	0.121802	-9.827262				-0.005161	0.001693	-0.004005				179.265687	-0.427119	-40.352100
00537	13660362	0.048811	0.132593	-9.819420				-0.003050	-0.000270	-0.003247				179.266832	-0.426755	-40.348919
00538	13660412	0.080054	0.103383	-9.821724				-0.004806	-0.002431	-0.000310				179.265454	-0.426058	-40.348832
00539	13660462	0.085868	0.112706	-9.833028				-0.006639	0.000899	-0.001090				179.265575	-0.426037	-40.346276
00540	13660512	0.068630	0.110778	-9.830783				-0.003821	-0.000055	0.000020				179.264480	-0.426021	-40.346281
00541	13660562	0.079564	0.112730	-9.826044				-0.004459	-0.000871	0.001787				179.265232	-0.425504	-40.344554
00542	13660612	0.077264	0.119913	-9.822683				-0.003848	-0.001187	-0.000654				179.264128	-0.425161	-40.344372
00543	13660662	0.089259	0.111084	-9.818421				-0.005186	-0.002570	-0.001881				179.264664	-0.424143	-40.341602
00544	13660712	0.065632	0.145434	-9.825740				-0.002284	0.003342	0.002282				179.264015	-0.425109	-40.342244
00545	13660762	0.076237	0.120209	-9.822197				-0.005146	-0.001723	0.000470				179.264567	-0.424343	-40.340131
00546	13660812	0.103715	0.100091	-9.809387				-0.001641	0.002892	-0.001512				179.264093	-0.425165	-40.339687
00547	13660862	0.068844	0.132897	-9.825031				-0.002030	0.001878	-0.003885				179.265529	-0.425414	-40.336326
00548	13660912	0.070594	0.122255	-9.820730				-0.006105	0.000391	-0.000383				179.263780	-0.425525	-40.336212
00549	13660962	0.083062	0.113401	-9.810008				-0.003273	0.003058	-0.001181				179.264864	-0.426122	-40.333591
00550	13661012	0.089160	0.115658	-9.810515				-0.003809	0.000589	-0.001610				179.263770	-0.426285	-40.333127
00551	13661062	0.067462	0.111724	-9.822867				-0.002386	0.001196	-0.001577				179.265109	-0.426347	-40.330406
00552	13661112	0.078917	0.120789	-9.821484				0.000422	-0.000337	0.000364				179.265230	-0.426252	-40.330511
00553	13661162	0.056069	0.141316	-9.826408				-0.004844	-0.001108	-0.001615				179.265865	-0.425654	-40.327812
00554	13661212	0.069769	0.125772	-9.815928				-0.007389	0.000464	-0.000478				179.263747	-0.425785	-40.327669
00555	13661262	0.063203	0.107542	-9.825957				-0.005422	0.000815	-0.002503				179.264214	-0.425735	-40.324738
00556	13661312	0.081809	0.130041	-9.826779				-0.003724	0.002984	-0.001789				179.263144	-0.426583	-40.324210
00557	13661362	0.084107	0.111586	-9.822470				-0.006045	0.003526	-0.000206				179.263437	-0.427317	-40.321881
00558	13661412	0.088549	0.116022	-9.833042				-0.007246	-0.001952	0.001270				179.261363	-0.426763	-40.322253
00559	13661462	0.066235	0.130352	-9.831973				-0.002272	-0.001352	-0.000149				179.262738	-0.426101	-40.319986
00560	13661512	0.072760	0.125086	-9.824096				-0.002443	0.001970	-0.001635				179.262035	-0.426659	-40.319508
00561	13661562	0.070367	0.124532	-9.829354				-0.003657	0.000720	-0.002664				179.263008	-0.426581	-40.316504
00562	13661612	0.078137	0.099795	-9.823396				-0.003198	-0.001597	-0.000980				179.262090	-0.426120	-40.316231
00563	13661662	0.083547	0.122044	-9.833255				-0.001679	-0.001018	-0.000691				179.263634	-0.425551	-40.313793
00564	13661712	0.079291	0.118776	-9.830837				-0.006557	0.000415	-0.000129				179.261755	-0.425669	-40.313748
00565	13661762	0.065973	0.136754	-9.829340				-0.004601	0.001519	-0.000379				179.262462	-0.425828	-40.311438
00566	13661812	0.066083	0.129084	-9.811592				-0.000620	-0.001905	0.000425				179.262285	-0.425284	-40.311573
00567	13661862	0.052666	0.125039	-9.829500				-0.005119	-0.001434	0.000854				179.262847	-0.424602	-40.309595
00568	13661912	0.066279	0.110528	-9.819266				-0.004308	0.003166	-0.002203				179.261608	-0.425501	-40.308955
00569	13661962	0.065359	0.106498	-9.825020				-0.000976	0.001929	-0.004560				179.263345	-0.425762	-40.305426
00570	13662012	0.082347	0.120701	-9.822698				-0.000918	0.002488	-0.000257				179.263081	-0.426474	-40.305342
00571	13662062	0.097899	0.109552	-9.825417				-0.003133	-0.000691	-0.002391				179.264205	-0.425993	-40.302414
00572	13662112	0.071864	0.116767	-9.822406				-0.002734	-0.000136	-0.002127				179.263417	-0.425946	-40.301805
00573	13662162	0.075452	0.115682	-9.826262				-0.002337	-0.000421	-0.001007				179.264772	-0.425547	-40.299278
00574	13662212	0.089072	0.116506	-9.820820				-0.003497	0.003023	-0.000057				179.263770	-0.426412	-40.299252
00575	13662262	0.082409	0.103098	-9.804251				-0.002171	0.000394	-0.001965				179.265171	-0.426243	-40.296465
00576	13662312	0.073570	0.119970	-9.828650				-0.003415	0.001173	-0.003120				179.264186	-0.426568	-40.295564
00577	13662362	0.078761	0.114546	-9.822927				-0.004688	-0.001007	0.000214				179.264870	-0.426006	-40.293439
00578	13662412	0.083210	0.124512	-9.825823				-0.000238	-0.000127	-0.004445				179.264792	-0.425953	-40.292161
00579	13662462	0.076787	0.109452	-9.803496				-0.003849	-0.001158	-0.001813				179.265713	-0.425340	-40.289420
00580	13662512	0.081700	0.113676	-9.827013				-0.003782	0.001522	-0.004746				179.264620	-0.425758	-40.288057
00581	13662562	0.071831	0.103108	-9.811383				-0.004845	0.005165	-0.001229				179.265256	-0.426959	-40.285464
00582	13662612	0.068606	0.118241	-9.837975				-0.006299	-0.000550	-0.000007				179.263451	-0.426801	-40.285464
00583	13662662	0.056234	0.118702	-9.806513				-0.001765	-0.001214	0.000433				179.264973	-0.426180	-40.283359
00584	13662712	0.068904	0.123424	-9.822879				-0.005497	0.000235	-0.001668				179.263395	-0.426241	-40.282880
00585	13662762	0.075733	0.134202	-9.824831				-0.004449	0.001679	-0.001215				179.264144	-0.426443	-40.280312
00586	13662812	0.057099	0.140832	-9.829294				-0.001211	-0.000393	0.001653				179.263801	-0.426336	-40.280793
00587	13662862	0.062003	0.143603	-9.816621				-0.002585	0.001654	0.001506				179.265091	-0.426541	-40.278997
00588	13662912	0.070882	0.127438	-9.838941				-0.002263	0.000093	-0.004600				179.264433	-0.426550	-40.277681
00589	13662962	0.078887	0.110679	-9.836345				-0.003045	-0.000402	-0.003125				179.265581	-0.426149	-40.274571
00590	13663012	0.074833	0.108058	-9.823616				-0.001888	0.000497	-0.001869				179.265036	-0.426284	-40.274035
00591	13663062	0.077208	0.112025	-9.830344				-0.004867	0.000475	-0.002439				179.265663	-0.426137	-40.271099
00592	13663112	0.063510	0.117641	-9.825488				-0.002777	0.000549	-0.000262				179.264867	-0.426293	-40.271020
00593	13663162	0.058511	0.118238	-9.850630				-0.003827	0.003107	-0.003550				179.265791	-0.426895	-40.267795
00594	13663212	0.078568	0.127628	-9.810460				-0.004601	0.000049	-0.003922				179.264464	-0.426895	-40.266671
00595	13663262	0.078878	0.136891	-9.808308				-0.005481	-0.001217	-0.001612				179.264917	-0.426265	-40.263988
00596	13663312	0.076094	0.117436	-9.815001				-0.002987	-0.000074	-0.000907				179.264059	-0.426241	-40.263727
00597	13663362	0.075383	0.116922	-9.820268				-0.006955	-0.001143	-0.000007				179.264095	-0.425638	-40.261517
00598	13663412	0.072454	0.122119	-9.812827				-0.005641	0.001752	-0.002819				179.262472	-0.426130	-40.260694
00599	13663462	0.068709	0.116902	-9.817357				-0.003230	-0.000599	-0.002773				179.263569	-0.425673	-40.257713
00600	13663512	0.074163	0.115837	-9.820271				-0.003567	0.000013	-0.000842				179.262545	-0.425674	-40.257473
00601	13663562	0.067565	0.119159	-9.825504				-0.006351	0.000999	-0.000028				179.262753	-0.425685	-40.255246
00602	13663612	0.106870	0.116874	-9.813007				-0.006232	0.004130	-0.004376				179.260958	-0.426852	-40.253974
00603	13663662	0.082871	0.119877	-9.828938				-0.003234	0.002702	-0.001120				179.262057	-0.427347	-40.251439
00604	13663712	0.056864	0.120317	-9.799329				-0.005823	-0.001480	-0.000618				179.260388	-0.426920	-40.251267
00605	13663762	0.081569	0.101889	-9.810718				-0.007774	0.003494	-0.001454				179.260185	-0.427641	-40.248647
00606	13663812	0.077674	0.116566	-9.833470				-0.003925	0.001466	0.000741				179.259062	-0.428064	-40.248858
00607	13663862	0.071113	0.119116	-9.820490				-0.002890	0.000160	0.000344				179.260262	-0.427836	-40.246767
00608	13663912	0.087701	0.101832	-9.837109				-0.004887	0.002320	0.000071				179.258863	-0.428501	-40.246780
00609	13663962	0.080840	0.130311	-9.832044				-0.003170	0.000731	-0.001964				179.259978	-0.428428	-40.244007
00610	13664012	0.073968	0.117905	-9.806834				0.000013	0.002663	0.000699				179.259983	-0.429193	-40.244195
00611	13664062	0.066955	0.116589	-9.840835				-0.003887	-0.000125	-0.001320				179.260895	-0.428878	-40.241656
00612	13664112	0.069601	0.109788	-9.830070				-0.005723	-0.000801	-0.001260				179.259253	-0.428643	-40.241299
00613	13664162	0.072805	0.115773	-9.818828				-0.003117	0.000826	-0.003149				179.260381	-0.428593	-40.238191
00614	13664212	0.072417	0.133592	-9.827209				0.000778	0.001478	-0.001808				179.260600	-0.429010	-40.237670
00615	13664262	0.067338	0.121774	-9.826461				-0.003245	0.001089	-0.000482				179.261698	-0.429045	-40.235350
00616	13664312	0.080683	0.124067	-9.824854				-0.005604	0.002823	-0.000596				179.260091	-0.429852	-40.235168
00617	13664362	0.104151	0.108910	-9.823049				-0.003902	0.001755	0.000671				179.261003	-0.430082	-40.233161
00618	13664412	0.070808	0.107577	-9.826236				-0.002988	-0.000205	-0.002835				179.260141	-0.430013	-40.232345
00619	13664462	0.069643	0.114250	-9.814491				-0.002950	-0.000203	-0.000845				179.261322	-0.429676	-40.229928
00620	13664512	0.074876	0.102295	-9.816914				-0.004417	-0.000387	-0.000074				179.260057	-0.429565	-40.229914
00621	13664562	0.083454	0.105369	-9.826539				-0.002401	-0.000487	-0.002100				179.261393	-0.429143	-40.227114
00622	13664612	0.090450	0.099645	-9.833286				-0.005032	-0.001337	-0.001170				179.259949	-0.428756	-40.226786
00623	13664662	0.061048	0.122770	-9.820201				-0.002684	0.000518	0.000282				179.261209	-0.428630	-40.224672
00624	13664712	0.068076	0.146414	-9.806822				-0.003844	0.000750	-0.001828				179.260104	-0.428838	-40.224144
00625	13664762	0.050493	0.128415	-9.818229				-0.007685	-0.000449	-0.001892				179.259927	-0.428427	-40.221410
00626	13664812	0.086963	0.106906	-9.824642				-0.007946	0.000777	-0.001180				179.257648	-0.428646	-40.221064
00627	13664862	0.080825	0.128493	-9.823171				-0.002331	0.002392	-0.003179				179.259002	-0.429044	-40.217947
00628	13664912	0.087845	0.110387	-9.815054				-0.002080	-0.000316	-0.000624				179.258405	-0.428951	-40.217769
00629	13664962	0.088221	0.099087	-9.826081				-0.004061	-0.002609	0.000360				179.259271	-0.427930	-40.215698
00630	13665012	0.079754	0.102609	-9.832994				-0.006730	0.000797	-0.001123				179.257340	-0.428154	-40.215370
00631	13665062	0.070775	0.110033	-9.828393				-0.003895	-0.000506	0.000408				179.258254	-0.427736	-40.213295
00632	13665112	0.081700	0.120367	-9.834446				-0.001360	0.001284	0.000247				179.257865	-0.428105	-40.213353
00633	13665162	0.076153	0.124106	-9.835371				-0.000932	0.000966	0.001306				179.259630	-0.428111	-40.211542
00634	13665212	0.077318	0.133680	-9.832748				-0.005360	0.004118	-0.001811				179.258091	-0.429284	-40.211009
00635	13665262	0.078227	0.134641	-9.800882				-0.006207	0.002653	0.000110				179.258342	-0.429769	-40.208840
00636	13665312	0.065518	0.129810	-9.831011				-0.001930	0.000042	-0.001487				179.257785	-0.429775	-40.208412
00637	13665362	0.087315	0.115860	-9.810025				-0.003941	0.000819	-0.000743				179.258685	-0.429732	-40.206017
00638	13665412	0.063371	0.129449	-9.850172				-0.004936	0.004701	-0.004406				179.257261	-0.431062	-40.204728
00639	13665462	0.070964	0.108410	-9.818570				-0.002465	-0.000353	-0.000816				179.258582	-0.430683	-40.202306
00640	13665512	0.072882	0.119239	-9.826970				-0.003435	-0.005186	0.000416				179.257599	-0.429199	-40.202452
00641	13665562	0.099168	0.107799	-9.837166				-0.001108	-0.000047	-0.002939				179.259305	-0.428900	-40.199414
00642	13665612	0.073581	0.113148	-9.849257				-0.002191	0.002338	-0.000098				179.258676	-0.429569	-40.199368
00643	13665662	0.053904	0.116940	-9.843885				-0.006416	0.000224	0.000966				179.258870	-0.429361	-40.197462
00644	13665712	0.072741	0.114681	-9.806359				-0.005040	0.002057	-0.001693				179.257422	-0.429944	-40.196972
00645	13665762	0.066844	0.132730	-9.829339				-0.005534	0.004135	-0.007264				179.257851	-0.430827	-40.192693
00646	13665812	0.068923	0.116037	-9.825275				-0.002050	0.005724	-0.003894				179.257256	-0.432452	-40.191551
00647	13665862	0.076019	0.110659	-9.838241				-0.001565	-0.001373	0.000908				179.258840	-0.431786	-40.189624
00648	13665912	0.078562	0.102015	-9.805671				0.000663	-0.001341	-0.003653				179.259022	-0.431389	-40.188589
00649	13665962	0.079968	0.113912	-9.828920				-0.002865	-0.001308	-0.004925				179.260221	-0.430721	-40.184994
00650	13666012	0.075992	0.113807	-9.829858				-0.001094	-0.000236	-0.001716				179.259903	-0.430647	-40.184499
00651	13666062	0.070467	0.123798	-9.802516				-0.002071	0.001037	-0.004113				179.261332	-0.430654	-40.181140
00652	13666112	0.098160	0.102220	-9.812479				-0.002868	-0.000141	-0.004632				179.260500	-0.430596	-40.179818
00653	13666162	0.086994	0.111180	-9.833266				-0.001652	-0.000828	-0.002167				179.262052	-0.430076	-40.177023
00654	13666212	0.074346	0.115261	-9.833207				-0.001443	-0.000536	-0.003578				179.261631	-0.429909	-40.175993
00655	13666262	0.104956	0.106729	-9.808195				-0.000132	-0.000054	0.000464				179.263625	-0.429620	-40.173941
00656	13666312	0.078896	0.107152	-9.837302				-0.004010	-0.002189	0.001329				179.262479	-0.428998	-40.174333
00657	13666362	0.077739	0.122300	-9.819800				-0.004069	0.001949	0.001670				179.263347	-0.429288	-40.172610
00658	13666412	0.079277	0.122065	-9.804954				-0.002481	0.000064	-0.001356				179.262633	-0.429301	-40.172228
00659	13666462	0.074023	0.122231	-9.837281				-0.002903	0.000083	-0.003763				179.263824	-0.429036	-40.168955
00660	13666512	0.088468	0.124646	-9.828489				-0.002658	-0.000454	-0.000494				179.263061	-0.428904	-40.168816
00661	13666562	0.078877	0.111695	-9.825082				-0.004752	0.001227	0.000416				179.263731	-0.428982	-40.166747
00662	13666612	0.086171	0.114184	-9.808826				-0.006104	0.004923	0.003361				179.261990	-0.430404	-40.167694
00663	13666662	0.076851	0.132726	-9.810701				-0.002438	0.000645	-0.002702				179.263315	-0.430304	-40.164727
00664	13666712	0.071068	0.119039	-9.814258				-0.003860	-0.000028	-0.003248				179.262203	-0.430284	-40.163799
00665	13666762	0.082994	0.104217	-9.825102				-0.005446	0.002431	-0.004961				179.262662	-0.430687	-40.160202
00666	13666812	0.066957	0.121490	-9.819984				-0.006568	-0.001365	-0.002252				179.260776	-0.430287	-40.159564
00667	13666862	0.078694	0.118589	-9.811418				-0.001601	0.000530	-0.001870				179.262344	-0.430157	-40.156898
00668	13666912	0.084847	0.094680	-9.834686				-0.005704	0.000453	-0.004847				179.260700	-0.430269	-40.155501
00669	13666962	0.078990	0.111999	-9.827954				-0.003959	-0.003973	-0.002019				179.261592	-0.428849	-40.152760
00670	13667012	0.068911	0.117444	-9.841808				-0.000668	0.001650	-0.000711				179.261399	-0.429319	-40.152549
00671	13667062	0.084154	0.106072	-9.823431				-0.003486	-0.000531	-0.000461				179.262430	-0.428890	-40.150240
00672	13667112	0.084078	0.110305	-9.823668				-0.003921	-0.000736	0.000151				179.261307	-0.428679	-40.150281
00673	13667162	0.068380	0.133069	-9.818560				-0.004903	0.003935	-0.001842				179.261930	-0.429524	-40.147566
00674	13667212	0.062606	0.129041	-9.820691				-0.005100	0.000928	-0.000191				179.260468	-0.429790	-40.147500
00675	13667262	0.089708	0.120740	-9.820827				-0.003485	0.000530	-0.001226				179.261498	-0.429662	-40.144993
00676	13667312	0.091560	0.126033	-9.822510				-0.003768	0.001137	-0.002281				179.260414	-0.429979	-40.144337
00677	13667362	0.085404	0.096344	-9.823912				-0.003623	-0.001404	-0.000531				179.261406	-0.429300	-40.142012
00678	13667412	0.088353	0.112080	-9.828004				-0.001196	0.000159	0.000881				179.261065	-0.429349	-40.142271
00679	13667462	0.065244	0.119459	-9.832201				-0.004413	0.000151	-0.005203				179.261821	-0.429098	-40.138586
00680	13667512	0.080657	0.112213	-9.850248				-0.007277	0.000625	-0.001950				179.259732	-0.429270	-40.138022
00681	13667562	0.095564	0.106715	-9.807435				-0.005223	0.004028	0.000657				179.260268	-0.430151	-40.136020
00682	13667612	0.074981	0.130797	-9.816674				-0.005165	-0.000077	0.000188				179.258789	-0.430130	-40.136064
00683	13667662	0.075071	0.127546	-9.822903				-0.004741	0.000803	0.000484				179.259463	-0.430087	-40.134024
00684	13667712	0.073763	0.116604	-9.829605				-0.000640	-0.002326	-0.000381				179.259279	-0.429419	-40.133920
00685	13667762	0.077640	0.127210	-9.821960				-0.000854	-0.000551	0.000432				179.261067	-0.428988	-40.131877
00686	13667812	0.069653	0.141051	-9.824796				-0.003267	-0.002372	-0.001530				179.260128	-0.428303	-40.131450
00687	13667862	0.082436	0.124902	-9.850266				-0.001003	0.002126	-0.000903				179.261870	-0.428633	-40.129000
00688	13667912	0.065866	0.119025	-9.817583				-0.003233	0.001471	-0.002564				179.260938	-0.429045	-40.128258
00689	13667962	0.082284	0.139419	-9.833256				-0.004329	-0.001393	-0.002099				179.261725	-0.428363	-40.125487
00690	13668012	0.084888	0.116864	-9.816726				-0.003067	-0.000755	-0.002004				179.260842	-0.428140	-40.124915
00691	13668062	0.082139	0.116038	-9.816469				-0.002429	0.000582	-0.002161				179.262174	-0.428023	-40.122123
00692	13668112	0.087551	0.122351	-9.823927				0.000669	0.001965	-0.000302				179.262365	-0.428585	-40.122035
00693	13668162	0.086952	0.122361	-9.830394				-0.004885	0.002381	-0.000638				179.262995	-0.428990	-40.119660
00694	13668212	0.084080	0.103726	-9.811681				-0.001959	-0.001416	-0.003266				179.262427	-0.428572	-40.118731
00695	13668262	0.073975	0.108657	-9.840633				-0.006897	0.000993	-0.000247				179.262482	-0.428581	-40.116492
00696	13668312	0.070771	0.110603	-9.818566				-0.005639	0.000852	0.000258				179.260868	-0.428825	-40.116565
00697	13668362	0.075951	0.130067	-9.820037				-0.002927	-0.001340	-0.004990				179.262050	-0.428148	-40.112967
00698	13668412	0.081740	0.106578	-9.832282				-0.000225	-0.002384	-0.000285				179.261985	-0.427464	-40.112893
00699	13668462	0.090986	0.117279	-9.807407				-0.004692	-0.002011	-0.000948				179.262671	-0.426610	-40.110477
00700	13668512	0.074964	0.123397	-9.833689				-0.003646	0.000625	0.000026				179.261626	-0.426789	-40.110478
00701	13668562	0.058075	0.140792	-9.833611				-0.005764	0.001689	0.000104				179.262007	-0.426999	-40.108354
00702	13668612	0.073083	0.113536	-9.820262				-0.006222	0.001101	0.000105				179.260225	-0.427314	-40.108380
00703	13668662	0.075935	0.119130	-9.829387				-0.003923	0.001037	-0.002856				179.261127	-0.427326	-40.105395
00704	13668712	0.071910	0.124258	-9.831281				-0.002791	0.001673	-0.003818				179.260319	-0.427791	-40.104300
00705	13668762	0.052315	0.139534	-9.824714				-0.000789	0.002158	-0.004590				179.262116	-0.428117	-40.100808
00706	13668812	0.082291	0.129569	-9.825828				-0.003739	0.002562	-0.001024				179.261042	-0.428848	-40.100503
00707	13668862	0.075680	0.155150	-9.826276				-0.006001	-0.001036	-0.002863				179.261349	-0.428265	-40.097518
00708	13668912	0.081103	0.121067	-9.833479				-0.002415	-0.003069	-0.001475				179.260654	-0.427381	-40.097111
00709	13668962	0.060781	0.107119	-9.824986				-0.000796	-0.001783	-0.003521				179.262449	-0.426582	-40.093946
00710	13669012	0.064383	0.116658	-9.824050				-0.001640	0.004291	0.001293				179.261982	-0.427816	-40.094297
00711	13669062	0.079976	0.111039	-9.814787				-0.002837	0.001522	0.001509				179.263205	-0.427982	-40.092544
00712	13669112	0.070429	0.111064	-9.823120				-0.002722	-0.002466	-0.002271				179.262420	-0.427267	-40.091896
00713	13669162	0.094856	0.120500	-9.823011				0.000203	-0.001631	0.000483				179.264512	-0.426526	-40.089908
00714	13669212	0.059377	0.118665	-9.819227				-0.001208	-0.001694	-0.002011				179.264162	-0.426034	-40.089334
00715	13669262	0.069435	0.137548	-9.816651				-0.004254	0.000949	0.003141				179.264982	-0.426042	-40.088068
00716	13669312	0.070347	0.121976	-9.818811				-0.004925	0.001639	-0.000510				179.263570	-0.426510	-40.087919
00717	13669362	0.078929	0.135090	-9.820052				-0.002609	-0.000873	-0.000142				179.264854	-0.425984	-40.085718
00718	13669412	0.078612	0.114267	-9.832743				-0.005100	-0.001311	-0.002384				179.263388	-0.425599	-40.085034
00719	13669462	0.077795	0.118169	-9.831791				-0.002202	0.000391	-0.002544				179.264784	-0.425426	-40.082162
00720	13669512	0.092855	0.101153	-9.831375				-0.006717	0.002874	0.003349				179.262867	-0.426262	-40.083106
00721	13669562	0.069300	0.114786	-9.832223				-0.004203	-0.001292	-0.002483				179.263690	-0.425608	-40.080257
00722	13669612	0.072680	0.139413	-9.811154				-0.004378	-0.000716	-0.002576				179.262431	-0.425393	-40.079524
00723	13669662	0.083037	0.114252	-9.815034				-0.004136	0.000814	-0.001253				179.263275	-0.425346	-40.076980
00724	13669712	0.065961	0.112933	-9.824058				-0.003132	0.001506	-0.000611				179.262377	-0.425776	-40.076803
00725	13669762	0.078910	0.125932	-9.830591				-0.002887	-0.000811	0.002683				179.263588	-0.425278	-40.075431
00726	13669812	0.069637	0.129316	-9.833671				-0.004860	0.000409	-0.000870				179.262194	-0.425392	-40.075185
00727	13669862	0.070019	0.127735	-9.821928				-0.005891	-0.001447	-0.001408				179.262536	-0.424697	-40.072624
00728	13669912	0.094408	0.112695	-9.828754				-0.005277	0.002310	-0.001579				179.261021	-0.425353	-40.072161
00729	13669962	0.079946	0.111710	-9.837070				-0.006228	0.003265	-0.000189				179.261269	-0.426012	-40.069946
00730	13670012	0.063359	0.105898	-9.813974				-0.004155	0.000264	-0.001072				179.260077	-0.426083	-40.069639
00731	13670062	0.079484	0.099310	-9.833471				-0.003113	-0.001438	-0.002564				179.261212	-0.425387	-40.066751
00732	13670112	0.075250	0.108006	-9.826979				-0.008226	-0.001322	0.003129				179.258862	-0.425020	-40.067647
00733	13670162	0.058215	0.130075	-9.829531				-0.004341	0.002164	-0.002219				179.259647	-0.425356	-40.064852
00734	13670212	0.083098	0.119183	-9.843080				-0.005586	-0.002027	-0.000796				179.258045	-0.424773	-40.064627
00735	13670262	0.074328	0.116218	-9.828651				-0.004707	0.004615	-0.002237				179.258725	-0.425811	-40.061833
00736	13670312	0.072995	0.135151	-9.808284				-0.004553	0.001967	-0.001612				179.257417	-0.426368	-40.061359
00737	13670362	0.078200	0.111373	-9.828191				-0.007735	0.001238	0.000574				179.257235	-0.426450	-40.059370
00738	13670412	0.058439	0.126996	-9.825935				-0.007853	0.001913	-0.000508				179.254984	-0.426996	-40.059208
00739	13670462	0.067285	0.108824	-9.822144				-0.001773	0.003346	0.000988				179.256512	-0.427683	-40.057352
00740	13670512	0.072291	0.119369	-9.822892				-0.002401	0.000385	-0.003455				179.255817	-0.427780	-40.056359
00741	13670562	0.055684	0.139387	-9.840064				-0.002242	-0.001515	-0.002019				179.257203	-0.427063	-40.053636
00742	13670612	0.084350	0.133638	-9.834939				-0.001048	0.000549	0.000937				179.256905	-0.427224	-40.053911
00743	13670662	0.083599	0.115052	-9.826546				-0.001886	0.000398	-0.000954				179.258396	-0.427059	-40.051487
00744	13670712	0.066643	0.120175	-9.831732				-0.002800	0.000124	-0.000759				179.257592	-0.427092	-40.051268
00745	13670762	0.071679	0.113033	-9.821454				-0.006095	0.001845	-0.000806				179.257877	-0.427342	-40.048881
00746	13670812	0.090865	0.102946	-9.831125				-0.005484	-0.000414	-0.002679				179.256301	-0.427214	-40.048118
00747	13670862	0.072921	0.113852	-9.832003				-0.002779	0.001682	0.001237				179.257541	-0.427425	-40.046306
00748	13670912	0.083073	0.116691	-9.819592				-0.006786	0.000442	-0.000460				179.255596	-0.427550	-40.046176
00749	13670962	0.084408	0.111358	-9.831335				-0.002841	0.001749	0.003355				179.256822	-0.427788	-40.044997
00750	13671012	0.077738	0.121188	-9.826277				-0.003085	-0.001276	-0.002274				179.255934	-0.427414	-40.044342
00751	13671062	0.071605	0.126450	-9.831760				-0.005039	0.001025	-0.000495				179.256523	-0.427430	-40.042071
00752	13671112	0.070759	0.111749	-9.819768				-0.003290	0.001310	-0.001556				179.255577	-0.427800	-40.041622
00753	13671162	0.080146	0.116027	-9.815019				-0.001588	-0.001089	-0.003751				179.257148	-0.427198	-40.038404
00754	13671212	0.085139	0.104074	-9.830861				-0.005998	-0.002223	-0.000635				179.255428	-0.426559	-40.038230
00755	13671262	0.069578	0.118782	-9.814723				-0.004011	-0.003455	-0.000741				179.256312	-0.425291	-40.035899
00756	13671312	0.077997	0.118509	-9.808785				-0.001478	0.002631	-0.004213				179.255879	-0.426029	-40.034681
00757	13671362	0.067837	0.120704	-9.834373				-0.003935	-0.001907	-0.003495				179.256778	-0.425194	-40.031533
00758	13671412	0.088638	0.105701	-9.825607				-0.005538	-0.001773	-0.003202				179.255185	-0.424675	-40.030626
00759	13671462	0.084164	0.106500	-9.824867				-0.001156	0.001938	0.000465				179.256889	-0.424956	-40.028584
00760	13671512	0.082927	0.126692	-9.823427				-0.004112	0.000872	-0.002771				179.255705	-0.425196	-40.027789
00761	13671562	0.093221	0.104502	-9.826352				-0.002434	0.001319	-0.004795				179.257031	-0.425280	-40.024252
00762	13671612	0.078627	0.109141	-9.826277				-0.005509	-0.000575	-0.002586				179.255447	-0.425106	-40.023507
00763	13671662	0.073594	0.126614	-9.826978				-0.002629	-0.001388	0.000226				179.256729	-0.424434	-40.021451
00764	13671712	0.081424	0.101182	-9.818140				-0.003440	-0.003856	0.002719				179.255750	-0.423339	-40.022245
00765	13671762	0.066559	0.128356	-9.827173				-0.003521	0.002760	0.000215				179.256776	-0.423855	-40.020178
00766	13671812	0.080469	0.117271	-9.825808				-0.006106	0.001162	-0.002893				179.255020	-0.424177	-40.019342
00767	13671862	0.076863	0.135000	-9.828193				-0.003634	0.000571	0.004540				179.256024	-0.424082	-40.018489
00768	13671912	0.067644	0.135056	-9.836528				-0.004816	-0.000877	0.001422				179.254647	-0.423836	-40.018891
00769	13671962	0.076093	0.137865	-9.825076				-0.008031	0.000256	-0.001162				179.254378	-0.423630	-40.016402
00770	13672012	0.078621	0.119457	-9.800640				-0.005854	0.001264	-0.002830				179.252695	-0.423981	-40.015583
00771	13672062	0.077172	0.118889	-9.830825				-0.003175	0.001863	-0.000492				179.253819	-0.424238	-40.013334
00772	13672112	0.079083	0.121826	-9.806629				-0.003272	0.000527	-0.004092				179.252873	-0.424374	-40.012157
00773	13672162	0.065647	0.110983	-9.820704				-0.000725	-0.002746	0.000373				179.254701	-0.423313	-40.010143
00774	13672212	0.080162	0.126796	-9.815984				-0.004522	0.002908	0.000220				179.253406	-0.424147	-40.010195
00775	13672262	0.050266	0.126604	-9.821820				-0.005317	-0.001474	-0.002074				179.253913	-0.423442	-40.007457
00776	13672312	0.094977	0.109782	-9.811981				-0.003276	0.001088	0.000174				179.252974	-0.423754	-40.007505
00777	13672362	0.096113	0.108077	-9.837626				-0.003824	0.000008	-0.001209				179.253911	-0.423477	-40.005035
00778	13672412	0.071844	0.121766	-9.837029				-0.002564	-0.000295	-0.001691				179.253173	-0.423386	-40.004555
00779	13672462	0.079007	0.125492	-9.831074				-0.009659	0.003465	0.000047				179.252440	-0.424103	-40.002429
00780	13672512	0.078613	0.127984	-9.816209				-0.003941	-0.000415	-0.000922				179.251309	-0.423981	-40.002158
00781	13672562	0.086548	0.120596	-9.812416				-0.002206	0.000717	-0.000118				179.252712	-0.423911	-40.000018
00782	13672612	0.081154	0.121705	-9.829642				-0.000932	0.000770	-0.000858				179.252443	-0.424128	-39.999772
00783	13672662	0.085314	0.109272	-9.835654				-0.002971	-0.001824	-0.002219				179.253622	-0.423322	-39.997001
00784	13672712	0.072526	0.123071	-9.816421				-0.002634	0.002871	-0.002798				179.252862	-0.424134	-39.996190
00785	13672762	0.090665	0.101249	-9.830170				-0.002905	0.000219	-0.000761				179.254062	-0.423919	-39.993858
00786	13672812	0.074134	0.135911	-9.814037				-0.003774	-0.001413	0.000005				179.252981	-0.423514	-39.993869
00787	13672862	0.069577	0.115071	-9.828627				-0.008724	0.001992	-0.001823				179.252512	-0.423802	-39.991204
00788	13672912	0.069918	0.122767	-9.823847				-0.006521	0.001185	-0.001804				179.250640	-0.424135	-39.990680
00789	13672962	0.076027	0.125801	-9.822195				-0.002583	0.000586	0.001388				179.251939	-0.424033	-39.988975
00790	13673012	0.074389	0.105605	-9.819062				-0.002433	-0.000647	-0.002689				179.251236	-0.423838	-39.988211
00791	13673062	0.083295	0.116739	-9.821993				-0.007011	0.000733	0.000472				179.251264	-0.423774	-39.986205
00792	13673112	0.094018	0.089392	-9.819396				-0.000093	-0.002642	-0.001232				179.251235	-0.423013	-39.985859
00793	13673162	0.074511	0.117637	-9.832966				-0.003060	-0.000949	-0.001632				179.252390	-0.422459	-39.983274
00794	13673212	0.072909	0.144575	-9.820743				-0.004618	-0.001167	-0.001501				179.251064	-0.422120	-39.982841
00795	13673262	0.069773	0.119595	-9.819525				-0.004356	-0.003362	0.000001				179.251851	-0.420881	-39.980722
00796	13673312	0.077711	0.116794	-9.832746				-0.004351	0.000651	0.000882				179.250607	-0.421071	-39.980973
00797	13673362	0.068671	0.117582	-9.846360				-0.004530	0.000963	-0.000975				179.251342	-0.421068	-39.978563
00798	13673412	0.079361	0.125179	-9.850252				-0.005446	0.001153	0.003681				179.249790	-0.421412	-39.979613
00799	13673462	0.066150	0.110983	-9.812310				-0.005817	-0.000635	0.000659				179.250160	-0.420957	-39.977678
00800	13673512	0.087377	0.115741	-9.823443				-0.001493	0.000010	-0.004938				179.249722	-0.420942	-39.976259
00801	13673562	0.067909	0.135933	-9.818563				-0.004897	0.004642	-0.001883				179.250350	-0.421989	-39.973604
00802	13673612	0.077793	0.099016	-9.811416				-0.006236	0.003328	-0.002273				179.248559	-0.422934	-39.972933
00803	13673662	0.095921	0.106705	-9.812464				-0.002019	-0.000514	-0.002502				179.250011	-0.422502	-39.970090
00804	13673712	0.068892	0.118503	-9.837016				-0.007323	0.002441	-0.000639				179.247912	-0.423199	-39.969894
00805	13673762	0.068886	0.124223	-9.825034				-0.005850	-0.001907	-0.002816				179.248265	-0.422367	-39.966997
00806	13673812	0.059150	0.102599	-9.821381				-0.002506	0.000038	0.001321				179.247550	-0.422383	-39.967370
00807	13673862	0.068490	0.124755	-9.821681				-0.002590	0.003416	-0.002925				179.248837	-0.423076	-39.964393
00808	13673912	0.074974	0.121308	-9.802537				-0.002729	-0.001203	-0.001889				179.248051	-0.422724	-39.963858
00809	13673962	0.077560	0.127722	-9.804227				-0.003160	0.000314	-0.000534				179.249181	-0.422537	-39.961581
00810	13674012	0.059611	0.104506	-9.821142				-0.001739	0.000892	-0.000018				179.248683	-0.422792	-39.961574
00811	13674062	0.089241	0.117674	-9.821539				-0.001618	0.000111	-0.001757				179.250251	-0.422542	-39.958965
00812	13674112	0.072856	0.141536	-9.825064				-0.002303	0.004794	0.000834				179.249593	-0.423919	-39.959186
00813	13674162	0.062120	0.122446	-9.834580				-0.000877	0.001261	0.000719				179.251379	-0.424007	-39.957298
00814	13674212	0.091074	0.106700	-9.829934				-0.002085	0.000556	-0.001500				179.250779	-0.424161	-39.956857
00815	13674262	0.075314	0.125282	-9.815964				-0.004680	0.002737	-0.003210				179.251467	-0.424658	-39.953843
00816	13674312	0.080640	0.116948	-9.825811				-0.004157	-0.000315	0.001456				179.250279	-0.424573	-39.954265
00817	13674362	0.071671	0.130386	-9.819537				-0.000616	0.001237	0.001711				179.252143	-0.424658	-39.952637
00818	13674412	0.077112	0.113486	-9.816206				-0.004832	-0.000629	-0.002298				179.250753	-0.424470	-39.951983
00819	13674462	0.082487	0.106701	-9.824621				-0.001471	-0.000372	-0.000796				179.252366	-0.424085	-39.949637
00820	13674512	0.067044	0.133972	-9.813766				-0.005423	0.000177	0.000659				179.250814	-0.424138	-39.949830
00821	13674562	0.073157	0.113005	-9.820258				-0.006529	-0.004427	0.001890				179.250984	-0.422601	-39.948269
00822	13674612	0.064537	0.123296	-9.822369				-0.003149	-0.005279	-0.001200				179.250080	-0.421084	-39.947946
00823	13674662	0.089601	0.102276	-9.814823				-0.006129	-0.000229	-0.003610				179.250353	-0.420730	-39.944805
00824	13674712	0.097143	0.095189	-9.818467				-0.003260	0.001410	-0.000270				179.249418	-0.421133	-39.944721
00825	13674762	0.079474	0.095944	-9.812859				-0.007037	0.001406	-0.000744				179.249437	-0.421257	-39.942392
00826	13674812	0.080943	0.117991	-9.814309				-0.004319	0.003456	-0.002276				179.248195	-0.422238	-39.941728
00827	13674862	0.097645	0.113828	-9.818470				-0.006667	0.002801	-0.002085				179.248317	-0.422758	-39.939006
00828	13674912	0.070313	0.128309	-9.825041				-0.006032	0.000972	-0.001577				179.246586	-0.423030	-39.938543
00829	13674962	0.071387	0.135565	-9.824569				-0.004493	-0.001331	-0.002688				179.247329	-0.422364	-39.935683
00830	13675012	0.080619	0.120290	-9.809514				-0.005464	0.002277	-0.001413				179.245761	-0.423010	-39.935273
00831	13675062	0.069023	0.121564	-9.829108				-0.003112	0.001898	-0.000136				179.246906	-0.423278	-39.933094
00832	13675112	0.081637	0.124294	-9.831327				-0.001080	0.001545	-0.000081				179.246597	-0.423721	-39.933067
00833	13675162	0.099495	0.112023	-9.829494				-0.003222	-0.000790	-0.000252				179.247710	-0.423218	-39.930899
00834	13675212	0.081589	0.106407	-9.836113				0.000165	0.000428	-0.002725				179.247752	-0.423331	-39.930117
00835	13675262	0.074847	0.116236	-9.816906				-0.002626	-0.003693	-0.002991				179.249030	-0.421986	-39.927177
00836	13675312	0.074334	0.121204	-9.812364				-0.002953	-0.003271	-0.000073				179.248184	-0.421049	-39.927169
00837	13675362	0.096132	0.114622	-9.815823				-0.003496	-0.000950	0.002220				179.249224	-0.420510	-39.925690
00838	13675412	0.075673	0.112818	-9.813079				-0.001874	0.000069	-0.002816				179.248682	-0.420519	-39.924887
00839	13675462	0.075297	0.105567	-9.818103				0.000430	-0.000723	0.001115				179.250844	-0.420042	-39.923088
00840	13675512	0.086270	0.115826	-9.831594				-0.000960	0.001807	-0.000791				179.250567	-0.420556	-39.922855
00841	13675562	0.077921	0.110748	-9.826271				-0.002811	0.000415	-0.001176				179.251797	-0.420395	-39.920395
00842	13675612	0.078991	0.122496	-9.820057				-0.001466	0.002608	0.001656				179.251380	-0.421149	-39.920860
00843	13675662	0.080618	0.114909	-9.845458				-0.003447	0.001686	-0.007099				179.252415	-0.421331	-39.916709
00844	13675712	0.066193	0.131008	-9.820467				-0.007195	0.000106	-0.002801				179.250348	-0.421350	-39.915903
00845	13675762	0.070740	0.124209	-9.842060				-0.005753	0.001038	-0.002444				179.250733	-0.421364	-39.913101
00846	13675812	0.069228	0.123925	-9.838696				-0.004621	-0.000332	-0.002553				179.249403	-0.421259	-39.912368
00847	13675862	0.089348	0.105665	-9.837591				-0.004019	-0.004001	0.000183				179.250290	-0.419839	-39.910336
00848	13675912	0.088933	0.120239	-9.821540				-0.002452	0.000929	-0.003675				179.249580	-0.420091	-39.909285
00849	13675962	0.078275	0.123564	-9.828673				-0.001975	0.000066	-0.003843				179.251043	-0.419820	-39.906084
00850	13676012	0.073662	0.117584	-9.809237				-0.004096	-0.000416	-0.000920				179.249867	-0.419698	-39.905822
00851	13676062	0.060608	0.124275	-9.827627				-0.003639	0.000409	0.001839				179.250866	-0.419547	-39.904234
00852	13676112	0.084486	0.098119	-9.817679				-0.002313	0.000779	-0.001306				179.250200	-0.419765	-39.903854
00853	13676162	0.062741	0.132878	-9.836985				0.002546	0.001052	-0.003432				179.252960	-0.419779	-39.900777
00854	13676212	0.077212	0.120348	-9.800389				-0.003862	0.002275	-0.001547				179.251851	-0.420425	-39.900321
00855	13676262	0.078195	0.102159	-9.823875				-0.001981	-0.000969	-0.005098				179.253310	-0.419853	-39.896766
00856	13676312	0.079411	0.113777	-9.827002				-0.000735	0.004587	-0.002891				179.253094	-0.421156	-39.895919
00857	13676362	0.069297	0.120392	-9.842770				-0.003752	-0.001547	-0.004296				179.254048	-0.420422	-39.892601
00858	13676412	0.072147	0.110809	-9.819772				-0.003912	-0.000212	0.000461				179.252928	-0.420363	-39.892726
00859	13676462	0.059189	0.136040	-9.819956				-0.003451	0.001044	-0.004215				179.253968	-0.420371	-39.889436
00860	13676512	0.080075	0.123164	-9.819819				-0.008217	-0.000978	-0.001907				179.251610	-0.420084	-39.888892
00861	13676562	0.075477	0.110037	-9.819788				-0.000364	-0.000191	-0.001795				179.253540	-0.419747	-39.886275
00862	13676612	0.083679	0.117579	-9.816950				-0.002549	-0.002912	-0.000652				179.252808	-0.418910	-39.886102
00863	13676662	0.074420	0.126720	-9.817872				-0.001819	0.002564	-0.000875				179.254322	-0.419367	-39.883795
00864	13676712	0.072397	0.135465	-9.814986				-0.006140	0.004724	0.000527				179.252564	-0.420722	-39.883933
00865	13676762	0.071773	0.143140	-9.822655				-0.003283	0.000054	-0.001176				179.253659	-0.420458	-39.881482
00866	13676812	0.065160	0.136143	-9.808722				-0.002412	0.001069	-0.000691				179.252967	-0.420761	-39.881281
00867	13676862	0.083488	0.118538	-9.821267				-0.002177	-0.000282	0.001165				179.254384	-0.420409	-39.879536
00868	13676912	0.071292	0.116083	-9.809705				-0.001489	-0.000717	0.001989				179.253962	-0.420211	-39.880102
00869	13676962	0.073654	0.128205	-9.813790				-0.000161	0.002687	-0.002937				179.255948	-0.420695	-39.877180
00870	13677012	0.070987	0.122770	-9.840868				-0.004065	0.001325	-0.003539				179.254776	-0.421061	-39.876155
00871	13677062	0.069592	0.122148	-9.813055				-0.004917	0.000122	0.000435				179.255406	-0.420822	-39.874193
00872	13677112	0.078846	0.095004	-9.828910				0.000577	0.000536	-0.002144				179.255567	-0.420968	-39.873583
00873	13677162	0.081515	0.115044	-9.833719				0.001969	0.000012	-0.003211				179.258163	-0.420684	-39.870586
00874	13677212	0.071171	0.112627	-9.811381				-0.005225	0.001894	-0.000071				179.256666	-0.421226	-39.870559
00875	13677262	0.084982	0.114463	-9.831103				-0.003363	-0.001407	-0.001697				179.257737	-0.420542	-39.868001
00876	13677312	0.069053	0.118107	-9.818554				-0.002185	0.002748	-0.003795				179.257103	-0.421315	-39.866909
00877	13677362	0.072205	0.103898	-9.815459				-0.004011	-0.001454	-0.002847				179.257986	-0.420612	-39.864010
00878	13677412	0.080339	0.117950	-9.814785				-0.003140	-0.000072	0.000814				179.257088	-0.420595	-39.864238
00879	13677462	0.083310	0.126521	-9.812405				-0.004851	-0.001011	-0.001723				179.257734	-0.420023	-39.861668
00880	13677512	0.075564	0.122776	-9.820030				-0.005145	0.000278	-0.000816				179.256258	-0.420100	-39.861434
00881	13677562	0.091627	0.114075	-9.802619				-0.001543	0.002962	0.000855				179.257857	-0.420676	-39.859594
00882	13677612	0.081356	0.121138	-9.822456				-0.002505	0.002204	0.001431				179.257142	-0.421313	-39.859994
00883	13677662	0.088603	0.109832	-9.809315				0.000348	0.002700	-0.003512				179.259273	-0.421798	-39.856896
00884	13677712	0.061829	0.122197	-9.826194				-0.004749	0.001735	-0.003406				179.257905	-0.422282	-39.855913
00885	13677762	0.077327	0.120259	-9.822436				-0.006756	0.002868	0.001515				179.258012	-0.422834	-39.854253
00886	13677812	0.063029	0.121158	-9.820689				-0.003197	0.001639	-0.000233				179.257095	-0.423303	-39.854179
00887	13677862	0.081565	0.114177	-9.842583				-0.005165	0.001957	-0.000840				179.257653	-0.423585	-39.851852
00888	13677912	0.061484	0.116536	-9.830986				-0.002959	0.002161	-0.000390				179.256804	-0.424202	-39.851729
00889	13677962	0.070104	0.126897	-9.815696				-0.004779	0.003903	-0.001182				179.257472	-0.425040	-39.849297
00890	13678012	0.078808	0.112891	-9.823881				-0.005137	0.001121	0.000217				179.256001	-0.425362	-39.849361
00891	13678062	0.078803	0.114067	-9.826277				-0.004359	0.000137	0.002709				179.256796	-0.425136	-39.848064
00892	13678112	0.079831	0.130052	-9.823411				-0.007638	0.001170	-0.000104				179.254608	-0.425471	-39.848024
00893	13678162	0.062354	0.124011	-9.831950				-0.005792	0.003327	-0.004613				179.254978	-0.426132	-39.844619
00894	13678212	0.077717	0.124184	-9.823157				-0.003233	-0.000361	0.002000				179.254056	-0.426036	-39.845195
00895	13678262	0.097910	0.108147	-9.812476				-0.000286	0.002892	0.001460				179.256016	-0.426595	-39.843557
00896	13678312	0.081714	0.125172	-9.819826				-0.002708	-0.001978	-0.002536				179.255235	-0.426019	-39.842833
00897	13678362	0.076945	0.122333	-9.812366				-0.003440	-0.001083	-0.001276				179.256286	-0.425429	-39.840412
00898	13678412	0.055903	0.133028	-9.828083				-0.001860	-0.001414	-0.001539				179.255750	-0.425018	-39.839978
00899	13678462	0.084730	0.110157	-9.812410				-0.004139	-0.001259	-0.002337				179.256598	-0.424373	-39.837230
00900	13678512	0.072861	0.123279	-9.791745				-0.006998	0.003052	-0.003941				179.254585	-0.425233	-39.836087
00901	13678562	0.062352	0.116014	-9.826429				-0.003706	0.000399	0.000177				179.255563	-0.425072	-39.834076
00902	13678612	0.060191	0.113162	-9.824265				-0.004713	-0.002532	-0.003815				179.254204	-0.424333	-39.833000
00903	13678662	0.077427	0.115288	-9.826995				-0.003163	0.001381	-0.000785				179.255336	-0.424450	-39.830700
00904	13678712	0.081599	0.114589	-9.814068				-0.002459	0.000087	-0.004930				179.254622	-0.424456	-39.829290
00905	13678762	0.097853	0.120297	-9.829254				-0.001850	0.000596	0.001321				179.256134	-0.424357	-39.827589
00906	13678812	0.072267	0.121850	-9.828408				-0.002622	-0.000718	-0.002527				179.255377	-0.424142	-39.826869
00907	13678862	0.086695	0.113985	-9.822247				-0.005428	0.000977	-0.003251				179.255854	-0.424134	-39.823880
00908	13678912	0.086356	0.126070	-9.807384				-0.006530	-0.002658	-0.001792				179.253980	-0.423366	-39.823378
00909	13678962	0.067901	0.109865	-9.822149				-0.004790	0.000222	-0.000528				179.254646	-0.423152	-39.821150
00910	13679012	0.069014	0.128796	-9.806820				-0.002429	0.001519	-0.000555				179.253949	-0.423585	-39.820985
00911	13679062	0.045007	0.125309	-9.822762				-0.005966	-0.000897	0.002200				179.254284	-0.423061	-39.819568
00912	13679112	0.071776	0.107423	-9.818576				-0.002928	0.002353	0.000981				179.253447	-0.423739	-39.819837
00913	13679162	0.077935	0.109577	-9.807339				-0.005817	0.004667	0.001422				179.253823	-0.424806	-39.818171
00914	13679212	0.064067	0.107404	-9.820451				-0.004175	-0.003104	-0.000808				179.252626	-0.423914	-39.817953
00915	13679262	0.066314	0.123969	-9.813515				-0.003994	0.003101	-0.004812				179.253511	-0.424509	-39.814484
00916	13679312	0.084706	0.119754	-9.819600				-0.004064	0.003229	-0.005583				179.252335	-0.425413	-39.812865
00917	13679362	0.081359	0.122767	-9.819824				-0.001959	0.001851	0.000112				179.253814	-0.425668	-39.810850
00918	13679412	0.067966	0.126747	-9.821675				-0.005558	0.001242	-0.000039				179.252221	-0.426024	-39.810837
00919	13679462	0.071459	0.129792	-9.817621				-0.004081	0.001139	0.000533				179.253093	-0.426076	-39.808928
00920	13679512	0.082439	0.108045	-9.829410				-0.004848	-0.001208	-0.001530				179.251701	-0.425725	-39.808498
00921	13679562	0.079538	0.116334	-9.838263				0.000627	-0.001408	-0.005912				179.253908	-0.425024	-39.804727
00922	13679612	0.082248	0.123411	-9.829891				-0.000876	-0.002140	-0.001094				179.253655	-0.424407	-39.804417
00923	13679662	0.084170	0.117848	-9.814799				-0.006171	-0.001878	-0.002621				179.253922	-0.423584	-39.801639
00924	13679712	0.082145	0.116361	-9.809044				-0.009497	-0.004069	-0.001886				179.251197	-0.422411	-39.801118
00925	13679762	0.077815	0.107057	-9.799672				-0.005288	0.000627	-0.001939				179.251718	-0.422308	-39.798501
00926	13679812	0.068110	0.130425	-9.829826				-0.004993	-0.001563	-0.000343				179.250287	-0.421859	-39.798415
00927	13679862	0.072188	0.119731	-9.829128				-0.004349	0.004192	-0.005133				179.251070	-0.422765	-39.794830
00928	13679912	0.086401	0.101517	-9.824638				-0.001033	0.001734	-0.003497				179.250767	-0.423248	-39.793818
00929	13679962	0.073890	0.125285	-9.831293				-0.004708	-0.000297	0.000705				179.251460	-0.422891	-39.791979
00930	13680012	0.057887	0.134484	-9.826905				-0.003113	0.001960	-0.001466				179.250565	-0.423447	-39.791549
00931	13680062	0.103515	0.100674	-9.832391				-0.001704	-0.000443	-0.003123				179.252110	-0.423033	-39.788604
00932	13680112	0.075713	0.120627	-9.828658				-0.006753	0.002511	-0.000846				179.250174	-0.423749	-39.788350
00933	13680162	0.088952	0.129279	-9.831611				-0.005418	0.002721	-0.003800				179.250654	-0.424239	-39.785197
00934	13680212	0.080652	0.111550	-9.816698				-0.002673	-0.002269	-0.003641				179.249880	-0.423575	-39.784163
00935	13680262	0.077940	0.118912	-9.815248				-0.003502	-0.002052	0.000178				179.250919	-0.422712	-39.782172
00936	13680312	0.082503	0.114739	-9.803055				-0.003732	0.001172	-0.001859				179.249846	-0.423041	-39.781637
00937	13680362	0.070962	0.117592	-9.828630				-0.005265	-0.000282	-0.004843				179.250367	-0.422667	-39.778207
00938	13680412	0.094008	0.099367	-9.821799				-0.005721	0.001237	-0.001338				179.248726	-0.423016	-39.777819
00939	13680462	0.068125	0.123931	-9.824072				-0.007032	0.005481	-0.000478				179.248750	-0.424310	-39.775622
00940	13680512	0.071619	0.099680	-9.834145				-0.003905	-0.001480	-0.000362				179.247631	-0.423884	-39.775522
00941	13680562	0.092671	0.109647	-9.825149				-0.002558	0.000420	-0.001642				179.248936	-0.423723	-39.773006
00942	13680612	0.079991	0.099126	-9.801110				-0.005919	-0.001714	-0.003149				179.247233	-0.423220	-39.772111
00943	13680662	0.055641	0.124117	-9.834550				-0.002240	-0.000254	-0.000355				179.248632	-0.422871	-39.769974
00944	13680712	0.082029	0.117494	-9.813832				-0.003590	-0.001183	0.000054				179.247604	-0.422532	-39.770001
00945	13680762	0.076600	0.121480	-9.819804				-0.001664	0.003828	-0.001431				179.249165	-0.423348	-39.767530
00946	13680812	0.083608	0.114107	-9.824623				-0.003204	0.000794	-0.001252				179.248244	-0.423571	-39.767164
00947	13680862	0.094457	0.108936	-9.801911				-0.000528	-0.000805	-0.000755				179.250133	-0.423062	-39.764935
00948	13680912	0.067202	0.129256	-9.830057				-0.007076	0.000632	-0.000565				179.248104	-0.423241	-39.764770
00949	13680962	0.072160	0.112141	-9.828886				-0.003330	-0.000136	0.001667				179.249195	-0.422933	-39.763198
00950	13681012	0.067423	0.112099	-9.823348				-0.007050	0.000659	-0.003809				179.247167	-0.423107	-39.762103
00951	13681062	0.083591	0.110187	-9.825580				-0.006489	-0.001817	-0.001097				179.247348	-0.422307	-39.759762
00952	13681112	0.064141	0.128568	-9.824533				-0.003300	0.000694	-0.002468				179.246397	-0.422497	-39.759056
00953	13681162	0.080497	0.115145	-9.832033				-0.000773	-0.002392	-0.001723				179.248213	-0.421530	-39.756526
00954	13681212	0.066689	0.125653	-9.802735				-0.002212	0.005084	0.000408				179.247580	-0.422988	-39.756611
00955	13681262	0.073500	0.126761	-9.804927				-0.002581	-0.000679	-0.000936				179.248881	-0.422514	-39.754339
00956	13681312	0.089318	0.129514	-9.818421				-0.002317	0.000971	-0.001445				179.248214	-0.422787	-39.753921
00957	13681362	0.088210	0.109931	-9.830883				-0.000331	0.000910	-0.001927				179.250156	-0.422765	-39.751330
00958	13681412	0.079275	0.117928	-9.826521				-0.005444	0.000794	0.001322				179.248599	-0.422998	-39.751710
00959	13681462	0.066421	0.130164	-9.833649				-0.002201	-0.002843	-0.002104				179.250006	-0.421900	-39.749078
00960	13681512	0.066316	0.113104	-9.820462				-0.003950	0.004278	-0.000847				179.248873	-0.423122	-39.748817
00961	13681562	0.079167	0.105009	-9.822927				-0.002395	-0.000547	-0.000489				179.250227	-0.422688	-39.746658
00962	13681612	0.075487	0.130813	-9.817394				-0.006034	-0.001034	-0.002057				179.248494	-0.422384	-39.746064
00963	13681662	0.072275	0.119971	-9.811152				-0.004637	0.001379	-0.002817				179.249201	-0.422494	-39.743223
00964	13681712	0.081832	0.110360	-9.806399				-0.007228	0.000173	-0.002171				179.247126	-0.422535	-39.742598
00965	13681762	0.069227	0.124138	-9.828154				-0.002208	0.002624	-0.000861				179.248533	-0.423008	-39.740333
00966	13681812	0.064955	0.111319	-9.815898				-0.002278	-0.001194	-0.001328				179.247878	-0.422661	-39.739959
00967	13681862	0.073026	0.137661	-9.815951				-0.006995	0.001954	-0.003476				179.247909	-0.422933	-39.736917
00968	13681912	0.097334	0.122642	-9.823732				-0.005674	0.001720	-0.001590				179.246280	-0.423419	-39.736451
00969	13681962	0.083658	0.111088	-9.831093				-0.001952	-0.000511	-0.002482				179.247757	-0.422988	-39.733733
00970	13682012	0.071282	0.116728	-9.801552				-0.002516	0.002298	-0.000667				179.247035	-0.423644	-39.733537
00971	13682062	0.072040	0.127737	-9.838709				-0.006159	0.001133	0.000366				179.247313	-0.423695	-39.731621
00972	13682112	0.073188	0.109571	-9.831761				-0.003660	-0.000089	-0.002345				179.246260	-0.423661	-39.730943
00973	13682162	0.076644	0.117246	-9.836570				-0.001578	-0.002214	-0.001267				179.247847	-0.422747	-39.728568
00974	13682212	0.068060	0.132442	-9.814008				-0.002931	0.002288	-0.000378				179.247007	-0.423401	-39.728453
00975	13682262	0.067698	0.109472	-9.828382				-0.002859	-0.000138	-0.000966				179.248227	-0.423083	-39.726161
00976	13682312	0.082749	0.129960	-9.835647				-0.003920	0.000843	-0.002978				179.247098	-0.423313	-39.725304
00977	13682362	0.069317	0.134435	-9.825521				-0.007668	0.001206	0.000212				179.246944	-0.423384	-39.723338
00978	13682412	0.082842	0.112842	-9.818394				-0.004125	0.000291	-0.002883				179.245756	-0.423456	-39.722514
00979	13682462	0.068149	0.133484	-9.805377				0.000034	-0.002511	-0.002203				179.247804	-0.422453	-39.719868
00980	13682512	0.075345	0.118859	-9.826504				-0.006425	0.005425	-0.002371				179.245958	-0.423998	-39.719165
00981	13682562	0.076881	0.111936	-9.812127				-0.000872	0.000833	-0.003089				179.247744	-0.423950	-39.716271
00982	13682612	0.068128	0.111110	-9.822391				-0.005725	0.001399	-0.001241				179.246101	-0.424346	-39.715907
00983	13682662	0.085287	0.108339	-9.815527				-0.005210	0.001474	0.000201				179.246652	-0.424494	-39.713955
00984	13682712	0.086014	0.117437	-9.838777				-0.002323	0.000495	0.002497				179.245991	-0.424645	-39.714658
00985	13682762	0.072579	0.118647	-9.823855				-0.000891	0.000986	-0.006448				179.247765	-0.424628	-39.710809
00986	13682812	0.073934	0.123495	-9.822419				-0.003760	0.001370	0.000940				179.246690	-0.425024	-39.711067
00987	13682862	0.070958	0.116463	-9.823125				-0.000296	0.002748	-0.004197				179.248639	-0.425520	-39.707863
00988	13682912	0.078530	0.111856	-9.816209				-0.003593	0.000658	-0.003749				179.247601	-0.425694	-39.706791
00989	13682962	0.084457	0.121791	-9.825835				-0.004724	0.001056	-0.002369				179.248286	-0.425712	-39.704094
00990	13683012	0.090216	0.102455	-9.844067				-0.005452	-0.001483	-0.004627				179.246714	-0.425270	-39.702781
00991	13683062	0.078195	0.116366	-9.805431				-0.003537	0.000180	0.001053				179.247746	-0.425051	-39.701043
00992	13683112	0.093864	0.111671	-9.827312				-0.005504	0.000591	-0.000829				179.246168	-0.425217	-39.700804
00993	13683162	0.086156	0.116282	-9.813617				-0.001479	0.002923	-0.002526				179.247781	-0.425769	-39.698050
00994	13683212	0.091421	0.115118	-9.826103				0.000147	0.000181	-0.000334				179.247823	-0.425820	-39.697953
00995	13683262	0.077736	0.120763	-9.821003				-0.008756	-0.000952	-0.000639				179.247356	-0.425269	-39.695729
00996	13683312	0.074099	0.124748	-9.809965				-0.004413	0.001387	-0.002367				179.246087	-0.425658	-39.695048
00997	13683362	0.074580	0.118996	-9.809248				-0.002198	-0.000805	-0.002288				179.247495	-0.425143	-39.692385
00998	13683412	0.078907	0.119945	-9.809507				-0.001961	0.000878	-0.002442				179.246928	-0.425386	-39.691677
00999	13683462	0.065120	0.121893	-9.820940				-0.002179	0.002786	-0.000952				179.248345	-0.425905	-39.689381
01000	13683512	0.077507	0.135456	-9.839218				-0.004552	0.001971	0.001068				179.247043	-0.426474	-39.689674
01001	13683562	0.060932	0.117140	-9.808212				-0.003288	0.002738	0.001327				179.248147	-0.426988	-39.688040
01002	13683612	0.076072	0.117291	-9.837292				-0.003345	0.002183	0.000074				179.247189	-0.427613	-39.688056
01003	13683662	0.068538	0.133161	-9.812567				-0.004292	0.002744	-0.002614				179.247997	-0.428114	-39.685259
01004	13683712	0.072946	0.124330	-9.817631				-0.003711	0.002432	-0.002682				179.246928	-0.428801	-39.684481
01005	13683762	0.088317	0.130117	-9.812912				-0.002957	-0.000042	-0.002446				179.248119	-0.428504	-39.681762
01006	13683812	0.079389	0.104827	-9.824122				-0.002245	0.000354	-0.004880				179.247465	-0.428587	-39.680367
01007	13683862	0.086530	0.104896	-9.826556				-0.000208	0.000109	-0.000746				179.249447	-0.428340	-39.678155
01008	13683912	0.075579	0.098028	-9.817867				-0.001785	-0.001574	-0.001135				179.248933	-0.427885	-39.677839
01009	13683962	0.071598	0.119703	-9.822413				-0.007283	0.001045	-0.001910				179.248886	-0.427902	-39.675287
01010	13684012	0.074591	0.120363	-9.817631				-0.003837	-0.000706	-0.002249				179.247782	-0.427691	-39.674641
01011	13684062	0.059119	0.128257	-9.822825				-0.005112	0.002507	-0.000338				179.248360	-0.428133	-39.672504
01012	13684112	0.081697	0.119600	-9.838278				-0.005573	-0.000340	-0.000288				179.246763	-0.428034	-39.672422
01013	13684162	0.068830	0.130903	-9.825515				-0.007761	0.000776	-0.002520				179.246577	-0.427972	-39.669705
01014	13684212	0.070752	0.104924	-9.807785				-0.003972	0.001688	-0.001981				179.245435	-0.428448	-39.669128
01015	13684262	0.080449	0.134148	-9.828691				-0.006560	-0.002592	-0.000170				179.245599	-0.427429	-39.667075
01016	13684312	0.073947	0.119263	-9.826975				-0.002604	0.000193	0.000574				179.244855	-0.427486	-39.667244
01017	13684362	0.092287	0.112682	-9.810048				-0.007807	-0.000578	-0.000224				179.244661	-0.427045	-39.665176
01018	13684412	0.073214	0.113820	-9.815944				-0.001092	-0.002270	-0.000565				179.244347	-0.426392	-39.665025
01019	13684462	0.078334	0.113103	-9.834661				-0.005633	-0.003508	0.001651				179.244782	-0.425118	-39.663543
01020	13684512	0.084092	0.120099	-9.838048				-0.004364	-0.000029	0.001188				179.243534	-0.425114	-39.663881
01021	13684562	0.077527	0.122603	-9.823880				-0.004879	0.000088	0.000387				179.244181	-0.424865	-39.661982
01022	13684612	0.081581	0.119302	-9.808806				-0.003707	0.002437	-0.001786				179.243115	-0.425556	-39.661453
01023	13684662	0.062931	0.134288	-9.822375				-0.008705	0.004344	-0.004678				179.242655	-0.426508	-39.658113
01024	13684712	0.070454	0.122304	-9.831034				-0.001518	0.002885	-0.005315				179.242208	-0.427314	-39.656573
01025	13684762	0.068019	0.125055	-9.824557				-0.002441	0.003110	-0.000147				179.243553	-0.427929	-39.654514
01026	13684812	0.069658	0.132352	-9.804674				-0.002927	0.000384	0.002115				179.242719	-0.428047	-39.655118
01027	13684862	0.073280	0.115393	-9.826015				-0.002185	-0.001261	-0.002512				179.244131	-0.427401	-39.652422
01028	13684912	0.091618	0.103992	-9.824188				-0.002944	0.003675	-0.001556				179.243284	-0.428448	-39.651953
01029	13684962	0.062164	0.141680	-9.814464				-0.003192	-0.001859	-0.002641				179.244408	-0.427630	-39.649202
01030	13685012	0.079059	0.115692	-9.823889				-0.002922	0.001896	-0.002307				179.243566	-0.428165	-39.648526
01031	13685062	0.062992	0.105599	-9.855438				-0.004967	0.001733	-0.002846				179.244181	-0.428375	-39.645728
01032	13685112	0.069412	0.131208	-9.806110				-0.001953	-0.000378	-0.000905				179.243620	-0.428263	-39.645472
01033	13685162	0.086386	0.109650	-9.839741				-0.005639	0.001785	-0.001658				179.244045	-0.428493	-39.642998
01034	13685212	0.069313	0.118996	-9.826711				-0.004259	0.001684	-0.000890				179.242823	-0.428972	-39.642731
01035	13685262	0.082424	0.130919	-9.822467				-0.003771	0.000363	-0.001762				179.243782	-0.428794	-39.640234
01036	13685312	0.096357	0.121112	-9.827088				-0.000053	-0.001336	0.003381				179.243775	-0.428424	-39.641208
01037	13685362	0.070141	0.113739	-9.822877				-0.003940	-0.003320	0.001069				179.244692	-0.427202	-39.639530
01038	13685412	0.091377	0.119602	-9.821074				-0.003140	0.002998	0.000270				179.243793	-0.428062	-39.639594
01039	13685462	0.068421	0.134804	-9.837497				-0.004881	0.001121	-0.000086				179.244439	-0.428107	-39.637578
01040	13685512	0.060283	0.130885	-9.825470				-0.004314	0.000323	-0.001439				179.243200	-0.428194	-39.637157
01041	13685562	0.059470	0.095950	-9.819709				-0.002937	0.000148	-0.003498				179.244396	-0.427948	-39.634165
01042	13685612	0.073150	0.114287	-9.821455				-0.005352	0.002857	-0.001489				179.242859	-0.428761	-39.633729
01043	13685662	0.094627	0.126263	-9.823487				-0.001537	0.000759	-0.000263				179.244462	-0.428702	-39.631663
01044	13685712	0.083138	0.141041	-9.814568				-0.005662	-0.001805	-0.003343				179.242833	-0.428172	-39.630716
01045	13685762	0.081175	0.111038	-9.818617				-0.006371	-0.000258	0.000745				179.243054	-0.427826	-39.628936
01046	13685812	0.062712	0.140987	-9.817577				-0.003184	0.000347	0.001603				179.242145	-0.427931	-39.629393
01047	13685862	0.085052	0.115013	-9.827028				-0.006755	0.000376	-0.002495				179.242249	-0.427754	-39.626704
01048	13685912	0.096819	0.111395	-9.806477				-0.003268	-0.000667	-0.003603				179.241305	-0.427549	-39.625675
01049	13685962	0.078275	0.116692	-9.823159				-0.005383	0.000755	-0.001406				179.241804	-0.427485	-39.623274
01050	13686012	0.069089	0.125658	-9.826950				-0.004026	-0.001004	-0.003824				179.240643	-0.427183	-39.622179
01051	13686062	0.055374	0.123632	-9.833346				-0.003622	-0.000950	0.002594				179.241655	-0.426645	-39.620936
01052	13686112	0.077497	0.122808	-9.820521				-0.005467	-0.000664	-0.001124				179.240087	-0.426451	-39.620621
01053	13686162	0.067460	0.124967	-9.833893				-0.001667	-0.001641	-0.004155				179.241645	-0.425690	-39.617450
01054	13686212	0.060345	0.118946	-9.848718				-0.004219	0.000060	-0.004490				179.240427	-0.425690	-39.616157
01055	13686262	0.085455	0.124189	-9.826078				-0.005448	0.002788	-0.002901				179.240904	-0.426202	-39.613339
01056	13686312	0.088495	0.110509	-9.833285				-0.004926	0.002810	0.002582				179.239499	-0.427017	-39.614062
01057	13686362	0.081876	0.112245	-9.840432				-0.004883	0.002056	-0.002524				179.240138	-0.427321	-39.611353
01058	13686412	0.078308	0.116331	-9.818134				-0.004680	0.002201	0.001584				179.238801	-0.427957	-39.611797
01059	13686462	0.064329	0.119840	-9.812549				-0.002105	0.007062	0.002919				179.240249	-0.429716	-39.610636
01060	13686512	0.060738	0.124505	-9.856628				-0.002321	-0.000805	0.000601				179.239585	-0.429487	-39.610809
01061	13686562	0.078719	0.114203	-9.848804				-0.003683	-0.000443	-0.001671				179.240572	-0.429078	-39.608346
01062	13686612	0.069871	0.125641	-9.832474				-0.002964	-0.000814	-0.000650				179.239721	-0.428842	-39.608166
01063	13686662	0.075804	0.107005	-9.828417				-0.004780	-0.001302	-0.002185				179.240392	-0.428186	-39.605578
01064	13686712	0.079410	0.125824	-9.819339				-0.003871	0.001555	-0.003012				179.239277	-0.428620	-39.604704
01065	13686762	0.075960	0.128271	-9.819316				-0.006522	0.000286	-0.000856				179.239451	-0.428423	-39.602481
01066	13686812	0.053903	0.132976	-9.822329				-0.006697	0.003035	0.000888				179.237535	-0.429296	-39.602731
01067	13686862	0.064789	0.111287	-9.822370				-0.005163	-0.000308	-0.001376				179.238098	-0.428927	-39.600350
01068	13686912	0.091604	0.105149	-9.824420				-0.001477	0.001696	-0.000773				179.237673	-0.429409	-39.600119
01069	13686962	0.080334	0.116213	-9.822447				-0.003500	0.003120	-0.000374				179.238715	-0.430026	-39.598038
01070	13687012	0.069000	0.124306	-9.824557				-0.002844	0.003915	0.001909				179.237904	-0.431155	-39.598567
01071	13687062	0.065775	0.106960	-9.807038				-0.002445	0.003301	-0.000276				179.239249	-0.431824	-39.596487
01072	13687112	0.078894	0.117994	-9.805673				-0.002245	0.000749	-0.001765				179.238602	-0.432031	-39.595980
01073	13687162	0.075170	0.116463	-9.827938				-0.003656	-0.003348	-0.001624				179.239596	-0.430791	-39.593560
01074	13687212	0.082234	0.124804	-9.811440				-0.004404	0.002228	-0.000215				179.238334	-0.431428	-39.593487
01075	13687262	0.063456	0.124246	-9.815901				-0.006041	0.001392	-0.001366				179.238646	-0.431546	-39.591136
01076	13687312	0.066059	0.137564	-9.818316				-0.003831	-0.001576	-0.000107				179.237548	-0.431094	-39.591114
01077	13687362	0.058694	0.111879	-9.806294				-0.004113	0.000367	0.001769				179.238420	-0.430930	-39.589685
01078	13687412	0.072754	0.096192	-9.806822				-0.004146	-0.000066	-0.003468				179.237224	-0.430898	-39.588690
01079	13687462	0.073953	0.111580	-9.808038				-0.002377	-0.000030	-0.001353				179.238586	-0.430608	-39.586315
01080	13687512	0.078098	0.127580	-9.824122				-0.003105	-0.000969	0.004225				179.237706	-0.430347	-39.587525
01081	13687562	0.060709	0.131041	-9.819003				-0.002926	-0.000075	-0.002410				179.238908	-0.430040	-39.584873
01082	13687612	0.072434	0.126580	-9.828643				0.000054	-0.002694	0.003952				179.238932	-0.429283	-39.586014
01083	13687662	0.073787	0.131143	-9.823144				-0.004619	0.000963	-0.000633				179.239653	-0.429281	-39.583887
01084	13687712	0.083914	0.098635	-9.845475				-0.000609	0.000812	0.000504				179.239480	-0.429516	-39.584027
