// General information: 
//  MT Manager version: 2022.0.0 
//  XDA version: 2022.0.0 build 7085 rev 119802 built on 2022-11-08
// Device information: 
//  DeviceId: 037004D1
//  ProductCode: MTi-300-2A5G4
//  Firmware Version: 1.4.1
//  Hardware Version: 2.1.0
// Device settings: 
//  Filter Profile: general(39.16)
//  Option Flags: Orientation Smoother Disabled, Position/Velocity Smoother Disabled, Continuous Zero Rotation Update Disabled, AHS Disabled, ICC Disabled
// Coordinate system: ENU
PacketCounter	SampleTimeFine	Acc_X	Acc_Y	Acc_Z	AccHR_X	AccHR_Y	AccHR_Z	Gyr_X	Gyr_Y	Gyr_Z	GyrHR_X	GyrHR_Y	GyrHR_Z	Roll	Pitch	Yaw
00001	2424974	9.805840	0.250649	0.173175				-0.004209	0.000758	-0.000998				52.615990	-88.146850	173.883917
00002	2425024	9.811103	0.267051	0.174089				-0.005816	-0.000342	-0.002569				52.630251	-88.146411	173.867896
00003	2425074	9.803453	0.257910	0.160598				-0.003924	0.004029	-0.001139				52.600418	-88.145933	173.898915
00004	2425124	9.819536	0.236939	0.179304				-0.008488	0.000263	-0.000665				52.599692	-88.145849	173.897108
00005	2425174	9.834862	0.241431	0.158425				-0.003871	0.001382	0.000576				52.579044	-88.146677	173.918564
00006	2425224	9.819150	0.250031	0.178271				-0.009289	0.004452	-0.001829				52.554766	-88.145648	173.940044
00007	2425274	9.833554	0.243604	0.171695				-0.003708	0.004420	0.001203				52.509690	-88.145648	173.986360
00008	2425324	9.806072	0.243306	0.188341				0.000584	0.002331	-0.000652				52.497193	-88.144788	173.999309
00009	2425374	9.825068	0.246763	0.189607				-0.006670	-0.000188	0.002537				52.476072	-88.146501	174.020270
00010	2425424	9.825593	0.240165	0.196382				-0.002847	0.003168	-0.003171				52.470007	-88.145422	174.025344
00011	2425474	9.840620	0.253499	0.203978				-0.002752	0.005339	-0.002295				52.437035	-88.144985	174.059353
00012	2425524	9.829903	0.250354	0.210647				-0.001583	-0.000167	-0.001299				52.444850	-88.144802	174.051010
00013	2425574	9.802081	0.239395	0.225031				-0.003758	0.001933	0.001254				52.417217	-88.144873	174.080203
00014	2425624	9.810696	0.240774	0.216987				-0.005010	0.000740	-0.002147				52.422291	-88.144193	174.073750
00015	2425674	9.805134	0.273249	0.204320				-0.001518	-0.000397	-0.003576				52.436954	-88.144375	174.060548
00016	2425724	9.829779	0.260574	0.210244				-0.007966	0.002081	-0.001077				52.425817	-88.144010	174.069186
00017	2425774	9.822647	0.244731	0.201041				-0.002588	-0.003028	-0.000891				52.444271	-88.144939	174.052150
00018	2425824	9.800804	0.248161	0.184004				-0.006323	0.000291	-0.005869				52.472190	-88.143435	174.022515
00019	2425874	9.814997	0.253571	0.227279				-0.003862	-0.000275	-0.003438				52.484843	-88.143276	174.010944
00020	2425924	9.827673	0.262156	0.199608				-0.003289	-0.001070	-0.000753				52.495542	-88.143290	173.999296
00021	2425974	9.831613	0.255674	0.191710				-0.004858	-0.000126	-0.000361				52.490074	-88.143979	174.005422
00022	2426024	9.818546	0.252265	0.193726				-0.006112	-0.000158	-0.004721				52.514790	-88.142911	173.978959
00023	2426074	9.796177	0.263515	0.168334				-0.005165	-0.002724	-0.003545				52.544949	-88.143605	173.949146
00024	2426124	9.798337	0.246443	0.161418				-0.002890	-0.002546	-0.000247				52.563170	-88.143999	173.930071
00025	2426174	9.812345	0.249458	0.161822				-0.003284	-0.002100	0.001007				52.564967	-88.145391	173.929336
00026	2426224	9.797525	0.244913	0.181425				-0.001765	0.001482	0.000638				52.550555	-88.145220	173.943297
00027	2426274	9.807894	0.256843	0.174190				-0.005750	0.002022	-0.001144				52.534119	-88.145452	173.960079
00028	2426324	9.820621	0.249305	0.173347				-0.003020	0.001979	0.001831				52.509510	-88.145574	173.983794
00029	2426374	9.815372	0.241948	0.189212				-0.000551	0.000759	0.001206				52.490863	-88.146431	174.004384
00030	2426424	9.835327	0.234074	0.213336				-0.005283	0.001027	-0.003240				52.499665	-88.145456	173.994121
00031	2426474	9.837503	0.224474	0.187925				-0.003489	0.004489	0.001008				52.455237	-88.145384	174.039890
00032	2426524	9.801267	0.240664	0.201032				-0.002192	0.002930	-0.000540				52.437014	-88.144806	174.057443
00033	2426574	9.807462	0.257255	0.203888				-0.003120	0.001039	0.001539				52.414020	-88.145571	174.081789
00034	2426624	9.815029	0.236675	0.217813				-0.003029	0.003714	-0.004929				52.413648	-88.143869	174.081229
00035	2426674	9.843852	0.231347	0.227184				-0.004961	0.002164	-0.002304				52.402605	-88.143915	174.092718
00036	2426724	9.818989	0.245546	0.212617				-0.008595	0.000480	-0.003263				52.414189	-88.143210	174.078551
00037	2426774	9.815745	0.259069	0.210956				-0.002943	-0.001135	-0.004282				52.437404	-88.143262	174.056491
00038	2426824	9.807702	0.258314	0.203269				-0.002205	-0.004352	-0.004847				52.493298	-88.143072	173.999794
00039	2426874	9.834411	0.251694	0.210084				-0.001276	-0.002136	-0.003012				52.517521	-88.143483	173.977270
00040	2426924	9.839058	0.240113	0.213923				-0.005314	-0.002147	-0.004829				52.556829	-88.142775	173.936400
00041	2426974	9.813252	0.267680	0.172133				-0.001052	-0.000098	-0.004185				52.573473	-88.142338	173.921715
00042	2427024	9.798180	0.271190	0.176227				-0.006396	-0.002263	-0.003669				52.607111	-88.142060	173.886079
00043	2427074	9.805768	0.256888	0.171535				-0.005852	0.000952	-0.002850				52.607001	-88.142245	173.886316
00044	2427124	9.836059	0.254720	0.167943				-0.004216	-0.000478	-0.004467				52.633096	-88.141325	173.858985
00045	2427174	9.806325	0.257264	0.157934				-0.005391	-0.002462	0.000468				52.640222	-88.142255	173.852662
00046	2427224	9.797319	0.256335	0.190432				-0.002769	-0.000890	0.003387				52.627532	-88.143015	173.864707
00047	2427274	9.811638	0.253919	0.153183				-0.000644	0.000267	-0.003155				52.635809	-88.142929	173.858354
00048	2427324	9.805626	0.254686	0.159721				0.001451	-0.000949	-0.001210				52.649381	-88.142747	173.845253
00049	2427374	9.837088	0.246070	0.173111				-0.001728	0.003488	-0.000090				52.618103	-88.143302	173.877740
00050	2427424	9.829730	0.247558	0.166211				-0.004335	0.003690	-0.002136				52.602415	-88.142307	173.892081
00051	2427474	9.810946	0.238025	0.181559				-0.002085	0.002345	-0.002310				52.591235	-88.141771	173.905037
00052	2427524	9.797097	0.252475	0.196492				-0.002012	0.001352	0.001761				52.571967	-88.141722	173.923938
00053	2427574	9.809816	0.263130	0.198398				-0.001326	0.002942	-0.000449				52.546255	-88.142320	173.950914
00054	2427624	9.811110	0.258707	0.190474				-0.004474	0.004245	0.000562				52.512050	-88.141771	173.983789
00055	2427674	9.834029	0.239567	0.218931				-0.004828	-0.003874	0.001865				52.521040	-88.143445	173.975603
00056	2427724	9.814744	0.242873	0.211903				-0.005428	-0.001435	-0.002769				52.544594	-88.143056	173.950486
00057	2427774	9.804856	0.235630	0.208360				-0.003511	-0.001236	-0.002001				52.556318	-88.143730	173.939655
00058	2427824	9.837210	0.256909	0.209134				-0.002681	-0.003063	-0.000994				52.582414	-88.144050	173.912768
00059	2427874	9.818104	0.264669	0.202312				-0.002725	0.000133	-0.002734				52.588793	-88.144221	173.907620
00060	2427924	9.805426	0.246187	0.209775				-0.003187	-0.002658	-0.006022				52.638660	-88.143584	173.856563
00061	2427974	9.794691	0.238120	0.189700				-0.002985	-0.001744	-0.002580				52.657918	-88.143284	173.839202
00062	2428024	9.801319	0.256116	0.199957				-0.003006	-0.003101	-0.002108				52.690087	-88.143238	173.806249
00063	2428074	9.821079	0.255402	0.201797				-0.002930	-0.000256	-0.001905				52.694246	-88.144243	173.802713
00064	2428124	9.826374	0.242578	0.180714				-0.003450	-0.002334	-0.003614				52.728720	-88.144106	173.766976
00065	2428174	9.824904	0.251180	0.169665				-0.003004	-0.001229	-0.002455				52.743195	-88.144580	173.753607
00066	2428224	9.820659	0.239829	0.185528				-0.003760	0.000501	-0.002959				52.754507	-88.143769	173.741255
00067	2428274	9.800718	0.258392	0.176958				-0.006393	-0.002389	-0.003058				52.779337	-88.144239	173.716622
00068	2428324	9.831108	0.229245	0.174780				-0.005026	0.002496	0.001452				52.752735	-88.143904	173.742004
00069	2428374	9.811863	0.259352	0.182022				-0.001598	0.000321	-0.000330				52.744971	-88.144379	173.751499
00070	2428424	9.807854	0.236646	0.183404				-0.001316	-0.000088	0.004959				52.718784	-88.145472	173.777371
00071	2428474	9.809360	0.244868	0.192399				-0.004078	0.000796	0.001311				52.698108	-88.146779	173.798605
00072	2428524	9.813293	0.253402	0.194252				-0.001443	0.001977	0.003658				52.664201	-88.147051	173.832316
00073	2428574	9.836154	0.249669	0.201680				-0.004200	0.004539	-0.002002				52.635090	-88.146561	173.862289
00074	2428624	9.823211	0.221107	0.195891				-0.004764	0.001137	-0.000452				52.628010	-88.146513	173.867781
00075	2428674	9.794266	0.247862	0.202727				-0.005772	0.001604	-0.000437				52.610987	-88.146742	173.885345
00076	2428724	9.802510	0.250024	0.211743				-0.003099	0.000129	-0.000777				52.613521	-88.146362	173.882081
00077	2428774	9.814389	0.269516	0.216814				-0.002789	0.003593	-0.001853				52.590007	-88.146313	173.906639
00078	2428824	9.829172	0.246487	0.221434				-0.007220	0.000438	-0.003720				52.604874	-88.145427	173.889669
00079	2428874	9.826212	0.234472	0.222363				-0.002684	-0.002930	0.000101				52.617864	-88.146533	173.878073
00080	2428924	9.796657	0.258969	0.216818				-0.003785	-0.000824	-0.005305				52.651142	-88.145332	173.843811
00081	2428974	9.808320	0.248176	0.200968				-0.002240	0.001207	-0.002284				52.647498	-88.145561	173.848692
00082	2429024	9.802238	0.268262	0.179379				-0.001680	-0.001233	-0.000627				52.658926	-88.145877	173.836550
00083	2429074	9.821055	0.250180	0.176665				-0.004509	-0.000356	-0.004819				52.679537	-88.145328	173.816937
00084	2429124	9.795729	0.269545	0.190654				-0.001589	-0.002176	-0.002621				52.708610	-88.144962	173.787527
00085	2429174	9.806767	0.245316	0.187404				-0.004096	-0.004125	-0.002721				52.744233	-88.145844	173.752712
00086	2429224	9.810848	0.236677	0.160179				-0.003184	-0.000420	-0.000877				52.750950	-88.145676	173.745115
00087	2429274	9.833581	0.264018	0.165605				-0.004960	0.000701	-0.005935				52.769643	-88.145232	173.726814
00088	2429324	9.824531	0.271777	0.187989				-0.002351	0.002792	-0.002082				52.760503	-88.144174	173.735372
00089	2429374	9.791583	0.275125	0.157928				-0.002175	0.002477	0.000615				52.732029	-88.144942	173.765009
00090	2429424	9.793347	0.240407	0.172789				-0.005835	0.000835	0.004014				52.702758	-88.145859	173.792485
00091	2429474	9.797132	0.259279	0.177086				-0.002550	0.003049	-0.001340				52.681642	-88.145466	173.815208
00092	2429524	9.821894	0.256036	0.184614				-0.003624	0.001808	0.000741				52.663722	-88.145502	173.831932
00093	2429574	9.827305	0.238524	0.191566				-0.005285	0.001483	0.000098				52.644708	-88.145739	173.851741
00094	2429624	9.810664	0.233454	0.198162				-0.003479	0.004134	0.000110				52.614001	-88.144980	173.881515
00095	2429674	9.812776	0.235406	0.198450				-0.000524	0.003795	-0.001084				52.586673	-88.144853	173.910788
00096	2429724	9.818523	0.246706	0.209619				-0.005731	0.002217	-0.001785				52.579289	-88.143878	173.916707
00097	2429774	9.835774	0.237769	0.209709				-0.002432	-0.000092	-0.005210				52.600488	-88.143460	173.896838
00098	2429824	9.808458	0.256730	0.199569				-0.002263	0.001953	-0.002309				52.598475	-88.142578	173.898219
00099	2429874	9.806325	0.254007	0.203173				-0.003897	0.001705	-0.004318				52.601965	-88.142172	173.895577
00100	2429924	9.808854	0.260404	0.204577				-0.003187	-0.000013	-0.000604				52.604262	-88.142000	173.892398
00101	2429974	9.821603	0.252843	0.199195				-0.003138	0.001211	-0.002012				52.599280	-88.141740	173.898868
00102	2430024	9.813631	0.263230	0.195799				-0.001641	-0.002676	-0.003122				52.634265	-88.141594	173.863303
00103	2430074	9.804447	0.257791	0.191673				-0.003363	0.002212	-0.003445				52.629257	-88.141595	173.869021
00104	2430124	9.812520	0.263966	0.182242				-0.006194	-0.000718	-0.003293				52.650199	-88.140914	173.846344
00105	2430174	9.817169	0.258683	0.172328				-0.005876	-0.002815	-0.004908				52.687903	-88.140782	173.809227
00106	2430224	9.821721	0.265469	0.193222				-0.003291	-0.000052	-0.002339				52.699889	-88.140174	173.796376
00107	2430274	9.797792	0.272499	0.197895				-0.002675	-0.000198	-0.001634				52.702280	-88.141108	173.794769
00108	2430324	9.808047	0.250376	0.162350				-0.001861	-0.000862	-0.002473				52.720987	-88.140640	173.775561
00109	2430374	9.813111	0.249583	0.153752				-0.003563	0.001597	-0.000336				52.703922	-88.141202	173.793519
00110	2430424	9.804544	0.261185	0.168421				-0.003671	0.001720	-0.004216				52.713142	-88.140135	173.783067
00111	2430474	9.810692	0.263320	0.171875				-0.000688	-0.000162	-0.000001				52.707874	-88.140518	173.790533
00112	2430524	9.812219	0.242757	0.196655				-0.004281	0.002944	-0.002509				52.699374	-88.139356	173.797880
00113	2430574	9.787741	0.265204	0.182511				-0.002453	0.005274	0.000294				52.653628	-88.139216	173.845043
00114	2430624	9.817623	0.249027	0.197639				-0.004637	0.003229	-0.000616				52.632779	-88.138692	173.864407
00115	2430674	9.817577	0.251977	0.197859				-0.003797	0.003281	0.001820				52.592273	-88.139511	173.905705
00116	2430724	9.818211	0.257221	0.199995				-0.001751	0.001115	0.000167				52.583028	-88.139321	173.914482
00117	2430774	9.810311	0.235842	0.212010				-0.006609	0.000736	0.000275				52.568423	-88.139450	173.929778
00118	2430824	9.819175	0.246201	0.220730				-0.005943	-0.001786	-0.006411				52.613470	-88.138360	173.882950
00119	2430874	9.808937	0.255311	0.202101				-0.001813	-0.002386	-0.004406				52.646397	-88.138836	173.851278
00120	2430924	9.822441	0.241714	0.201801				-0.000888	-0.001174	-0.003310				52.672309	-88.138136	173.825240
00121	2430974	9.825984	0.260331	0.207290				-0.004554	-0.000426	-0.000123				52.668250	-88.138653	173.830313
00122	2431024	9.799505	0.249191	0.199621				-0.006185	0.001551	-0.000812				52.660144	-88.138214	173.836643
00123	2431074	9.800058	0.273129	0.175556				-0.004818	0.000407	-0.004509				52.672215	-88.138750	173.824438
00124	2431124	9.830796	0.257141	0.205602				-0.007729	-0.001582	-0.002689				52.695532	-88.138260	173.799034
00125	2431174	9.814495	0.254105	0.190826				-0.003707	-0.002222	-0.003119				52.720953	-88.137719	173.775471
00126	2431224	9.813521	0.260057	0.181840				-0.004671	-0.005078	0.000304				52.753391	-88.138741	173.741610
00127	2431274	9.810992	0.255440	0.177168				-0.004434	-0.002528	-0.003117				52.779761	-88.139727	173.715536
00128	2431324	9.798762	0.241487	0.179675				-0.005781	0.000647	-0.002033				52.784426	-88.139233	173.709147
00129	2431374	9.801444	0.262366	0.165717				-0.003660	-0.001538	0.000288				52.785893	-88.140249	173.708706
00130	2431424	9.819283	0.257848	0.178704				-0.003464	-0.004800	-0.000598				52.821723	-88.141078	173.671739
00131	2431474	9.815381	0.249412	0.171985				-0.001428	0.001724	-0.003262				52.820386	-88.140535	173.674967
00132	2431524	9.790062	0.245877	0.191970				-0.007713	0.002237	-0.000290				52.804109	-88.139978	173.689135
00133	2431574	9.802735	0.245717	0.184032				-0.003612	0.002111	0.000115				52.780751	-88.140696	173.713269
00134	2431624	9.823550	0.239970	0.181274				-0.008669	0.002287	0.001380				52.754828	-88.140751	173.736596
00135	2431674	9.819653	0.241668	0.189888				-0.004836	0.000681	0.004696				52.716673	-88.142498	173.775400
00136	2431724	9.818978	0.254421	0.196564				-0.003712	0.000434	0.001453				52.704772	-88.142718	173.786279
00137	2431774	9.799112	0.259817	0.201755				-0.004371	0.002009	0.001660				52.674016	-88.143292	173.818030
00138	2431824	9.817280	0.252647	0.206185				-0.005642	0.001463	-0.001395				52.669731	-88.142722	173.820703
00139	2431874	9.822481	0.248397	0.219755				-0.003394	-0.001661	0.000508				52.671109	-88.143754	173.820523
00140	2431924	9.827120	0.251011	0.197851				-0.001978	0.003181	-0.002034				52.659158	-88.142783	173.831874
00141	2431974	9.821304	0.252232	0.210969				-0.005235	0.000593	-0.002715				52.661062	-88.142842	173.830499
00142	2432024	9.815238	0.260736	0.211156				-0.002696	-0.002048	-0.005779				52.705674	-88.141716	173.785242
00143	2432074	9.811019	0.239389	0.204770				-0.006348	0.000021	-0.005084				52.724340	-88.141435	173.766685
00144	2432124	9.812993	0.261645	0.187482				-0.005673	-0.001705	-0.000605				52.737925	-88.141571	173.751484
00145	2432174	9.826877	0.264850	0.208714				-0.003842	-0.002034	-0.002698				52.758774	-88.142375	173.731324
00146	2432224	9.811917	0.247745	0.198112				-0.003044	0.000313	-0.002338				52.768254	-88.141650	173.721094
00147	2432274	9.788845	0.255151	0.177991				-0.005309	-0.002187	-0.003304				52.793340	-88.142210	173.696359
00148	2432324	9.828526	0.255655	0.190961				-0.005075	-0.003440	-0.001390				52.823353	-88.142724	173.664656
00149	2432374	9.825648	0.272084	0.160057				-0.001285	-0.001154	-0.006582				52.859845	-88.141782	173.630193
00150	2432424	9.795304	0.254317	0.174838				-0.003671	-0.003320	-0.002515				52.895494	-88.141723	173.593523
00151	2432474	9.814734	0.251941	0.156636				-0.006264	0.001906	-0.001100				52.879901	-88.141819	173.609489
00152	2432524	9.803277	0.264632	0.174750				-0.003558	0.005505	-0.003042				52.856347	-88.140269	173.631949
00153	2432574	9.813674	0.245711	0.186839				-0.006162	0.001980	0.002012				52.823205	-88.141124	173.665398
00154	2432624	9.804847	0.266507	0.186660				-0.003435	0.002834	0.000214				52.801313	-88.140369	173.686600
00155	2432674	9.824186	0.256395	0.197837				-0.001831	0.002827	0.000495				52.771547	-88.141294	173.717426
00156	2432724	9.823852	0.241939	0.165175				-0.001068	-0.001202	0.000700				52.776008	-88.141461	173.712840
00157	2432774	9.798551	0.242539	0.214458				-0.003991	0.002010	-0.000559				52.756911	-88.142009	173.732614
00158	2432824	9.828186	0.246432	0.188413				0.001729	0.001367	-0.001958				52.758510	-88.141278	173.731554
00159	2432874	9.822431	0.265721	0.193984				-0.003351	0.000922	-0.001334				52.751674	-88.141132	173.739871
00160	2432924	9.802571	0.246042	0.210043				-0.002623	-0.000816	-0.001542				52.764653	-88.141234	173.725845
00161	2432974	9.816532	0.236037	0.206720				-0.003061	0.001960	-0.001877				52.753476	-88.141449	173.738028
00162	2433024	9.817566	0.253353	0.196108				-0.005829	0.000260	-0.001428				52.758021	-88.140716	173.732147
00163	2433074	9.842884	0.239127	0.212480				-0.002777	-0.002240	-0.001420				52.773997	-88.141414	173.717543
00164	2433124	9.817136	0.249971	0.196844				-0.003457	0.000108	-0.002306				52.784781	-88.140622	173.705997
00165	2433174	9.808215	0.258198	0.196083				-0.004107	-0.003590	-0.001549				52.810381	-88.141984	173.680935
00166	2433224	9.816804	0.243668	0.184164				-0.005536	-0.000326	-0.006183				52.844192	-88.140532	173.645609
00167	2433274	9.824986	0.256421	0.185038				-0.002164	0.000678	-0.003429				52.850234	-88.140462	173.640929
00168	2433324	9.806832	0.263670	0.178669				-0.005534	-0.000092	-0.002972				52.865260	-88.139752	173.624355
00169	2433374	9.821192	0.258434	0.177180				-0.004007	0.001133	-0.003321				52.867141	-88.139596	173.623324
00170	2433424	9.830379	0.248305	0.174928				-0.005485	-0.001606	-0.001219				52.883227	-88.139554	173.605689
00171	2433474	9.785078	0.255950	0.169201				-0.007076	-0.002024	-0.003043				52.904835	-88.140397	173.583693
00172	2433524	9.811981	0.257185	0.167626				-0.005934	-0.000481	-0.001273				52.913458	-88.140076	173.573468
00173	2433574	9.815361	0.249079	0.176053				-0.003571	0.002793	-0.000685				52.890277	-88.139865	173.597993
00174	2433624	9.836361	0.239195	0.189938				-0.005306	-0.001315	-0.002723				52.912534	-88.139446	173.574226
00175	2433674	9.808073	0.259792	0.177166				-0.005029	-0.001527	0.001831				52.904609	-88.141598	173.582103
00176	2433724	9.799422	0.263475	0.183115				-0.002971	0.004254	-0.001351				52.880650	-88.140645	173.605139
00177	2433774	9.820104	0.257275	0.202402				-0.000390	0.003560	-0.002228				52.861219	-88.139873	173.626887
00178	2433824	9.815230	0.244994	0.205798				-0.006816	0.003290	0.000611				52.832992	-88.139394	173.653213
00179	2433874	9.795592	0.258809	0.194903				-0.005028	0.002377	-0.001772				52.817692	-88.139389	173.669107
00180	2433924	9.818203	0.255783	0.204792				-0.001733	0.001663	-0.000178				52.806484	-88.139039	173.679845
00181	2433974	9.815838	0.246992	0.219154				-0.004767	0.002256	-0.001676				52.791590	-88.139058	173.695385
00182	2434024	9.831427	0.244566	0.207049				-0.007179	-0.000797	-0.002558				52.808650	-88.138559	173.676304
00183	2434074	9.838092	0.248055	0.199119				-0.000954	0.000191	0.000576				52.797570	-88.139515	173.689120
00184	2434124	9.824516	0.241253	0.214033				-0.005247	-0.001955	-0.000676				52.813671	-88.139572	173.671628
00185	2434174	9.800215	0.254591	0.188520				-0.006692	-0.000817	-0.001016				52.816269	-88.140243	173.669107
00186	2434224	9.812374	0.266013	0.201688				0.000209	0.001622	-0.003910				52.825868	-88.138864	173.659741
00187	2434274	9.823344	0.252402	0.188141				-0.002313	-0.000944	-0.005391				52.854148	-88.138637	173.632795
00188	2434324	9.813237	0.270534	0.168817				-0.004456	0.000282	-0.003005				52.866925	-88.137937	173.618703
00189	2434374	9.816874	0.243181	0.175241				-0.001128	-0.000727	-0.003728				52.884512	-88.138135	173.602659
00190	2434424	9.816666	0.256886	0.180510				-0.006089	-0.000612	0.000329				52.885676	-88.138068	173.599984
00191	2434474	9.809696	0.263227	0.177441				-0.002917	0.000148	-0.003808				52.897192	-88.138244	173.589391
00192	2434524	9.826112	0.250147	0.169656				-0.004806	-0.000956	-0.003940				52.923172	-88.137736	173.561810
00193	2434574	9.818753	0.244982	0.175487				-0.001649	-0.001173	0.001278				52.917823	-88.138714	173.568970
00194	2434624	9.799505	0.240553	0.177726				-0.002640	-0.000358	-0.001923				52.929738	-88.138321	173.556306
00195	2434674	9.806736	0.252792	0.177416				-0.004652	-0.001790	-0.003846				52.955261	-88.138347	173.531665
00196	2434724	9.809114	0.254106	0.175694				-0.000815	-0.002233	0.001173				52.964780	-88.138901	173.521994
00197	2434774	9.820296	0.243860	0.197825				0.001138	0.001708	-0.002855				52.961470	-88.138980	173.527427
00198	2434824	9.806411	0.253533	0.190458				-0.003331	0.001143	-0.003516				52.971160	-88.138036	173.516721
00199	2434874	9.823822	0.226478	0.201617				-0.002829	0.001707	-0.000117				52.952472	-88.138390	173.536726
00200	2434924	9.824696	0.237274	0.193926				0.000570	0.001608	-0.000125				52.942128	-88.137820	173.547484
00201	2434974	9.796020	0.274605	0.210581				-0.001384	0.000767	-0.000121				52.930116	-88.138871	173.560735
00202	2435024	9.810773	0.261204	0.200147				-0.006378	-0.000457	0.000238				52.930226	-88.139011	173.558791
00203	2435074	9.809993	0.243310	0.209970				-0.002559	-0.002208	-0.004627				52.962702	-88.139281	173.527437
00204	2435124	9.801506	0.264518	0.191395				-0.007356	0.000947	-0.000937				52.959137	-88.138794	173.529012
00205	2435174	9.831541	0.241724	0.193134				-0.001013	-0.000469	-0.005519				52.985544	-88.137746	173.504908
00206	2435224	9.821157	0.247801	0.204349				-0.004208	-0.003687	-0.003061				53.026347	-88.137781	173.462784
00207	2435274	9.816778	0.259397	0.195873				-0.000123	-0.000632	0.001662				53.015448	-88.139229	173.475526
00208	2435324	9.812239	0.248791	0.181862				-0.001775	-0.004649	-0.003587				53.066690	-88.139490	173.423488
00209	2435374	9.818126	0.261624	0.166597				-0.002675	-0.002595	-0.003440				53.096070	-88.139456	173.395808
00210	2435424	9.828505	0.244423	0.178546				-0.002030	-0.000411	-0.000323				53.100004	-88.139499	173.391249
00211	2435474	9.801828	0.264333	0.177923				-0.004974	-0.000628	-0.001789				53.106333	-88.139974	173.385510
00212	2435524	9.815075	0.248002	0.186379				-0.007494	0.003105	-0.004521				53.106192	-88.138322	173.383575
00213	2435574	9.809187	0.247515	0.177533				-0.007819	0.004563	-0.000182				53.066268	-88.138407	173.423194
00214	2435624	9.800553	0.260570	0.199678				-0.002354	0.004046	0.000060				53.036780	-88.137638	173.452101
00215	2435674	9.812687	0.251522	0.180636				-0.001588	0.002892	-0.001715				53.018616	-88.137733	173.471657
00216	2435724	9.824853	0.249528	0.181722				-0.002534	0.001454	-0.000469				53.010219	-88.137165	173.479529
00217	2435774	9.814318	0.268527	0.189975				-0.004983	0.003027	-0.000775				52.985362	-88.137179	173.505088
00218	2435824	9.821570	0.238138	0.195934				-0.002325	0.002978	-0.001588				52.972194	-88.136255	173.517636
00219	2435874	9.807745	0.255129	0.201519				-0.003891	0.003281	0.003266				52.923573	-88.137609	173.566844
00220	2435924	9.807472	0.259771	0.199384				-0.003760	0.004891	-0.001571				52.896426	-88.136406	173.592930
00221	2435974	9.825078	0.254072	0.213294				-0.000022	-0.001093	-0.001170				52.903915	-88.137158	173.587437
00222	2436024	9.810521	0.262158	0.201470				-0.010359	0.001507	-0.001957				52.900833	-88.136411	173.587593
00223	2436074	9.820225	0.231784	0.195635				-0.005910	0.001716	-0.002354				52.892962	-88.136662	173.595503
00224	2436124	9.807973	0.265215	0.183223				-0.007344	-0.000469	0.000495				52.891312	-88.136923	173.594988
00225	2436174	9.818112	0.225862	0.202265				-0.004910	-0.003599	-0.000171				52.909573	-88.138021	173.577608
00226	2436224	9.830829	0.252688	0.208465				-0.003078	-0.002927	-0.003479				52.947721	-88.137619	173.538659
00227	2436274	9.818186	0.241693	0.197567				-0.002669	0.001378	-0.004642				52.955854	-88.137061	173.531811
00228	2436324	9.801200	0.260367	0.171933				-0.005641	-0.000803	-0.003101				52.976183	-88.136618	173.509736
00229	2436374	9.801477	0.245770	0.194528				-0.005678	0.000526	-0.000338				52.966290	-88.136809	173.520430
00230	2436424	9.805380	0.257174	0.196181				-0.002433	0.001360	-0.001111				52.961839	-88.136410	173.524099
00231	2436474	9.801713	0.256753	0.172703				-0.005325	-0.001534	-0.000029				52.964885	-88.137487	173.521524
00232	2436524	9.804019	0.259261	0.181062				-0.001962	0.000556	-0.000926				52.965455	-88.137201	173.520371
00233	2436574	9.816305	0.258321	0.158915				-0.004813	-0.001396	0.000290				52.965423	-88.138489	173.520890
00234	2436624	9.810546	0.245720	0.192010				0.000171	-0.001086	-0.001805				52.982642	-88.138238	173.503727
00235	2436674	9.819323	0.258665	0.170663				-0.006075	-0.001127	-0.000729				52.986571	-88.138786	173.500328
00236	2436724	9.790772	0.269741	0.183587				-0.004282	0.001971	-0.002704				52.985720	-88.137828	173.499954
00237	2436774	9.786812	0.246595	0.177258				-0.005441	0.004178	-0.003814				52.968646	-88.137171	173.517378
00238	2436824	9.826788	0.243928	0.187187				-0.007115	-0.000496	0.002132				52.958874	-88.137761	173.525102
00239	2436874	9.819159	0.245084	0.187515				-0.005597	0.002311	0.001564				52.926146	-88.138413	173.558339
00240	2436924	9.821259	0.245829	0.192693				-0.007213	-0.000539	-0.001237				52.934351	-88.138261	173.548028
00241	2436974	9.816112	0.237731	0.194712				-0.004493	0.000413	-0.003678				52.943442	-88.138204	173.539631
00242	2437024	9.818604	0.241235	0.207214				-0.005782	0.003047	0.001280				52.913708	-88.137956	173.567748
00243	2437074	9.801952	0.245748	0.196252				-0.006012	0.004075	-0.001828				52.886380	-88.137477	173.595472
00244	2437124	9.812946	0.255464	0.208104				-0.001692	-0.000089	-0.002854				52.901583	-88.136913	173.579707
00245	2437174	9.832168	0.237561	0.217141				-0.003889	-0.000418	-0.002819				52.911914	-88.137347	173.570096
00246	2437224	9.816603	0.251037	0.203506				-0.002865	0.000864	-0.000665				52.908594	-88.137061	173.572584
00247	2437274	9.809501	0.262983	0.210401				-0.007161	-0.004453	-0.003183				52.948407	-88.137567	173.532998
00248	2437324	9.818595	0.249641	0.191257				-0.003158	-0.000469	-0.004520				52.974586	-88.136707	173.505807
00249	2437374	9.830806	0.247284	0.185491				-0.003513	-0.000348	-0.003398				52.987395	-88.137148	173.493681
00250	2437424	9.796655	0.253674	0.189013				-0.007349	-0.000542	-0.003129				53.006025	-88.136362	173.473087
00251	2437474	9.796713	0.270821	0.182975				-0.004516	-0.001913	-0.001729				53.020799	-88.136754	173.459325
00252	2437524	9.805010	0.264669	0.201426				-0.003231	-0.000820	-0.001220				53.032153	-88.136520	173.447131
00253	2437574	9.826327	0.248043	0.177331				-0.000712	-0.001816	-0.003832				53.058983	-88.136448	173.422365
00254	2437624	9.811808	0.262213	0.184810				-0.002589	-0.004173	-0.002328				53.099868	-88.136501	173.380833
00255	2437674	9.800868	0.261368	0.185388				-0.003595	0.000497	-0.001623				53.097519	-88.137104	173.383926
00256	2437724	9.778629	0.270915	0.180789				-0.000722	0.002641	-0.005277				53.106613	-88.135390	173.374664
00257	2437774	9.818968	0.262926	0.181008				-0.003622	-0.000467	0.001606				53.094045	-88.136682	173.388190
00258	2437824	9.823139	0.255587	0.214876				-0.002116	0.004861	0.002018				53.048425	-88.136432	173.433116
00259	2437874	9.804230	0.259383	0.185219				-0.006001	0.004180	0.002026				53.000230	-88.136547	173.482024
00260	2437924	9.810641	0.238064	0.192847				-0.004677	0.002418	-0.000363				52.983960	-88.135958	173.497045
00261	2437974	9.825583	0.240585	0.197351				-0.005815	0.002781	-0.002859				52.971185	-88.135865	173.509970
00262	2438024	9.819530	0.252951	0.187489				-0.001911	-0.001051	0.000250				52.976713	-88.136166	173.503833
00263	2438074	9.826340	0.234776	0.201623				-0.003137	0.001579	0.001778				52.948835	-88.137001	173.532917
00264	2438124	9.824237	0.250719	0.201884				-0.003590	0.002305	-0.003064				52.947859	-88.135990	173.532786
00265	2438174	9.809336	0.259947	0.205774				-0.002371	0.002391	-0.002741				52.937995	-88.135708	173.544000
00266	2438224	9.822893	0.249770	0.190319				-0.004519	-0.000950	-0.005294				52.971199	-88.134913	173.509252
00267	2438274	9.814125	0.248058	0.186802				-0.005506	-0.000289	-0.005154				52.992358	-88.134792	173.488344
00268	2438324	9.835663	0.227635	0.209989				-0.005195	0.001832	0.001847				52.968483	-88.134647	173.510976
00269	2438374	9.817197	0.268986	0.186436				-0.005384	-0.001935	-0.004072				52.995296	-88.134990	173.484481
00270	2438424	9.812993	0.246857	0.178599				-0.004431	-0.001456	-0.000642				53.007489	-88.135129	173.470973
00271	2438474	9.802428	0.261627	0.201968				-0.002324	0.000936	-0.001884				53.004290	-88.134965	173.475836
00272	2438524	9.807162	0.262493	0.166631				-0.003608	-0.000350	-0.005063				53.032500	-88.133855	173.446586
00273	2438574	9.820567	0.267915	0.182680				-0.005382	0.000633	0.001462				53.012334	-88.135058	173.467086
00274	2438624	9.811785	0.261391	0.191339				-0.002994	-0.000399	-0.001635				53.023192	-88.134550	173.455561
00275	2438674	9.809237	0.261734	0.179651				-0.004332	0.000682	-0.000887				53.015082	-88.135130	173.464368
00276	2438724	9.816475	0.244598	0.159433				-0.004516	-0.001880	-0.001959				53.037395	-88.135107	173.440655
00277	2438774	9.822618	0.255203	0.183627				-0.005862	0.000363	0.000110				53.026010	-88.135411	173.452778
00278	2438824	9.801999	0.257374	0.163370				-0.004186	0.000000	-0.000826				53.029028	-88.135270	173.448512
00279	2438874	9.805722	0.260878	0.171924				-0.005120	-0.000920	-0.001308				53.034602	-88.135978	173.443447
00280	2438924	9.801654	0.256092	0.184229				-0.004163	0.000592	0.001394				53.021824	-88.136354	173.454890
00281	2438974	9.809258	0.252226	0.194253				-0.000183	0.001341	0.001705				52.996917	-88.137294	173.481795
00282	2439024	9.820332	0.247973	0.183875				-0.004292	0.000656	0.002804				52.976309	-88.137669	173.501327
00283	2439074	9.806929	0.265511	0.198865				-0.004993	0.001114	-0.003546				52.979194	-88.137524	173.498967
00284	2439124	9.823758	0.253106	0.197784				-0.006540	0.000641	-0.000656				52.975758	-88.137654	173.500166
00285	2439174	9.823136	0.246207	0.195902				-0.002939	0.002189	-0.000498				52.955773	-88.137542	173.521718
00286	2439224	9.805309	0.255582	0.209624				-0.004923	0.001891	-0.003604				52.959865	-88.136593	173.516027
00287	2439274	9.811492	0.243991	0.196886				-0.004239	0.000517	-0.002392				52.961547	-88.136480	173.515372
00288	2439324	9.806599	0.266554	0.210416				-0.002782	0.004128	-0.002927				52.947128	-88.135069	173.529026
00289	2439374	9.808675	0.262367	0.190599				-0.004313	-0.000297	-0.003713				52.961360	-88.135174	173.515434
00290	2439424	9.806468	0.258437	0.209520				-0.003182	-0.001664	-0.003851				52.992655	-88.134577	173.483216
00291	2439474	9.823604	0.245113	0.199402				-0.000264	-0.001778	-0.004344				53.021788	-88.134193	173.456460
00292	2439524	9.823409	0.255821	0.209183				-0.001831	-0.002670	-0.001490				53.047977	-88.134309	173.429740
00293	2439574	9.810524	0.250735	0.185595				-0.003894	-0.000285	-0.000986				53.047221	-88.135119	173.431213
00294	2439624	9.812626	0.245812	0.202787				-0.004493	-0.001591	-0.002632				53.070814	-88.134915	173.406203
00295	2439674	9.803137	0.272522	0.181312				-0.004146	-0.000121	0.000039				53.064467	-88.135395	173.413697
00296	2439724	9.826457	0.260712	0.168707				-0.007653	0.000037	-0.002391				53.074572	-88.134827	173.401404
00297	2439774	9.822390	0.252312	0.188850				-0.001727	-0.000864	-0.002891				53.089203	-88.134896	173.388440
00298	2439824	9.803095	0.261815	0.170603				-0.004800	0.003157	-0.001993				53.076033	-88.133841	173.400295
00299	2439874	9.795332	0.260342	0.196971				-0.003318	0.003145	-0.000583				53.049607	-88.133968	173.427795
00300	2439924	9.798661	0.255492	0.168571				-0.005481	-0.001923	-0.003974				53.082687	-88.133117	173.393375
00301	2439974	9.819642	0.243713	0.188809				-0.005525	0.004001	-0.000993				53.051154	-88.133476	173.424931
00302	2440024	9.819904	0.243510	0.184593				-0.001014	0.000363	0.001385				53.041134	-88.133574	173.434804
00303	2440074	9.821873	0.251232	0.197537				-0.004953	0.001810	-0.003441				53.038729	-88.133434	173.437641
00304	2440124	9.816916	0.251232	0.190036				-0.004803	0.004398	-0.001759				53.015846	-88.132302	173.459138
00305	2440174	9.824579	0.260443	0.202516				-0.003837	-0.000954	-0.002307				53.026867	-88.133001	173.448781
00306	2440224	9.821640	0.245402	0.208742				-0.001913	-0.002217	-0.003374				53.059775	-88.132589	173.415324
00307	2440274	9.821965	0.259812	0.204503				-0.002666	0.001793	0.000275				53.038563	-88.133100	173.437837
00308	2440324	9.803861	0.262816	0.199101				-0.004075	0.000695	-0.000276				53.034055	-88.132691	173.441386
00309	2440374	9.805388	0.258747	0.191842				-0.004435	-0.000547	-0.004578				53.054264	-88.132600	173.421844
00310	2440424	9.834645	0.239506	0.197083				-0.003443	0.002708	-0.002160				53.045746	-88.131724	173.429306
00311	2440474	9.808519	0.259602	0.182958				-0.003544	-0.000270	-0.003714				53.059733	-88.131480	173.416502
00312	2440524	9.808198	0.249625	0.178048				-0.002259	0.002860	-0.001422				53.046431	-88.130689	173.429139
00313	2440574	9.805316	0.263989	0.191490				-0.006086	-0.003936	-0.002890				53.081266	-88.131402	173.394641
00314	2440624	9.807182	0.246802	0.194268				-0.004058	-0.001115	-0.002273				53.099746	-88.131376	173.374702
00315	2440674	9.803266	0.261109	0.183486				-0.001489	0.000841	-0.000344				53.088935	-88.131666	173.387381
00316	2440724	9.821764	0.252703	0.173272				-0.006266	-0.002222	-0.000959				53.107640	-88.132147	173.366578
00317	2440774	9.823598	0.239990	0.171905				-0.004175	0.000565	-0.000761				53.099980	-88.132624	173.375090
00318	2440824	9.795885	0.262020	0.181098				-0.006678	-0.000159	-0.000624				53.102468	-88.132495	173.370695
00319	2440874	9.810444	0.257615	0.183986				-0.001755	0.002383	0.000371				53.076772	-88.132893	173.397985
00320	2440924	9.819125	0.267205	0.185907				-0.008744	0.005558	-0.000750				53.039163	-88.131881	173.433007
00321	2440974	9.823532	0.250616	0.200627				-0.001021	0.000463	0.000998				53.023979	-88.132893	173.449865
00322	2441024	9.818140	0.246990	0.192531				-0.007662	0.000438	-0.000685				53.022190	-88.132848	173.449283
00323	2441074	9.816048	0.244542	0.190147				0.000499	0.001937	-0.000215				53.003623	-88.132996	173.470263
00324	2441124	9.803469	0.272688	0.203526				-0.005927	-0.000367	0.001618				52.995921	-88.133447	173.476247
00325	2441174	9.816018	0.242060	0.200406				-0.001104	-0.000964	0.000288				52.993963	-88.134457	173.479932
00326	2441224	9.835514	0.237967	0.174510				-0.004645	0.001232	-0.002451				52.996790	-88.133898	173.475576
00327	2441274	9.799036	0.247520	0.201070				-0.004322	0.002538	0.000153				52.971080	-88.133935	173.502436
00328	2441324	9.806703	0.242076	0.205369				-0.001778	0.004265	0.001695				52.931569	-88.133601	173.541438
00329	2441374	9.826189	0.251569	0.191733				0.001046	0.000558	-0.002853				52.936297	-88.133766	173.538892
00330	2441424	9.797636	0.262954	0.202872				-0.000053	-0.001986	-0.001772				52.959657	-88.133545	173.515642
00331	2441474	9.820841	0.253746	0.204923				-0.003460	0.000150	-0.002591				52.965032	-88.133714	173.511339
00332	2441524	9.807961	0.258919	0.198419				-0.003845	-0.004161	-0.005434				53.021901	-88.133210	173.453312
00333	2441574	9.805197	0.253511	0.194435				-0.005011	-0.002626	-0.004298				53.055237	-88.133411	173.420583
00334	2441624	9.818460	0.247574	0.179280				-0.001159	-0.001483	-0.000999				53.070570	-88.133302	173.405037
00335	2441674	9.816984	0.269917	0.180016				-0.003113	-0.001456	-0.000163				53.074582	-88.134051	173.402396
00336	2441724	9.807761	0.255838	0.198530				-0.005464	-0.000403	-0.004736				53.100960	-88.132965	173.374509
00337	2441774	9.809873	0.250756	0.174598				-0.005968	0.000560	-0.002101				53.099822	-88.133104	173.375999
00338	2441824	9.802605	0.280465	0.174633				-0.004248	0.001052	-0.001264				53.097794	-88.132785	173.376671
00339	2441874	9.822449	0.247745	0.188938				-0.003026	0.000905	-0.000568				53.087345	-88.132910	173.388617
00340	2441924	9.811297	0.264041	0.187599				-0.006703	0.003687	-0.001886				53.069375	-88.131840	173.404674
00341	2441974	9.818927	0.230805	0.175904				-0.002445	-0.002250	0.000856				53.073680	-88.133252	173.401630
00342	2442024	9.800034	0.251124	0.187270				-0.003223	-0.001200	-0.002047				53.092098	-88.132900	173.382365
00343	2442074	9.820189	0.255271	0.191665				-0.006340	0.004537	-0.001147				53.057239	-88.133541	173.416607
00344	2442124	9.815468	0.234364	0.189228				-0.001711	0.002874	-0.000494				53.039221	-88.132838	173.434230
00345	2442174	9.824165	0.252631	0.209323				-0.004351	0.003442	-0.000002				53.007368	-88.132754	173.467062
00346	2442224	9.828791	0.258759	0.218592				-0.006176	0.000367	-0.000016				53.003013	-88.132822	173.469528
00347	2442274	9.811897	0.247512	0.200441				-0.005196	-0.001621	-0.001662				53.015517	-88.133157	173.457866
00348	2442324	9.817174	0.256262	0.215741				-0.005683	-0.000137	0.000210				53.013418	-88.133313	173.458252
00349	2442374	9.825888	0.251888	0.202489				-0.002007	-0.001209	-0.002185				53.026610	-88.133688	173.446620
00350	2442424	9.826573	0.256065	0.197174				-0.003301	-0.001816	-0.002856				53.053805	-88.132973	173.418809
00351	2442474	9.813416	0.267664	0.184772				-0.003342	-0.001492	-0.001346				53.064011	-88.133932	173.409447
00352	2442524	9.811861	0.266490	0.206870				-0.002052	-0.002059	-0.006841				53.114300	-88.132500	173.358753
00353	2442574	9.806791	0.274810	0.201770				-0.003260	0.005869	-0.007435				53.104349	-88.130895	173.369501
00354	2442624	9.833063	0.249386	0.202088				-0.006502	0.002333	-0.002986				53.101945	-88.129751	173.370100
00355	2442674	9.820814	0.264521	0.187632				-0.005180	-0.000872	0.000298				53.098730	-88.130920	173.373708
00356	2442724	9.813999	0.254947	0.191832				-0.003962	-0.000853	0.000613				53.100416	-88.131099	173.370986
00357	2442774	9.817095	0.266240	0.169443				-0.002757	-0.002610	0.000796				53.107207	-88.132711	173.365259
00358	2442824	9.821631	0.264332	0.171851				-0.001600	0.000450	0.000939				53.098398	-88.132926	173.373544
00359	2442874	9.805790	0.250867	0.181372				-0.005721	0.003631	-0.005160				53.092042	-88.131863	173.380321
00360	2442924	9.831407	0.242377	0.174711				-0.000514	0.000338	-0.000709				53.093232	-88.131753	173.378889
00361	2442974	9.814597	0.256492	0.169532				-0.006134	0.000890	-0.000878				53.083869	-88.131837	173.388822
00362	2443024	9.823235	0.251128	0.170489				-0.005800	0.002544	0.000091				53.063925	-88.131354	173.407179
00363	2443074	9.820001	0.250306	0.194450				-0.003520	0.001187	-0.002041				53.058525	-88.131819	173.413251
00364	2443124	9.818654	0.245849	0.190604				-0.005785	-0.000375	-0.003773				53.079470	-88.130989	173.390663
00365	2443174	9.810843	0.242930	0.189015				-0.003297	0.001995	-0.004185				53.079987	-88.130412	173.391321
00366	2443224	9.803752	0.248621	0.206769				-0.002669	0.001854	-0.000399				53.068470	-88.129875	173.402201
00367	2443274	9.803755	0.278149	0.185473				-0.003435	0.002907	0.000378				53.038696	-88.130219	173.433056
00368	2443324	9.815294	0.250064	0.185327				-0.005374	0.000288	0.001042				53.029566	-88.130509	173.440558
00369	2443374	9.817546	0.258970	0.188243				-0.006508	-0.000811	-0.004543				53.050971	-88.130291	173.419393
00370	2443424	9.828483	0.235243	0.200729				-0.003100	0.003335	0.000636				53.023216	-88.130044	173.446117
00371	2443474	9.795341	0.265793	0.184241				-0.002921	0.001553	-0.001074				53.011006	-88.130104	173.459705
00372	2443524	9.823017	0.255505	0.196985				-0.002519	-0.002125	-0.002538				53.038615	-88.129926	173.431326
00373	2443574	9.820530	0.251430	0.182910				-0.001159	0.001620	-0.000885				53.024869	-88.130167	173.446816
00374	2443624	9.816512	0.267216	0.184912				-0.004332	0.002694	-0.001098				53.010761	-88.129191	173.459925
00375	2443674	9.793470	0.256833	0.197147				0.000353	0.000157	-0.002531				53.017001	-88.129451	173.455729
00376	2443724	9.821013	0.248018	0.189151				-0.004974	0.001550	-0.002415				53.017324	-88.128633	173.453976
00377	2443774	9.803291	0.256828	0.187619				-0.004033	0.002180	-0.002027				53.005016	-88.128780	173.466968
00378	2443824	9.808518	0.257841	0.187314				-0.003390	0.001059	-0.002904				53.012068	-88.127773	173.459084
00379	2443874	9.805047	0.251613	0.183483				-0.005234	-0.000425	-0.000951				53.011703	-88.128687	173.459684
00380	2443924	9.802749	0.248156	0.177525				-0.002541	0.001756	-0.000756				53.002922	-88.128038	173.467907
00381	2443974	9.807575	0.262955	0.175318				-0.002197	-0.000077	-0.000827				53.000693	-88.128527	173.471665
00382	2444024	9.825547	0.251797	0.180558				-0.005854	0.001987	-0.002924				53.000610	-88.127397	173.470182
00383	2444074	9.819527	0.259330	0.176220				-0.003625	0.001446	-0.001236				52.989093	-88.127655	173.482683
00384	2444124	9.797956	0.266248	0.184079				-0.003835	0.002319	-0.000265				52.973120	-88.127221	173.497542
00385	2444174	9.811099	0.244826	0.181276				-0.005031	-0.000674	0.000940				52.964870	-88.128591	173.506116
00386	2444224	9.827427	0.231970	0.185797				-0.000383	0.001307	-0.001500				52.963545	-88.127893	173.507448
00387	2444274	9.829027	0.245913	0.206434				-0.003493	0.001485	-0.000082				52.946394	-88.128344	173.525692
00388	2444324	9.831055	0.254144	0.208489				-0.006158	-0.000435	0.001295				52.940846	-88.128798	173.529401
00389	2444374	9.807406	0.230075	0.191542				-0.006213	-0.001030	-0.004000				52.960742	-88.128845	173.509746
00390	2444424	9.791199	0.257690	0.216367				-0.003903	-0.000954	-0.002559				52.980179	-88.128295	173.489303
00391	2444474	9.817572	0.245804	0.171385				-0.004219	-0.002119	-0.000323				52.988795	-88.129295	173.481569
00392	2444524	9.821615	0.255074	0.192731				-0.000442	0.002147	-0.002101				52.984758	-88.128361	173.485555
00393	2444574	9.809661	0.248155	0.175350				-0.006401	0.001632	0.003683				52.945694	-88.129499	173.525054
00394	2444624	9.816027	0.262329	0.195831				-0.000184	0.001118	-0.002047				52.948831	-88.128800	173.521901
00395	2444674	9.823513	0.254613	0.195351				-0.004838	-0.000906	-0.002944				52.962476	-88.129365	173.508686
00396	2444724	9.813550	0.266068	0.166213				-0.000709	0.001433	-0.002625				52.965920	-88.128477	173.505066
00397	2444774	9.825182	0.261210	0.181749				-0.005513	0.002381	-0.002573				52.955178	-88.128003	173.516528
00398	2444824	9.809376	0.253665	0.172082				-0.004923	0.006006	-0.004829				52.937210	-88.125918	173.533050
00399	2444874	9.780642	0.259628	0.186438				-0.004000	0.000114	-0.002648				52.942517	-88.126082	173.528591
00400	2444924	9.806431	0.272082	0.187727				-0.004285	-0.001123	-0.003202				52.965972	-88.125742	173.503716
00401	2444974	9.804162	0.244034	0.187583				-0.003543	0.000899	-0.001813				52.961566	-88.126309	173.508794
00402	2445024	9.816463	0.251105	0.187558				-0.000782	0.003760	-0.002637				52.948927	-88.125183	173.521094
00403	2445074	9.822459	0.244137	0.193773				-0.006454	0.001815	-0.001644				52.936794	-88.124747	173.533897
00404	2445124	9.806791	0.247977	0.178504				-0.002988	0.003786	-0.001191				52.915891	-88.123772	173.553994
00405	2445174	9.803236	0.247704	0.176031				-0.004593	-0.000215	0.000109				52.908855	-88.124776	173.561609
00406	2445224	9.822314	0.256272	0.193488				-0.004502	-0.000222	-0.002943				52.924581	-88.124098	173.544627
00407	2445274	9.833506	0.221192	0.186909				-0.002129	0.000530	-0.003524				52.932851	-88.123671	173.538088
00408	2445324	9.810299	0.248121	0.188977				-0.009689	0.000757	-0.002088				52.936049	-88.122918	173.532247
00409	2445374	9.814901	0.239067	0.195395				-0.003485	-0.000072	-0.003065				52.944728	-88.123528	173.524119
00410	2445424	9.812601	0.248141	0.201469				-0.001615	0.001002	0.001293				52.930580	-88.123463	173.537984
00411	2445474	9.810981	0.262334	0.204513				-0.005182	-0.001040	-0.002203				52.941618	-88.124113	173.527319
00412	2445524	9.805518	0.263841	0.197238				0.000418	-0.005148	-0.003748				52.997449	-88.124123	173.471609
00413	2445574	9.810890	0.252048	0.200420				-0.003571	-0.001631	-0.005329				53.028795	-88.124256	173.441022
00414	2445624	9.810704	0.248885	0.198503				-0.003888	-0.001436	-0.001922				53.047900	-88.123937	173.420917
00415	2445674	9.835318	0.244960	0.192134				-0.005806	-0.003533	0.000636				53.061369	-88.125577	173.407772
00416	2445724	9.804763	0.267534	0.196584				-0.006230	-0.002054	0.001612				53.065363	-88.126542	173.401762
00417	2445774	9.808505	0.276033	0.191393				-0.004431	0.001723	-0.001034				53.050893	-88.126650	173.417123
00418	2445824	9.799584	0.257200	0.207731				-0.002855	-0.000709	-0.002498				53.068333	-88.126149	173.398903
00419	2445874	9.803674	0.261218	0.193619				-0.004240	0.002988	-0.000133				53.040695	-88.125943	173.427772
00420	2445924	9.807122	0.259604	0.177989				-0.003903	0.002249	-0.000749				53.027925	-88.125261	173.439555
00421	2445974	9.816781	0.242751	0.190029				-0.001797	-0.002694	-0.001421				53.047317	-88.126565	173.421307
00422	2446024	9.820921	0.250232	0.198948				-0.005569	0.000117	-0.002168				53.056452	-88.126073	173.410553
00423	2446074	9.808635	0.251306	0.181547				-0.001004	-0.001415	-0.001609				53.067829	-88.126265	173.401316
00424	2446124	9.804373	0.244481	0.190394				-0.002979	-0.001971	-0.002632				53.094622	-88.126127	173.373540
00425	2446174	9.814711	0.243564	0.176473				-0.007827	0.000761	0.000281				53.079233	-88.127001	173.388596
00426	2446224	9.812956	0.248506	0.182706				-0.004794	-0.000094	-0.001687				53.087519	-88.126619	173.378953
00427	2446274	9.830796	0.246893	0.188361				-0.001416	0.000785	0.002059				53.064178	-88.127798	173.403867
00428	2446324	9.822275	0.244314	0.184272				-0.005119	-0.002141	-0.002757				53.091973	-88.127520	173.374601
00429	2446374	9.824737	0.245991	0.168031				-0.003135	0.000326	-0.000022				53.082508	-88.128253	173.385184
00430	2446424	9.823592	0.245196	0.201363				-0.006229	0.000854	-0.000108				53.075488	-88.127822	173.390660
00431	2446474	9.800077	0.273489	0.211306				-0.003809	-0.000787	-0.000508				53.076267	-88.128521	173.390898
00432	2446524	9.800723	0.273879	0.183020				-0.004900	0.000327	0.000114				53.072114	-88.128419	173.393710
00433	2446574	9.821708	0.252052	0.183191				-0.005369	0.001533	-0.007037				53.090225	-88.127435	173.376004
00434	2446624	9.803066	0.265093	0.206300				-0.004459	0.001328	-0.003670				53.098908	-88.126333	173.366070
00435	2446674	9.798615	0.263742	0.198274				-0.008217	-0.003390	-0.003042				53.129962	-88.127253	173.334438
00436	2446724	9.813530	0.247432	0.206672				-0.003628	-0.001595	-0.002087				53.151044	-88.127066	173.312296
00437	2446774	9.791294	0.264311	0.187334				-0.007960	-0.000182	-0.002287				53.155966	-88.127066	173.307370
00438	2446824	9.812272	0.256061	0.200650				-0.007777	-0.001118	-0.003226				53.178491	-88.126588	173.282537
00439	2446874	9.785027	0.269586	0.189051				-0.005268	-0.001302	-0.002076				53.190383	-88.127281	173.270980
00440	2446924	9.814621	0.250075	0.178688				-0.002845	0.001969	-0.004059				53.197066	-88.126023	173.263471
00441	2446974	9.826628	0.257361	0.185919				-0.003516	0.005194	-0.002050				53.163725	-88.125554	173.297764
00442	2447024	9.801036	0.269490	0.179904				-0.005273	-0.000301	-0.003867				53.184442	-88.124906	173.275349
00443	2447074	9.822893	0.246470	0.196023				-0.003252	-0.001492	-0.002021				53.198706	-88.125005	173.262640
00444	2447124	9.817740	0.248736	0.176918				-0.002621	-0.001162	-0.003564				53.224908	-88.124274	173.235771
00445	2447174	9.847565	0.223770	0.179951				-0.004157	0.000951	-0.001912				53.220213	-88.124713	173.241079
00446	2447224	9.804506	0.260825	0.175814				-0.003267	0.002258	-0.001644				53.212138	-88.123870	173.248297
00447	2447274	9.801281	0.253999	0.171306				-0.009649	0.000367	-0.002763				53.214864	-88.123839	173.244927
00448	2447324	9.798689	0.257091	0.198657				-0.005011	0.002808	-0.002473				53.206490	-88.122963	173.251711
00449	2447374	9.815337	0.244449	0.189448				-0.003498	0.001150	-0.005858				53.222190	-88.121775	173.237427
00450	2447424	9.837261	0.236365	0.203590				-0.001522	-0.001232	-0.000709				53.233968	-88.122034	173.225008
00451	2447474	9.826411	0.243214	0.210926				-0.004289	0.000241	-0.000694				53.228126	-88.122607	173.231656
00452	2447524	9.809299	0.256464	0.179054				-0.004030	-0.002891	0.000027				53.247165	-88.123012	173.211540
00453	2447574	9.811035	0.256745	0.205756				-0.002997	0.001612	-0.004446				53.252015	-88.122468	173.207884
00454	2447624	9.805670	0.246844	0.208677				-0.001831	0.001577	-0.001302				53.247278	-88.121895	173.212102
00455	2447674	9.817342	0.242718	0.216473				-0.005953	-0.000756	0.000171				53.243724	-88.122839	173.216025
00456	2447724	9.811296	0.252542	0.212009				-0.001279	0.002295	-0.002645				53.240940	-88.121866	173.218413
00457	2447774	9.815290	0.249618	0.187493				-0.002781	0.001005	-0.002139				53.237771	-88.122237	173.222583
00458	2447824	9.807736	0.254936	0.204249				-0.003549	-0.002980	-0.001130				53.263423	-88.122484	173.195909
00459	2447874	9.814427	0.262944	0.183120				-0.004666	-0.001965	0.000000				53.269793	-88.123503	173.190339
00460	2447924	9.814213	0.260665	0.184649				-0.006410	0.000061	-0.006302				53.300372	-88.122102	173.157851
00461	2447974	9.812505	0.243982	0.186280				-0.002876	-0.001232	-0.004204				53.324137	-88.121959	173.135474
00462	2448024	9.823580	0.250126	0.193466				-0.004280	0.001719	-0.004407				53.333734	-88.120558	173.124728
00463	2448074	9.826299	0.243846	0.190054				-0.000778	-0.001709	-0.004312				53.361541	-88.120827	173.098558
00464	2448124	9.832962	0.233719	0.172347				-0.001136	0.000710	-0.002855				53.371177	-88.119969	173.088666
00465	2448174	9.802375	0.250284	0.195258				-0.003843	0.000148	-0.002684				53.376713	-88.120218	173.083943
00466	2448224	9.806621	0.246700	0.170269				-0.001762	0.000246	-0.002404				53.387269	-88.119372	173.073113
00467	2448274	9.809639	0.266936	0.180341				-0.001322	0.001712	-0.000372				53.370450	-88.119627	173.091756
00468	2448324	9.808399	0.244632	0.194983				-0.001831	0.000767	0.000617				53.361162	-88.119729	173.100438
00469	2448374	9.816216	0.252025	0.186365				-0.002433	0.002241	-0.002007				53.348623	-88.119882	173.114169
00470	2448424	9.805422	0.251925	0.198827				-0.001399	0.000066	-0.000571				53.350577	-88.119996	173.111575
00471	2448474	9.818151	0.270136	0.182956				-0.004495	0.000653	-0.001622				53.346800	-88.120200	173.116154
00472	2448524	9.827964	0.241991	0.194186				-0.001551	0.002199	0.002293				53.318823	-88.120440	173.143618
00473	2448574	9.825150	0.219292	0.195133				-0.005480	0.001347	-0.001646				53.310479	-88.120578	173.152455
00474	2448624	9.809251	0.242205	0.216551				-0.007063	0.001772	-0.002636				53.309595	-88.119758	173.151229
00475	2448674	9.832173	0.250553	0.189768				-0.002848	-0.000032	-0.003652				53.321618	-88.119621	173.140502
00476	2448724	9.809942	0.253201	0.197486				-0.001609	-0.002758	-0.002543				53.353511	-88.119800	173.107859
00477	2448774	9.819288	0.245651	0.203047				-0.001869	0.000368	-0.003874				53.364548	-88.119325	173.098597
00478	2448824	9.791487	0.269283	0.184671				-0.006904	-0.001524	-0.003421				53.390971	-88.118775	173.070200
00479	2448874	9.795142	0.260965	0.188282				-0.003951	-0.001275	-0.000349				53.394539	-88.119579	173.067660
00480	2448924	9.821251	0.255775	0.172862				-0.004716	0.000786	0.000532				53.384868	-88.119591	173.075967
00481	2448974	9.795725	0.281991	0.166467				-0.004362	-0.000704	-0.002880				53.397023	-88.119733	173.064681
00482	2449024	9.804099	0.255385	0.174910				-0.005680	0.001601	-0.002509				53.397163	-88.118942	173.062853
00483	2449074	9.819699	0.244882	0.177526				-0.005058	0.005295	-0.002912				53.367449	-88.118140	173.093188
00484	2449124	9.814844	0.263548	0.193006				-0.008514	-0.000034	-0.002771				53.379488	-88.117631	173.078587
00485	2449174	9.822703	0.249537	0.182115				-0.002753	-0.001808	-0.001222				53.391593	-88.118328	173.067831
00486	2449224	9.793214	0.263577	0.185574				-0.004304	0.003927	-0.000095				53.363567	-88.117578	173.094695
00487	2449274	9.821985	0.240226	0.202083				-0.003298	0.001322	-0.001784				53.356411	-88.117295	173.103358
00488	2449324	9.830514	0.254955	0.178429				-0.002928	0.004750	-0.002507				53.335640	-88.115702	173.123493
00489	2449374	9.809947	0.221302	0.184513				-0.003558	0.003551	-0.001127				53.308751	-88.116208	173.150843
00490	2449424	9.823903	0.244471	0.190777				-0.000237	0.000728	-0.000864				53.308122	-88.115970	173.151330
00491	2449474	9.801624	0.246034	0.209231				-0.001087	0.003329	-0.001935				53.288474	-88.115627	173.172793
00492	2449524	9.810957	0.247639	0.198617				-0.002229	0.004795	-0.004523				53.277683	-88.113914	173.182811
00493	2449574	9.819489	0.256062	0.188034				-0.004082	0.002859	-0.000811				53.254290	-88.114000	173.207088
00494	2449624	9.813161	0.234392	0.176743				-0.004073	0.001109	-0.005114				53.272118	-88.112671	173.188049
00495	2449674	9.826166	0.240875	0.178408				-0.004440	0.001917	-0.001775				53.260598	-88.112404	173.200623
00496	2449724	9.818814	0.270717	0.190948				-0.004694	0.004079	-0.000865				53.235679	-88.111387	173.224327
00497	2449774	9.816498	0.252022	0.179375				-0.004487	0.000660	0.002483				53.210488	-88.112595	173.250322
00498	2449824	9.809731	0.269428	0.199664				-0.002255	-0.002081	0.002115				53.213344	-88.113505	173.246755
00499	2449874	9.819936	0.237662	0.191052				-0.005095	-0.000361	0.002315				53.195714	-88.115020	173.264839
00500	2449924	9.824264	0.273198	0.189054				-0.004378	-0.003114	-0.000624				53.219391	-88.115426	173.239878
00501	2449974	9.823092	0.256009	0.183212				0.000570	0.002531	-0.003560				53.214303	-88.114922	173.247193
00502	2450024	9.828410	0.244691	0.193683				-0.003436	0.000624	-0.001437				53.216816	-88.114177	173.243981
00503	2450074	9.796328	0.256094	0.199777				-0.004184	0.000799	-0.002783				53.217671	-88.114514	173.243654
00504	2450124	9.807432	0.260427	0.203092				-0.003546	-0.000934	-0.001546				53.231158	-88.114381	173.229092
00505	2450174	9.815460	0.264585	0.167645				-0.006459	0.002124	-0.000587				53.211757	-88.114282	173.249065
00506	2450224	9.812010	0.250229	0.176029				-0.005977	0.000904	-0.000568				53.206538	-88.114285	173.252304
00507	2450274	9.798021	0.261612	0.183002				-0.001334	0.001884	-0.002276				53.198515	-88.113783	173.262410
00508	2450324	9.803648	0.244824	0.192570				0.000283	-0.000247	0.000823				53.195982	-88.114043	173.264997
00509	2450374	9.808532	0.263864	0.173151				-0.004370	0.000128	0.002376				53.174605	-88.115893	173.286661
00510	2450424	9.815302	0.255517	0.171448				-0.003748	-0.000450	0.000477				53.173946	-88.116150	173.286177
00511	2450474	9.806364	0.240948	0.184467				-0.001157	0.001602	-0.000575				53.159642	-88.116064	173.302626
00512	2450524	9.809299	0.248939	0.194611				-0.003042	0.005739	-0.000356				53.120479	-88.115072	173.340864
00513	2450574	9.813862	0.246455	0.192184				-0.000093	0.003462	-0.000571				53.092838	-88.115086	173.370569
00514	2450624	9.810137	0.240008	0.191546				0.001518	-0.002009	-0.001241				53.113585	-88.115434	173.349979
00515	2450674	9.833576	0.247576	0.198961				-0.003153	0.001662	-0.002625				53.108278	-88.115402	173.356354
00516	2450724	9.808954	0.276273	0.195256				-0.002336	0.003157	-0.004541				53.109437	-88.113796	173.354537
00517	2450774	9.818937	0.255106	0.202866				-0.005359	0.001786	-0.001241				53.095855	-88.113630	173.368963
00518	2450824	9.801321	0.263059	0.186148				-0.003667	0.001843	-0.003776				53.101796	-88.112377	173.362035
00519	2450874	9.805604	0.261077	0.190202				-0.005887	0.001032	-0.002266				53.098308	-88.112320	173.365984
00520	2450924	9.817766	0.269285	0.209033				-0.003139	0.000139	-0.004075				53.117588	-88.111616	173.345565
00521	2450974	9.831359	0.261212	0.184589				-0.003450	0.002307	-0.000504				53.096572	-88.111914	173.367556
00522	2451024	9.806202	0.252098	0.188617				-0.003649	0.003430	-0.002226				53.083422	-88.110738	173.379733
00523	2451074	9.801190	0.234991	0.186930				-0.002155	0.003751	-0.000818				53.054261	-88.111048	173.409974
00524	2451124	9.819601	0.251827	0.178608				-0.005715	0.001107	0.001488				53.037258	-88.111248	173.425299
00525	2451174	9.825439	0.260066	0.181004				-0.002415	0.000700	-0.002473				53.038374	-88.110957	173.425882
00526	2451224	9.821061	0.261273	0.192763				-0.003960	0.001705	-0.005799				53.055701	-88.109310	173.407439
00527	2451274	9.827809	0.238844	0.186957				-0.004527	0.000638	-0.000799				53.047893	-88.109669	173.416125
00528	2451324	9.816936	0.237482	0.177480				-0.003842	0.002328	-0.001783				53.039886	-88.108864	173.423021
00529	2451374	9.830564	0.236148	0.170257				-0.005675	0.003390	-0.003442				53.026262	-88.108499	173.436885
00530	2451424	9.818549	0.251696	0.194501				-0.003600	0.002751	-0.002426				53.018781	-88.107504	173.443303
00531	2451474	9.810434	0.240418	0.181793				-0.003488	0.001041	-0.003109				53.020440	-88.107186	173.442851
00532	2451524	9.821877	0.242275	0.176718				-0.001496	0.002082	-0.000959				53.010544	-88.106766	173.452178
00533	2451574	9.817258	0.257445	0.199342				-0.003328	-0.004901	0.000326				53.035477	-88.108244	173.428492
00534	2451624	9.817660	0.266483	0.193472				-0.003846	-0.000878	-0.005043				53.066833	-88.107194	173.396058
00535	2451674	9.803523	0.253200	0.195227				-0.003977	0.001384	-0.003232				53.066413	-88.107046	173.397334
00536	2451724	9.814384	0.241602	0.195695				-0.001913	0.000233	0.000093				53.063947	-88.106789	173.399475
00537	2451774	9.822357	0.252032	0.194854				-0.002441	-0.000788	-0.003567				53.080589	-88.107414	173.383686
00538	2451824	9.814466	0.240627	0.183849				-0.003193	-0.002086	-0.001462				53.101745	-88.107401	173.361633
00539	2451874	9.826120	0.247125	0.173539				-0.006046	-0.000913	-0.001382				53.106998	-88.108047	173.356654
00540	2451924	9.815616	0.244996	0.181795				-0.003546	0.001944	-0.002811				53.107084	-88.106952	173.355657
00541	2451974	9.821629	0.248491	0.204496				-0.000297	0.001613	-0.003046				53.105302	-88.106588	173.359575
00542	2452024	9.815989	0.256441	0.175306				-0.002675	-0.000170	0.000539				53.102901	-88.106705	173.361233
00543	2452074	9.828389	0.233241	0.180408				-0.004327	-0.001593	-0.000972				53.111847	-88.107181	173.353411
00544	2452124	9.832864	0.233690	0.188813				-0.000264	-0.001522	-0.002909				53.137620	-88.106613	173.327699
00545	2452174	9.819866	0.253696	0.170714				-0.002600	0.000444	-0.000259				53.128359	-88.107670	173.337873
00546	2452224	9.792364	0.256696	0.183262				-0.008298	-0.002564	0.000898				53.139332	-88.108231	173.324600
00547	2452274	9.815365	0.249531	0.175013				-0.002696	-0.000524	-0.000261				53.136698	-88.109481	173.328089
00548	2452324	9.812047	0.255528	0.198504				-0.005598	0.000004	-0.000665				53.138556	-88.109282	173.324675
00549	2452374	9.816184	0.239589	0.177998				-0.004072	0.002354	-0.002138				53.125797	-88.108874	173.338563
00550	2452424	9.812061	0.240238	0.188956				-0.004428	-0.001526	-0.000520				53.137744	-88.109097	173.325271
00551	2452474	9.831587	0.248600	0.172279				-0.002567	0.000414	-0.000513				53.130420	-88.109784	173.333812
00552	2452524	9.816321	0.263808	0.184405				-0.002782	0.001446	0.001640				53.111068	-88.109960	173.352334
00553	2452574	9.833252	0.243024	0.183407				-0.001245	0.003244	-0.001660				53.090307	-88.109768	173.374805
00554	2452624	9.817949	0.244118	0.190557				-0.005139	-0.001120	0.000540				53.093811	-88.110063	173.369848
00555	2452674	9.810181	0.257265	0.188980				-0.003137	0.000434	0.000291				53.081709	-88.110847	173.383071
00556	2452724	9.810391	0.252380	0.203566				-0.003238	0.000529	-0.000095				53.077551	-88.110852	173.386198
00557	2452774	9.816901	0.249340	0.196364				-0.001711	0.000517	-0.004685				53.091697	-88.110333	173.373715
00558	2452824	9.833371	0.239287	0.209975				-0.001994	0.000553	-0.001449				53.095057	-88.109854	173.369838
00559	2452874	9.804871	0.261724	0.190924				-0.005874	0.001940	0.000565				53.070473	-88.110220	173.394966
00560	2452924	9.812149	0.262327	0.207381				-0.004280	-0.001007	-0.001128				53.082142	-88.110088	173.382108
00561	2452974	9.825104	0.243984	0.190328				-0.006533	-0.000695	-0.000032				53.078589	-88.111147	173.385663
00562	2453024	9.811448	0.247490	0.196052				-0.006094	0.003847	0.000699				53.046560	-88.110616	173.415984
00563	2453074	9.812500	0.267972	0.177096				-0.001843	-0.002263	-0.001557				53.063499	-88.111473	173.400464
00564	2453124	9.796082	0.250284	0.173433				-0.004478	-0.001045	-0.001896				53.079413	-88.111130	173.383339
00565	2453174	9.792445	0.264685	0.193129				-0.006898	0.000692	-0.001976				53.076631	-88.111498	173.386033
00566	2453224	9.785131	0.265779	0.180699				-0.001381	0.001168	-0.004454				53.091374	-88.110254	173.370904
00567	2453274	9.817135	0.241117	0.175222				-0.003763	-0.001489	-0.003631				53.112953	-88.110398	173.350296
00568	2453324	9.797803	0.262047	0.179782				-0.004061	0.004363	-0.000485				53.084145	-88.109397	173.378082
00569	2453374	9.817319	0.242103	0.182723				-0.004061	0.002065	-0.002843				53.076894	-88.109158	173.386217
00570	2453424	9.809733	0.241360	0.178702				-0.000488	0.000545	-0.002094				53.083726	-88.108706	173.379127
00571	2453474	9.814806	0.236996	0.175398				-0.003977	0.004719	-0.000103				53.043950	-88.108652	173.419800
00572	2453524	9.819098	0.227541	0.194003				-0.003862	0.002941	-0.002392				53.035079	-88.107811	173.427379
00573	2453574	9.816957	0.245489	0.195485				-0.002486	0.005034	-0.003599				53.011813	-88.106661	173.452170
00574	2453624	9.814992	0.248959	0.197852				-0.002995	0.001725	-0.003489				53.017119	-88.105736	173.445851
00575	2453674	9.812043	0.254155	0.202582				-0.004116	0.000802	-0.002013				53.014539	-88.105681	173.449491
00576	2453724	9.814046	0.253062	0.189469				-0.002387	0.003105	0.000045				52.992267	-88.105129	173.471117
00577	2453774	9.818360	0.250042	0.188941				-0.001127	-0.000236	0.001051				52.981979	-88.105983	173.483314
00578	2453824	9.822843	0.241377	0.215004				-0.002294	-0.000905	0.001241				52.981004	-88.106441	173.483618
00579	2453874	9.830977	0.233003	0.187041				-0.001031	0.003637	-0.002495				52.961760	-88.106515	173.504148
00580	2453924	9.824329	0.262758	0.201346				-0.004417	0.001316	-0.001757				52.960451	-88.105973	173.504106
00581	2453974	9.814626	0.249224	0.179827				-0.006566	-0.001633	-0.000193				52.964902	-88.106677	173.500092
00582	2454024	9.816617	0.269834	0.200859				-0.000996	-0.001500	-0.000821				52.979134	-88.107004	173.485329
00583	2454074	9.822858	0.251722	0.191332				-0.002368	0.002357	-0.001307				52.962500	-88.107188	173.503241
00584	2454124	9.818383	0.255001	0.176724				-0.004011	0.000643	-0.000733				52.960909	-88.106778	173.503804
00585	2454174	9.805239	0.250718	0.193339				-0.007863	0.000340	-0.006852				52.985546	-88.105924	173.478960
00586	2454224	9.827602	0.245059	0.169767				-0.004356	0.002383	-0.002172				52.979077	-88.105017	173.484181
00587	2454274	9.818830	0.269454	0.191168				-0.005034	0.003735	-0.000136				52.946122	-88.104934	173.517949
00588	2454324	9.807049	0.265577	0.178996				-0.007022	0.004727	-0.001313				52.918350	-88.103735	173.543795
00589	2454374	9.801492	0.244578	0.194540				-0.002874	0.000919	-0.002757				52.919022	-88.104123	173.544000
00590	2454424	9.815113	0.243180	0.190360				-0.005554	0.000744	-0.002658				52.926137	-88.103498	173.535186
00591	2454474	9.817100	0.241465	0.181483				-0.000782	-0.000337	-0.003701				52.941475	-88.102913	173.522190
00592	2454524	9.815320	0.260368	0.199999				-0.001768	0.001556	-0.002565				52.943682	-88.101939	173.519583
00593	2454574	9.814375	0.247237	0.185814				-0.001201	-0.000180	-0.001195				52.944469	-88.102676	173.520311
00594	2454624	9.812616	0.260743	0.172580				-0.003112	-0.002738	-0.003319				52.979732	-88.102632	173.483917
00595	2454674	9.819325	0.252080	0.183202				-0.007950	0.002776	0.000541				52.948941	-88.102967	173.514553
00596	2454724	9.814195	0.238309	0.194924				-0.004735	-0.001051	-0.001606				52.963158	-88.102792	173.498960
00597	2454774	9.824836	0.257932	0.205679				-0.003023	0.000765	-0.000160				52.951339	-88.103496	173.511867
00598	2454824	9.809402	0.263590	0.186796				-0.002616	0.001024	-0.001507				52.951484	-88.102976	173.510982
00599	2454874	9.812395	0.251145	0.189614				-0.002711	-0.000978	0.000508				52.948540	-88.103798	173.515389
00600	2454924	9.803810	0.236688	0.183495				-0.006853	-0.001698	-0.000964				52.963455	-88.103838	173.498532
00601	2454974	9.803939	0.260100	0.192372				-0.005614	0.001552	-0.001783				52.953485	-88.104168	173.508697
00602	2455024	9.818745	0.239304	0.187544				-0.002346	0.001512	-0.003555				52.961150	-88.102962	173.500482
00603	2455074	9.806702	0.251683	0.185872				-0.003181	0.001693	-0.002526				52.954872	-88.102676	173.508051
00604	2455124	9.810740	0.248640	0.192970				-0.002620	-0.003218	-0.004834				53.001365	-88.102301	173.460619
00605	2455174	9.823883	0.248938	0.184848				-0.004136	0.002153	-0.004862				53.004548	-88.101638	173.458244
00606	2455224	9.805283	0.267731	0.190295				-0.005537	0.004299	-0.003469				52.991272	-88.100219	173.469829
00607	2455274	9.799594	0.257031	0.169126				-0.002510	0.000802	-0.000540				52.981346	-88.100665	173.481143
00608	2455324	9.799813	0.250342	0.184179				-0.002120	-0.000011	-0.006931				53.016672	-88.099211	173.445070
00609	2455374	9.815960	0.250708	0.191825				-0.001607	0.001560	-0.000802				53.003787	-88.099141	173.459911
00610	2455424	9.802800	0.266088	0.171753				-0.002155	0.001611	-0.002337				53.004211	-88.098413	173.458804
00611	2455474	9.805227	0.245506	0.165961				-0.004775	0.000510	0.000232				52.991829	-88.098938	173.472015
00612	2455524	9.807110	0.252767	0.194515				-0.007141	0.000330	-0.002175				52.998718	-88.098417	173.463048
00613	2455574	9.820773	0.251574	0.181445				-0.002801	-0.001141	0.000118				52.998861	-88.099303	173.464237
00614	2455624	9.816921	0.271908	0.185744				-0.003843	-0.002417	0.002073				53.003525	-88.100186	173.458471
00615	2455674	9.819100	0.266988	0.190641				-0.004593	0.001633	-0.003520				53.002771	-88.099990	173.459858
00616	2455724	9.836153	0.260915	0.179646				-0.000473	-0.003179	-0.002720				53.038873	-88.099971	173.423552
00617	2455774	9.810220	0.256852	0.182671				-0.001315	-0.001269	0.003774				53.021237	-88.101769	173.442899
00618	2455824	9.804846	0.256742	0.205308				0.000910	0.001255	0.000703				53.009223	-88.101702	173.455196
00619	2455874	9.787406	0.266967	0.194872				-0.007729	0.001644	-0.002994				53.004668	-88.101479	173.459571
00620	2455924	9.802217	0.264873	0.190839				-0.002279	-0.002788	-0.003388				53.041129	-88.101016	173.422595
00621	2455974	9.835858	0.241805	0.188396				-0.006270	0.001994	-0.001334				53.025909	-88.101245	173.437976
00622	2456024	9.802051	0.247224	0.176002				-0.003378	-0.003286	-0.000276				53.048963	-88.101783	173.413903
00623	2456074	9.821391	0.249967	0.200888				-0.002366	0.001092	-0.002432				53.047319	-88.101928	173.416801
00624	2456124	9.812075	0.264625	0.176247				-0.003086	-0.000144	0.000417				53.045132	-88.102104	173.418047
00625	2456174	9.824576	0.245360	0.194964				-0.000718	0.003034	-0.000215				53.018362	-88.102410	173.446575
00626	2456224	9.811484	0.231318	0.185130				-0.002678	0.001796	-0.001819				53.014537	-88.101768	173.449560
00627	2456274	9.804707	0.249738	0.166220				-0.001099	0.000730	-0.000419				53.005006	-88.102294	173.460882
00628	2456324	9.802258	0.255455	0.164175				-0.002903	0.003186	-0.000722				52.986021	-88.101588	173.479039
00629	2456374	9.804676	0.259993	0.188570				-0.002064	0.002613	-0.004575				52.984505	-88.100892	173.481985
00630	2456424	9.801590	0.258928	0.188833				-0.006337	0.002222	-0.001584				52.975461	-88.100451	173.488940
00631	2456474	9.816794	0.256090	0.200006				-0.002960	0.001726	-0.003552				52.975196	-88.099464	173.491046
00632	2456524	9.793674	0.258906	0.196432				-0.003324	-0.001731	0.000504				52.983234	-88.100110	173.481833
00633	2456574	9.803232	0.255158	0.200609				-0.005046	0.005192	-0.000865				52.943905	-88.099782	173.521769
00634	2456624	9.801980	0.263945	0.192838				-0.004596	0.001192	0.002062				52.923672	-88.099959	173.540777
00635	2456674	9.802454	0.260684	0.199307				-0.007816	0.000317	-0.003099				52.928885	-88.100188	173.535158
00636	2456724	9.815527	0.251878	0.182511				-0.003973	0.001156	-0.004292				52.941976	-88.099139	173.520800
00637	2456774	9.808745	0.259996	0.185156				-0.003961	0.002268	0.000655				52.915751	-88.099218	173.548338
00638	2456824	9.821594	0.254718	0.196868				-0.005601	0.001525	0.000623				52.900585	-88.098958	173.562035
00639	2456874	9.818988	0.256728	0.189641				-0.002707	-0.000104	0.000123				52.893579	-88.099750	173.570363
00640	2456924	9.808907	0.259305	0.197756				-0.003377	-0.000054	-0.000514				52.895674	-88.099697	173.567249
00641	2456974	9.839077	0.230889	0.190743				-0.002050	0.000387	-0.001574				52.894118	-88.099928	173.570317
00642	2457024	9.833242	0.239074	0.192908				-0.007733	-0.001428	-0.002212				52.913183	-88.099933	173.548783
00643	2457074	9.805313	0.258939	0.202184				-0.006916	0.000405	0.000814				52.897530	-88.100776	173.564539
00644	2457124	9.808681	0.245976	0.184555				-0.005231	-0.002576	-0.001903				52.923734	-88.100805	173.536803
00645	2457174	9.812819	0.264056	0.173341				-0.004587	-0.000531	-0.002791				52.934524	-88.100873	173.526890
00646	2457224	9.802626	0.272014	0.187733				0.000539	-0.001608	-0.003066				52.961796	-88.100417	173.499792
00647	2457274	9.820255	0.251863	0.188161				-0.003532	-0.000646	-0.003918				52.979140	-88.100567	173.483259
00648	2457324	9.798972	0.264014	0.178702				-0.002701	-0.000203	-0.001030				52.985030	-88.100502	173.476466
00649	2457374	9.816692	0.251784	0.187511				-0.001463	0.000981	-0.001639				52.979820	-88.100934	173.483136
00650	2457424	9.816620	0.275708	0.188447				-0.000690	0.001122	-0.000736				52.975769	-88.100411	173.487130
00651	2457474	9.804658	0.275618	0.198704				-0.006970	-0.002056	0.000192				52.980819	-88.101430	173.482256
00652	2457524	9.802966	0.247394	0.182541				-0.001085	0.000243	-0.001482				52.986669	-88.100812	173.476306
00653	2457574	9.792689	0.251396	0.179200				-0.006562	-0.002056	-0.002538				53.005437	-88.101770	173.457319
00654	2457624	9.821396	0.262940	0.212639				-0.005074	0.001085	0.001712				52.987556	-88.101896	173.473828
00655	2457674	9.824663	0.258422	0.193667				-0.006400	0.001214	-0.002553				52.984106	-88.102283	173.477111
00656	2457724	9.809919	0.245406	0.178483				-0.004103	0.002453	-0.002070				52.976758	-88.101596	173.483089
00657	2457774	9.821242	0.245306	0.195316				0.000324	-0.000769	-0.001941				52.986088	-88.101562	173.476338
00658	2457824	9.802460	0.259953	0.199729				-0.004768	-0.001828	-0.001416				53.004761	-88.101659	173.456194
00659	2457874	9.808634	0.252398	0.179271				-0.003896	-0.003199	-0.000434				53.021817	-88.102643	173.440319
00660	2457924	9.815871	0.244514	0.180160				-0.003123	0.002956	-0.000241				53.001814	-88.102122	173.459388
00661	2457974	9.797224	0.243801	0.193804				-0.005248	0.000370	0.000297				52.990226	-88.103074	173.471353
00662	2458024	9.820530	0.257409	0.210466				-0.002644	0.000762	-0.002310				52.996554	-88.102120	173.464537
00663	2458074	9.821183	0.244910	0.206117				-0.002976	-0.000019	-0.003593				53.007386	-88.102413	173.454606
00664	2458124	9.813006	0.254635	0.199936				-0.003354	-0.001158	-0.002799				53.028901	-88.101947	173.432141
00665	2458174	9.800635	0.257183	0.192604				-0.003613	0.000168	-0.000770				53.024653	-88.102826	173.437112
00666	2458224	9.813685	0.243639	0.190257				-0.001938	0.005013	-0.002319				53.001539	-88.101315	173.459792
00667	2458274	9.807837	0.258638	0.181097				-0.002814	0.002150	-0.002846				52.994883	-88.100362	173.468364
00668	2458324	9.805337	0.245683	0.185862				-0.004829	0.001345	0.000685				52.980830	-88.100294	173.481041
00669	2458374	9.814514	0.257322	0.181224				-0.005228	-0.001707	-0.003151				53.000938	-88.100608	173.461472
00670	2458424	9.811487	0.264154	0.195224				-0.005601	0.002300	-0.001361				52.990810	-88.099810	173.470086
00671	2458474	9.808058	0.261574	0.177177				-0.004428	-0.002568	-0.002356				53.012847	-88.100608	173.448693
00672	2458524	9.811880	0.252281	0.193895				-0.001302	-0.003057	0.000007				53.033520	-88.100957	173.427791
00673	2458574	9.827098	0.243025	0.177883				-0.005147	0.001016	-0.000764				53.022231	-88.101864	173.439241
00674	2458624	9.828715	0.251379	0.207869				-0.001741	0.003885	-0.001813				53.004424	-88.100758	173.456571
00675	2458674	9.812081	0.248615	0.207027				-0.004606	0.003150	-0.003994				52.996235	-88.099887	173.465667
00676	2458724	9.816599	0.253270	0.198711				-0.003863	-0.001228	-0.001676				53.012217	-88.099878	173.448416
00677	2458774	9.806081	0.245450	0.183267				-0.002179	0.000516	-0.000995				53.006732	-88.100268	173.455402
00678	2458824	9.805711	0.257179	0.180292				-0.004578	-0.002857	-0.001264				53.031652	-88.100479	173.429145
00679	2458874	9.825899	0.244969	0.174250				-0.003491	0.000300	-0.000834				53.026894	-88.101351	173.434651
00680	2458924	9.829250	0.255437	0.190144				-0.004039	0.003553	-0.000526				53.003767	-88.100746	173.456517
00681	2458974	9.829962	0.260093	0.180667				-0.004879	-0.001404	-0.000939				53.010634	-88.101261	173.450567
00682	2459024	9.816703	0.248459	0.192462				-0.003040	-0.002123	-0.004731				53.048940	-88.100580	173.411331
00683	2459074	9.825421	0.249407	0.204437				-0.001720	0.001404	0.001477				53.025054	-88.101488	173.436745
00684	2459124	9.807697	0.257093	0.206287				-0.005530	0.001909	-0.003256				53.027316	-88.100438	173.432880
00685	2459174	9.797858	0.266812	0.198314				-0.006413	-0.002602	-0.002959				53.052259	-88.101118	173.407997
00686	2459224	9.806905	0.267186	0.197791				-0.008383	-0.001315	-0.004005				53.079621	-88.100416	173.378227
00687	2459274	9.818849	0.254761	0.179131				-0.004352	0.001023	-0.001888				53.075021	-88.100254	173.383917
00688	2459324	9.824308	0.252185	0.187292				-0.004209	0.002674	-0.004028				53.076139	-88.098841	173.381612
00689	2459374	9.804604	0.251771	0.177813				-0.002702	0.003871	0.000081				53.042032	-88.098796	173.417210
00690	2459424	9.824860	0.246911	0.186686				-0.002627	-0.000853	-0.002736				53.061224	-88.098334	173.397238
00691	2459474	9.826348	0.238326	0.192184				-0.005914	-0.002272	-0.002445				53.081738	-88.099111	173.376912
00692	2459524	9.802003	0.267253	0.181822				-0.005013	-0.001083	0.000060				53.087413	-88.099430	173.369692
00693	2459574	9.817839	0.236898	0.184936				-0.001524	0.002082	-0.000796				53.070220	-88.099696	173.388453
00694	2459624	9.795746	0.249482	0.189485				-0.008219	-0.001606	-0.006831				53.114298	-88.098342	173.342048
00695	2459674	9.807095	0.238309	0.187319				-0.005791	0.000326	0.000138				53.103334	-88.099438	173.353155
00696	2459724	9.811400	0.250006	0.199089				-0.002511	0.004171	0.002489				53.061003	-88.099114	173.394954
00697	2459774	9.802843	0.272186	0.190872				-0.002600	-0.000689	-0.003373				53.076105	-88.098943	173.381429
00698	2459824	9.798581	0.245409	0.201469				0.003098	-0.001433	-0.002590				53.100432	-88.098370	173.358181
00699	2459874	9.800243	0.250955	0.191175				-0.003534	0.000899	0.000978				53.081500	-88.099636	173.377780
00700	2459924	9.792530	0.257683	0.192870				-0.000463	0.000019	0.002319				53.069030	-88.100262	173.390031
00701	2459974	9.804206	0.263551	0.180612				-0.004298	0.001792	-0.000484				53.051900	-88.100528	173.408043
00702	2460024	9.803698	0.245825	0.183051				-0.002385	0.001591	-0.004926				53.065475	-88.099412	173.393509
00703	2460074	9.799141	0.264143	0.189077				-0.004791	0.002775	-0.004748				53.063922	-88.098021	173.396304
00704	2460124	9.800674	0.271679	0.195719				0.001630	0.000303	-0.004330				53.084801	-88.096760	173.376078
00705	2460174	9.806527	0.262469	0.191593				-0.002599	-0.000636	-0.002402				53.094303	-88.097602	173.367408
00706	2460224	9.827610	0.242201	0.173066				-0.005282	0.002088	-0.003598				53.097152	-88.096519	173.362950
00707	2460274	9.810157	0.253381	0.202135				-0.006164	0.000686	-0.002346				53.095861	-88.096593	173.364549
00708	2460324	9.788546	0.273226	0.189790				-0.003729	-0.001173	-0.000919				53.107939	-88.096190	173.351762
00709	2460374	9.811219	0.266320	0.195441				-0.002059	-0.000496	-0.002365				53.116721	-88.096462	173.344540
00710	2460424	9.808760	0.257151	0.188518				-0.002303	0.001241	-0.002488				53.120500	-88.095528	173.340250
00711	2460474	9.809016	0.254724	0.189647				-0.005689	-0.000013	-0.000458				53.114656	-88.096986	173.345754
00712	2460524	9.817009	0.266764	0.181980				-0.001056	-0.000481	-0.000860				53.121993	-88.096942	173.338046
00713	2460574	9.808274	0.250912	0.202197				-0.003295	0.002422	0.000890				53.093614	-88.097465	173.367576
00714	2460624	9.818713	0.257995	0.193240				-0.006804	-0.000157	0.000917				53.088079	-88.097745	173.371129
00715	2460674	9.832339	0.232137	0.199926				-0.004432	0.001620	-0.002610				53.082990	-88.097256	173.377355
00716	2460724	9.823795	0.254966	0.186780				-0.002884	0.002526	-0.001708				53.073377	-88.096554	173.386039
00717	2460774	9.814957	0.252318	0.196630				0.001216	0.001498	-0.001787				53.066531	-88.096674	173.395262
00718	2460824	9.820528	0.250009	0.186363				-0.004769	0.003234	-0.002664				53.056818	-88.095418	173.403694
00719	2460874	9.827217	0.247095	0.187714				-0.003392	0.000321	-0.000244				53.048476	-88.096149	173.413045
00720	2460924	9.819336	0.251000	0.184419				-0.002339	0.003175	-0.005007				53.051873	-88.094396	173.409035
00721	2460974	9.811267	0.267151	0.187260				-0.003578	-0.000079	-0.003321				53.062043	-88.094519	173.399821
00722	2461024	9.799616	0.261110	0.194848				-0.004951	0.003269	0.000904				53.033525	-88.094206	173.426899
00723	2461074	9.807369	0.256734	0.183260				-0.006477	0.001553	-0.002570				53.028139	-88.094056	173.432526
00724	2461124	9.824588	0.266258	0.188822				-0.005049	-0.002072	-0.001152				53.046732	-88.094410	173.412233
00725	2461174	9.813704	0.244977	0.183383				-0.004365	-0.001644	-0.004230				53.072772	-88.094021	173.387419
00726	2461224	9.815905	0.248351	0.206143				-0.002430	0.000343	0.000237				53.068586	-88.093931	173.390991
00727	2461274	9.823383	0.225385	0.197538				-0.006185	-0.000574	-0.000180				53.065464	-88.094685	173.394455
00728	2461324	9.816621	0.258601	0.185112				-0.004662	0.001512	-0.006746				53.088438	-88.093095	173.369936
00729	2461374	9.813470	0.243408	0.186097				-0.002768	0.001946	-0.000587				53.071041	-88.093313	173.388691
00730	2461424	9.813536	0.263837	0.172937				-0.006244	0.001333	-0.001642				53.068596	-88.092696	173.389359
00731	2461474	9.819834	0.250498	0.182429				-0.005327	0.002479	-0.003494				53.061674	-88.092426	173.396630
00732	2461524	9.794865	0.251934	0.173882				-0.003251	-0.003304	-0.002024				53.093828	-88.092490	173.363555
00733	2461574	9.824553	0.255742	0.177732				-0.003932	-0.002889	-0.000032				53.106429	-88.093942	173.351700
00734	2461624	9.821936	0.253498	0.182041				-0.005573	0.002577	0.000773				53.083164	-88.093619	173.373430
00735	2461674	9.794348	0.263248	0.196299				-0.003252	0.001031	-0.001263				53.075507	-88.093571	173.382547
00736	2461724	9.804095	0.248038	0.190244				-0.003089	0.001708	-0.003279				53.079796	-88.092493	173.377402
00737	2461774	9.793562	0.253602	0.187616				-0.003095	0.003074	-0.001091				53.056807	-88.092970	173.401134
00738	2461824	9.829854	0.246506	0.187099				-0.002628	-0.003874	-0.002740				53.096613	-88.093215	173.360359
00739	2461874	9.788324	0.257939	0.179330				-0.003566	0.003773	-0.000834				53.068132	-88.092716	173.390273
00740	2461924	9.831399	0.237269	0.186960				-0.001258	0.000647	-0.001946				53.073215	-88.092087	173.384894
00741	2461974	9.830711	0.251270	0.192865				-0.002351	-0.001921	0.003368				53.062570	-88.093998	173.396882
00742	2462024	9.813615	0.241084	0.166943				-0.004843	0.001521	0.000309				53.049036	-88.094079	173.408783
00743	2462074	9.812782	0.249959	0.207587				-0.005078	-0.001133	-0.000918				53.053410	-88.095119	173.404746
00744	2462124	9.818539	0.264717	0.170955				-0.003726	0.000370	-0.005087				53.076142	-88.093770	173.381035
00745	2462174	9.809640	0.256411	0.200971				-0.002714	0.001107	-0.002162				53.073002	-88.093514	173.385783
00746	2462224	9.816280	0.260420	0.197774				-0.003315	-0.000460	-0.003326				53.092272	-88.092908	173.365476
00747	2462274	9.803979	0.275452	0.192772				-0.002804	-0.001124	-0.001594				53.100972	-88.093582	173.357964
00748	2462324	9.825436	0.257253	0.186629				-0.008147	-0.004513	0.000258				53.128454	-88.094315	173.328224
00749	2462374	9.800100	0.265632	0.184932				-0.008090	0.001751	-0.002304				53.119650	-88.094474	173.336541
00750	2462424	9.793581	0.251415	0.190022				-0.006236	0.000981	-0.001448				53.118889	-88.093615	173.335845
00751	2462474	9.818874	0.244479	0.196417				-0.004664	0.003176	-0.000447				53.091465	-88.093905	173.363782
00752	2462524	9.801287	0.247336	0.184526				-0.003193	0.002033	-0.001995				53.086760	-88.093250	173.367435
00753	2462574	9.812296	0.256292	0.196187				-0.005090	0.001197	-0.001264				53.076871	-88.093412	173.377999
00754	2462624	9.839516	0.252239	0.192342				-0.004207	-0.001410	-0.001824				53.094706	-88.093309	173.358889
00755	2462674	9.807857	0.272817	0.186533				-0.001483	-0.001460	-0.002437				53.111152	-88.093778	173.344054
00756	2462724	9.805605	0.248199	0.178750				-0.006921	0.002453	-0.002050				53.102771	-88.092960	173.350392
00757	2462774	9.821671	0.269963	0.192095				-0.004413	0.002339	-0.000871				53.083829	-88.093059	173.370177
00758	2462824	9.817386	0.255595	0.182943				-0.006481	-0.000285	-0.000557				53.087108	-88.092928	173.365094
00759	2462874	9.804271	0.245140	0.207220				-0.002480	0.000623	-0.003132				53.092047	-88.092586	173.361767
00760	2462924	9.808373	0.273112	0.179927				-0.006852	0.003589	-0.000117				53.065907	-88.091937	173.385958
00761	2462974	9.802756	0.265998	0.178202				-0.006618	0.000743	-0.003307				53.069429	-88.091876	173.382559
00762	2463024	9.813086	0.249863	0.196287				-0.007346	-0.002303	0.001103				53.077520	-88.092486	173.372396
00763	2463074	9.821167	0.244126	0.210707				-0.003988	0.000761	-0.001876				53.074251	-88.093026	173.376272
00764	2463124	9.812099	0.272868	0.195036				-0.004738	0.003696	0.001770				53.038328	-88.092750	173.410903
00765	2463174	9.801262	0.263105	0.195715				-0.003054	0.001519	-0.003184				53.037059	-88.092696	173.413216
00766	2463224	9.807650	0.255398	0.179073				-0.001879	-0.001179	-0.003008				53.060271	-88.092049	173.389611
00767	2463274	9.821492	0.259324	0.203653				-0.002147	0.003808	0.001215				53.021352	-88.092205	173.430170
00768	2463324	9.827772	0.261624	0.184295				-0.003759	-0.000268	-0.000276				53.023767	-88.092040	173.426815
00769	2463374	9.825783	0.249119	0.184340				-0.006974	-0.000105	-0.003219				53.032705	-88.092541	173.417494
00770	2463424	9.811086	0.249517	0.173915				-0.003292	0.001161	-0.000685				53.027049	-88.092354	173.422042
00771	2463474	9.820980	0.238293	0.175423				-0.003734	-0.000404	-0.003806				53.042375	-88.092167	173.407823
00772	2463524	9.808325	0.245440	0.205052				-0.003383	0.000095	-0.000050				53.041080	-88.092133	173.408159
00773	2463574	9.803279	0.260680	0.182247				-0.007951	-0.000667	-0.002383				53.049780	-88.092460	173.399251
00774	2463624	9.817585	0.270897	0.196908				-0.002049	0.002307	-0.004244				53.055154	-88.091115	173.393257
00775	2463674	9.813878	0.251037	0.180668				-0.000608	-0.003702	0.000434				53.071853	-88.092486	173.378559
00776	2463724	9.819204	0.272200	0.201883				-0.005350	0.002418	-0.000257				53.055230	-88.091895	173.393766
00777	2463774	9.814754	0.253419	0.188723				-0.004241	0.000653	-0.003284				53.059694	-88.092245	173.389720
00778	2463824	9.805450	0.244904	0.208424				-0.004032	0.001474	0.000247				53.047313	-88.091855	173.401129
00779	2463874	9.799644	0.260469	0.191649				-0.003076	-0.000583	-0.000279				53.045657	-88.092390	173.404185
00780	2463924	9.805906	0.258728	0.184412				-0.003272	-0.000482	0.000075				53.047552	-88.092491	173.401345
00781	2463974	9.798637	0.267478	0.186900				-0.002057	0.002505	-0.003283				53.040753	-88.092110	173.409581
00782	2464024	9.797316	0.250829	0.202446				-0.001682	-0.000037	-0.001630				53.048949	-88.091776	173.400864
00783	2464074	9.804511	0.268012	0.198561				-0.004182	0.000083	0.000371				53.038497	-88.092929	173.411871
00784	2464124	9.802087	0.272113	0.197310				-0.001626	-0.000848	-0.001726				53.052663	-88.092827	173.397095
00785	2464174	9.804016	0.253886	0.191110				-0.002298	-0.002056	-0.000963				53.065503	-88.093254	173.386067
00786	2464224	9.822780	0.236551	0.197330				-0.007955	0.000593	-0.002413				53.071401	-88.092541	173.377937
00787	2464274	9.821367	0.250669	0.203057				-0.006159	-0.000804	-0.004347				53.091175	-88.092989	173.357935
00788	2464324	9.813516	0.238265	0.188199				-0.007210	-0.001758	-0.002939				53.116457	-88.092548	173.330641
00789	2464374	9.803861	0.271156	0.182541				-0.006745	0.000808	-0.003017				53.118716	-88.092057	173.328884
00790	2464424	9.812353	0.236940	0.187034				-0.001509	0.000713	0.001615				53.105123	-88.092108	173.342234
00791	2464474	9.831947	0.244656	0.199437				-0.001547	0.003679	-0.002538				53.085477	-88.092252	173.362989
00792	2464524	9.829996	0.250930	0.194687				0.002529	0.003295	-0.003931				53.083752	-88.091033	173.365209
00793	2464574	9.821613	0.253171	0.198014				-0.002409	0.000231	-0.004477				53.098932	-88.090176	173.351904
00794	2464624	9.801669	0.259342	0.174863				-0.002801	0.000913	-0.000527				53.094720	-88.089736	173.355462
00795	2464674	9.809189	0.260031	0.189960				-0.003351	0.000294	0.001489				53.077724	-88.091040	173.373348
00796	2464724	9.807107	0.242017	0.178028				-0.010237	0.003112	-0.001201				53.059821	-88.090075	173.388476
00797	2464774	9.839980	0.260266	0.178044				-0.004326	0.000463	-0.001235				53.055231	-88.090831	173.393565
00798	2464824	9.833527	0.240834	0.182600				-0.003589	0.000644	0.001975				53.039439	-88.091370	173.408154
00799	2464874	9.816225	0.244893	0.198722				-0.003666	-0.002334	-0.000032				53.049033	-88.091721	173.400332
00800	2464924	9.801689	0.247938	0.194031				-0.003825	-0.000142	-0.000563				53.051786	-88.091580	173.396518
00801	2464974	9.838050	0.259248	0.183819				-0.001223	0.002454	-0.002676				53.041832	-88.091650	173.407846
00802	2465024	9.808864	0.248119	0.189381				-0.002472	-0.001674	-0.002145				53.063604	-88.091681	173.385135
00803	2465074	9.793056	0.275252	0.187382				-0.001842	0.000925	-0.001748				53.059324	-88.092001	173.390832
00804	2465124	9.811458	0.244630	0.200726				-0.001152	0.001293	-0.002293				53.061977	-88.091404	173.387706
00805	2465174	9.818910	0.259427	0.198277				-0.002898	0.000943	-0.000211				53.049643	-88.091840	173.401376
00806	2465224	9.831017	0.242727	0.199671				-0.001929	0.002640	-0.001680				53.039709	-88.091148	173.410631
00807	2465274	9.799073	0.254528	0.181539				-0.004899	-0.000972	-0.003999				53.059262	-88.090970	173.391910
00808	2465324	9.820591	0.246333	0.184126				-0.002550	0.000114	0.000907				53.052888	-88.091271	173.397447
00809	2465374	9.811197	0.267152	0.196936				0.001424	0.002286	0.002006				53.021350	-88.092017	173.431531
00810	2465424	9.800081	0.260874	0.158131				-0.002813	0.003003	-0.004528				53.023423	-88.090346	173.428766
00811	2465474	9.821517	0.248066	0.185333				-0.004239	0.000724	-0.001878				53.020933	-88.090341	173.432280
00812	2465524	9.804382	0.271347	0.174301				-0.005340	-0.001845	0.001806				53.022652	-88.091044	173.429053
00813	2465574	9.806955	0.249975	0.185625				-0.004837	-0.000346	0.001431				53.009581	-88.092762	173.442276
00814	2465624	9.805762	0.259131	0.169141				-0.004716	0.001388	-0.004243				53.020662	-88.091683	173.429720
00815	2465674	9.830848	0.248241	0.177338				-0.004028	0.000214	0.000115				53.011230	-88.092136	173.440285
00816	2465724	9.822057	0.253474	0.202339				-0.007313	-0.000265	0.000180				53.010019	-88.092208	173.439418
00817	2465774	9.802927	0.270443	0.179586				0.000915	-0.002325	-0.001806				53.029378	-88.092862	173.422438
00818	2465824	9.799166	0.263407	0.187314				-0.003663	0.000672	-0.001936				53.033665	-88.092382	173.417014
00819	2465874	9.810895	0.255272	0.194290				-0.002100	0.002386	0.002495				52.997371	-88.093342	173.454742
00820	2465924	9.812561	0.265207	0.173582				-0.003324	-0.001004	-0.000921				53.008182	-88.093253	173.443017
00821	2465974	9.828060	0.255427	0.191108				-0.004060	0.003146	-0.002570				52.992374	-88.092843	173.459752
00822	2466024	9.795878	0.261191	0.184106				-0.001954	0.002650	0.001211				52.967348	-88.092666	173.484225
00823	2466074	9.815011	0.228554	0.198087				-0.003904	0.001149	-0.001679				52.961090	-88.092535	173.491739
00824	2466124	9.815723	0.247038	0.198394				-0.004922	0.002234	0.000380				52.942290	-88.092470	173.508923
00825	2466174	9.814425	0.245912	0.180812				-0.007328	0.001251	-0.001703				52.934127	-88.092549	173.517128
00826	2466224	9.821299	0.261238	0.193228				-0.002713	0.001909	-0.003892				52.940495	-88.091329	173.509978
00827	2466274	9.820267	0.266194	0.195866				-0.006424	-0.000191	-0.002067				52.944469	-88.091760	173.506127
00828	2466324	9.802612	0.252311	0.191457				-0.004552	0.001226	-0.005300				52.961963	-88.090495	173.487169
00829	2466374	9.816257	0.249723	0.184328				-0.004614	-0.000774	-0.002584				52.973440	-88.090320	173.476884
00830	2466424	9.823220	0.251461	0.210132				-0.001261	-0.002392	-0.000811				52.993680	-88.090399	173.456407
00831	2466474	9.804564	0.279824	0.203032				-0.004945	-0.003068	0.001027				53.001507	-88.092519	173.448669
00832	2466524	9.809015	0.252752	0.194498				-0.003910	0.000405	-0.002649				53.011303	-88.092015	173.437592
00833	2466574	9.811306	0.258703	0.196116				-0.002936	-0.001002	-0.001308				53.017605	-88.092689	173.432493
00834	2466624	9.834093	0.252496	0.181368				-0.003953	-0.000139	0.000528				53.014409	-88.092990	173.434406
00835	2466674	9.805523	0.271863	0.181539				-0.004767	-0.001098	-0.003420				53.032682	-88.092715	173.417255
00836	2466724	9.806391	0.258896	0.182477				-0.003751	-0.000796	-0.003196				53.053731	-88.091987	173.395247
00837	2466774	9.810080	0.255703	0.170496				-0.006057	-0.001699	-0.001946				53.067357	-88.092651	173.381837
00838	2466824	9.819426	0.266873	0.176187				-0.005174	-0.002138	-0.000379				53.082415	-88.093136	173.365105
00839	2466874	9.801923	0.272340	0.183493				-0.005831	0.000203	-0.002899				53.088214	-88.092940	173.359928
00840	2466924	9.826443	0.237341	0.180019				-0.001929	0.000306	-0.004286				53.107550	-88.092025	173.339912
00841	2466974	9.812571	0.260062	0.182527				-0.002299	0.003343	-0.001419				53.084856	-88.092107	173.363769
00842	2467024	9.819016	0.253136	0.193603				-0.001434	0.004162	-0.002409				53.068300	-88.090773	173.379988
00843	2467074	9.795214	0.279207	0.177585				-0.001272	0.002971	-0.003568				53.059865	-88.090244	173.390084
00844	2467124	9.815997	0.245002	0.197853				-0.007395	0.002085	-0.002694				53.057282	-88.089253	173.390562
00845	2467174	9.814694	0.232989	0.201259				-0.003282	0.003038	0.000539				53.026436	-88.089628	173.422528
00846	2467224	9.809145	0.261482	0.194030				-0.002822	0.001560	0.000532				53.011929	-88.089524	173.436196
00847	2467274	9.811175	0.257524	0.182224				-0.001007	0.000683	-0.002336				53.013060	-88.089697	173.436795
00848	2467324	9.816083	0.258648	0.194690				-0.004011	0.001237	-0.005978				53.034652	-88.087963	173.414186
00849	2467374	9.836535	0.229202	0.181421				-0.001313	0.000995	-0.005475				53.049237	-88.087204	173.401356
00850	2467424	9.806383	0.265807	0.208621				-0.002969	0.001002	-0.001972				53.051636	-88.086663	173.398032
00851	2467474	9.814770	0.252933	0.187952				-0.002183	-0.000630	-0.002272				53.060783	-88.086990	173.390342
00852	2467524	9.819442	0.254148	0.198767				-0.005718	0.002027	0.000287				53.043633	-88.087007	173.405591
00853	2467574	9.817360	0.253624	0.191293				-0.003452	0.000024	-0.001654				53.045035	-88.087008	173.405656
00854	2467624	9.819379	0.256842	0.166150				0.000415	0.001551	-0.000277				53.036158	-88.086455	173.414864
00855	2467674	9.824106	0.249746	0.186794				-0.002734	0.000683	-0.002266				53.035832	-88.087080	173.416036
00856	2467724	9.808438	0.266225	0.183970				-0.004064	0.003278	-0.002665				53.025959	-88.085790	173.424853
00857	2467774	9.808481	0.264841	0.178781				-0.007152	0.004908	-0.000622				52.987140	-88.085620	173.463692
00858	2467824	9.824780	0.251202	0.189269				-0.000175	0.005492	0.004144				52.928091	-88.085524	173.522808
00859	2467874	9.793647	0.278989	0.200992				-0.002449	-0.001281	-0.000443				52.932271	-88.086347	173.520025
00860	2467924	9.804216	0.249976	0.206126				-0.001612	-0.003730	-0.004919				52.982846	-88.085796	173.469026
00861	2467974	9.825238	0.234842	0.186469				-0.003434	-0.000589	-0.002238				52.991185	-88.086601	173.461343
00862	2468024	9.799312	0.261876	0.205067				-0.007070	0.001261	0.001314				52.973832	-88.086677	173.476695
00863	2468074	9.824537	0.238950	0.175849				-0.004922	-0.002066	-0.000156				52.981008	-88.087813	173.470087
00864	2468124	9.811027	0.265108	0.190656				-0.002024	0.000732	-0.000051				52.975884	-88.087419	173.474862
00865	2468174	9.809080	0.248728	0.192364				-0.004531	0.002982	-0.001121				52.953933	-88.087493	173.497498
00866	2468224	9.820216	0.253187	0.192043				-0.007464	0.001179	-0.001930				52.953820	-88.086764	173.495554
00867	2468274	9.808952	0.250767	0.208175				-0.001827	0.000774	0.002322				52.929330	-88.088302	173.521241
00868	2468324	9.797908	0.264943	0.194032				-0.004048	-0.002082	0.001158				52.936517	-88.088931	173.512888
00869	2468374	9.806345	0.259535	0.189172				-0.002205	0.000475	0.001235				52.919792	-88.090020	173.530895
00870	2468424	9.812994	0.261425	0.187365				-0.001104	0.004115	0.000124				52.890627	-88.089351	173.559752
00871	2468474	9.816434	0.256099	0.181011				-0.006497	0.000069	-0.000750				52.886259	-88.089675	173.564513
00872	2468524	9.826283	0.246196	0.187887				-0.004234	0.000370	-0.002227				52.893855	-88.089178	173.555626
00873	2468574	9.829773	0.255012	0.182414				-0.003011	0.000657	0.002615				52.868543	-88.090497	173.582095
00874	2468624	9.790702	0.247728	0.200013				-0.003679	-0.002016	-0.002274				52.893094	-88.090339	173.556460
00875	2468674	9.810085	0.248538	0.182839				-0.001071	0.002478	-0.006622				52.903789	-88.089201	173.547486
00876	2468724	9.830654	0.242087	0.182221				-0.003271	0.003618	-0.001926				52.887890	-88.088322	173.562282
00877	2468774	9.815637	0.242924	0.182706				-0.006328	-0.000484	-0.005405				52.911275	-88.087751	173.539284
00878	2468824	9.824532	0.231602	0.192995				-0.003012	0.002390	-0.002864				52.908808	-88.086818	173.540768
00879	2468874	9.818529	0.264238	0.211151				-0.002939	-0.001971	-0.000737				52.919246	-88.087202	173.532058
00880	2468924	9.798802	0.248790	0.197867				-0.006039	-0.000148	-0.001712				52.927302	-88.086747	173.522344
00881	2468974	9.800289	0.258520	0.167848				-0.002830	-0.002618	-0.003111				52.953894	-88.087655	173.496592
00882	2469024	9.825568	0.254974	0.169982				-0.007163	0.001094	-0.000326				52.946163	-88.087210	173.502443
00883	2469074	9.814056	0.269216	0.192708				-0.005362	-0.001270	-0.001173				52.953420	-88.087747	173.495847
00884	2469124	9.800223	0.267450	0.201527				-0.005849	0.003254	-0.000507				52.932059	-88.087110	173.515507
00885	2469174	9.810350	0.255054	0.205041				-0.002550	-0.000224	-0.004194				52.947969	-88.087113	173.500756
00886	2469224	9.813548	0.234071	0.192376				-0.002721	0.003470	-0.001128				52.929198	-88.086278	173.518745
00887	2469274	9.813138	0.252728	0.181994				-0.001521	-0.000165	-0.000767				52.927549	-88.087114	173.521808
00888	2469324	9.802170	0.266613	0.195010				-0.000779	0.000661	-0.000536				52.925529	-88.087068	173.523426
00889	2469374	9.814678	0.240353	0.189142				-0.002984	-0.000843	-0.003390				52.941832	-88.087170	173.508358
00890	2469424	9.810779	0.264872	0.192779				-0.005329	-0.001267	-0.001144				52.954770	-88.087242	173.493781
00891	2469474	9.807832	0.272955	0.190141				-0.003530	-0.000522	-0.000758				52.955166	-88.087379	173.494908
00892	2469524	9.811865	0.252501	0.196170				-0.005801	0.001670	0.000191				52.941251	-88.087014	173.507269
00893	2469574	9.818709	0.235415	0.201895				-0.001414	0.001615	-0.000785				52.927277	-88.087559	173.522711
00894	2469624	9.826257	0.246876	0.191493				-0.003871	0.001051	-0.003092				52.934766	-88.086927	173.513870
00895	2469674	9.830276	0.233961	0.183156				-0.004388	0.002274	-0.001867				52.921557	-88.086289	173.528380
00896	2469724	9.831161	0.236546	0.188131				-0.006783	-0.001200	-0.003196				52.944251	-88.085858	173.503641
00897	2469774	9.822935	0.250561	0.180319				-0.003862	-0.000275	-0.002620				52.952035	-88.086359	173.496523
00898	2469824	9.822830	0.236620	0.188021				-0.003177	0.002654	-0.001515				52.940638	-88.085766	173.506821
00899	2469874	9.831731	0.234275	0.194322				-0.004295	0.000429	-0.001622				52.938521	-88.085916	173.509950
00900	2469924	9.815225	0.244362	0.195296				-0.001568	-0.000658	-0.001569				52.950714	-88.085750	173.497230
00901	2469974	9.799138	0.257289	0.190579				-0.007235	-0.002921	-0.001121				52.967806	-88.086935	173.479957
00902	2470024	9.811919	0.261827	0.194060				-0.005424	-0.002272	0.000674				52.978243	-88.087709	173.467744
00903	2470074	9.824302	0.254062	0.171561				0.000590	0.002163	-0.000023				52.957545	-88.087378	173.491358
00904	2470124	9.817703	0.246790	0.175232				-0.001919	0.003579	0.001691				52.923552	-88.087274	173.524708
00905	2470174	9.812024	0.263944	0.172795				-0.001998	0.000630	-0.002778				52.927166	-88.087125	173.522738
00906	2470224	9.813643	0.239407	0.191316				-0.004859	0.001033	-0.000208				52.920109	-88.086787	173.528511
00907	2470274	9.815545	0.240627	0.188812				-0.002814	-0.000735	0.000678				52.913638	-88.088511	173.535621
00908	2470324	9.798527	0.247059	0.195687				0.000082	0.002930	-0.002070				52.904203	-88.087611	173.545009
00909	2470374	9.804472	0.250221	0.189440				-0.004836	0.002490	-0.000968				52.884998	-88.087314	173.565271
00910	2470424	9.829663	0.255887	0.186073				-0.006311	-0.001645	-0.000633				52.897405	-88.087506	173.550992
00911	2470474	9.842231	0.240739	0.187628				-0.004005	0.004607	-0.000643				52.861774	-88.087475	173.587443
00912	2470524	9.809696	0.267854	0.194879				-0.005165	0.000471	-0.003257				52.873913	-88.086550	173.573911
00913	2470574	9.817039	0.246769	0.205106				-0.002424	-0.000830	0.000451				52.870241	-88.087681	173.578857
00914	2470624	9.834417	0.237863	0.184811				-0.007681	-0.002868	-0.000671				52.891191	-88.087793	173.555905
00915	2470674	9.830476	0.260419	0.200741				-0.002233	0.001985	-0.002488				52.883369	-88.087874	173.564961
00916	2470724	9.813746	0.269049	0.191658				-0.010008	-0.001452	-0.002547				52.903728	-88.087587	173.541690
00917	2470774	9.803088	0.262477	0.196947				-0.004398	-0.002353	-0.001252				52.918822	-88.088185	173.527610
00918	2470824	9.820157	0.268483	0.156928				-0.000160	-0.000629	-0.000292				52.924221	-88.088489	173.521917
00919	2470874	9.819581	0.251692	0.169419				-0.000021	0.000115	-0.001217				52.923427	-88.088922	173.524787
00920	2470924	9.808633	0.261972	0.186035				0.000402	0.000865	-0.000571				52.920674	-88.088487	173.527790
00921	2470974	9.805545	0.261694	0.186173				-0.004874	-0.001359	-0.000250				52.923635	-88.089324	173.525599
00922	2471024	9.818838	0.249168	0.179667				-0.000399	-0.000217	-0.002022				52.935192	-88.089073	173.513760
00923	2471074	9.821438	0.247734	0.184244				-0.003996	-0.001055	-0.001763				52.944399	-88.089597	173.505493
00924	2471124	9.810977	0.249129	0.179295				-0.000369	0.000719	-0.003782				52.958902	-88.088723	173.490774
00925	2471174	9.817971	0.234425	0.194478				-0.005265	0.003873	-0.000510				52.926741	-88.088533	173.523644
00926	2471224	9.821674	0.258314	0.202413				-0.003938	-0.000828	-0.001919				52.941159	-88.088265	173.508064
00927	2471274	9.809557	0.241183	0.193455				-0.003619	0.000542	0.001679				52.921548	-88.089376	173.528664
00928	2471324	9.822840	0.265772	0.192125				-0.004079	-0.001213	0.001252				52.922385	-88.089858	173.526674
00929	2471374	9.800579	0.251635	0.200668				-0.001926	0.001702	0.000044				52.903295	-88.090448	173.547184
00930	2471424	9.803519	0.272364	0.183317				-0.000440	-0.001960	-0.001065				52.922209	-88.090478	173.528199
00931	2471474	9.822582	0.244769	0.197902				-0.003238	-0.000286	0.003020				52.901051	-88.091855	173.550600
00932	2471524	9.803090	0.251823	0.179116				-0.002135	0.002146	-0.001135				52.891559	-88.091198	173.559513
00933	2471574	9.817056	0.256270	0.183726				-0.005546	-0.000861	-0.004641				52.913430	-88.091180	173.537965
00934	2471624	9.794456	0.251714	0.189153				-0.002316	0.001051	0.001616				52.897215	-88.091409	173.553494
00935	2471674	9.819110	0.244448	0.183776				-0.005307	0.000757	-0.003412				52.901513	-88.091784	173.549252
00936	2471724	9.807177	0.245321	0.187023				-0.004607	0.003366	-0.001157				52.882997	-88.090922	173.566472
00937	2471774	9.807735	0.257558	0.186012				-0.002937	0.000868	-0.004514				52.893595	-88.090134	173.557426
00938	2471824	9.823651	0.244168	0.181088				-0.000134	-0.000374	-0.000390				52.898109	-88.090334	173.552670
00939	2471874	9.826119	0.248240	0.197928				-0.002433	0.001363	-0.000761				52.885847	-88.090238	173.566708
00940	2471924	9.813215	0.243542	0.175452				-0.005202	0.001308	-0.005688				52.904924	-88.088733	173.546112
00941	2471974	9.806429	0.252973	0.175635				-0.002530	-0.002072	-0.005712				52.941326	-88.088741	173.510827
00942	2472024	9.816762	0.263206	0.178514				-0.001997	-0.000442	-0.003269				52.960713	-88.088028	173.490901
00943	2472074	9.817731	0.253366	0.196255				-0.002595	0.000330	-0.000793				52.955476	-88.088526	173.497456
00944	2472124	9.814104	0.259872	0.190900				-0.004119	-0.003226	-0.002091				52.987318	-88.088425	173.464580
00945	2472174	9.814124	0.258097	0.192166				-0.002643	-0.001059	-0.000094				52.987474	-88.089650	173.465462
00946	2472224	9.815845	0.255715	0.187114				-0.002810	-0.001201	-0.003046				53.010711	-88.089146	173.441421
00947	2472274	9.823915	0.244760	0.176823				-0.003915	0.000370	-0.001784				53.009973	-88.089505	173.443038
00948	2472324	9.816023	0.267542	0.173749				-0.001925	0.000367	-0.003394				53.024312	-88.088639	173.428160
00949	2472374	9.816606	0.230812	0.191822				-0.004664	0.003175	0.000641				52.991475	-88.089142	173.461592
00950	2472424	9.815602	0.251392	0.196486				-0.003415	0.001259	0.002293				52.970031	-88.089463	173.482059
00951	2472474	9.808566	0.257881	0.204871				-0.003114	-0.002331	-0.000550				52.981531	-88.090502	173.471728
00952	2472524	9.811264	0.263750	0.179937				-0.004598	-0.002159	-0.000351				52.996970	-88.090569	173.455160
00953	2472574	9.816363	0.238750	0.176609				-0.003101	-0.000876	-0.001637				53.004415	-88.091091	173.448903
00954	2472624	9.830737	0.248801	0.180841				-0.005106	-0.001327	-0.000928				53.016945	-88.090976	173.435030
00955	2472674	9.822389	0.250903	0.179725				-0.002231	0.001787	-0.003479				53.015518	-88.090864	173.437701
00956	2472724	9.822464	0.261249	0.184717				-0.005101	-0.000425	-0.001726				53.025864	-88.090551	173.425882
00957	2472774	9.809937	0.251965	0.188895				-0.004683	-0.000384	-0.000439				53.023104	-88.091150	173.429475
00958	2472824	9.830582	0.250902	0.201196				-0.005241	-0.002016	-0.001316				53.042264	-88.091226	173.408769
00959	2472874	9.803057	0.259640	0.207135				-0.003710	0.001378	-0.001332				53.032727	-88.091468	173.419300
00960	2472924	9.811607	0.254999	0.181126				-0.005277	-0.003081	-0.001897				53.062011	-88.091799	173.388268
00961	2472974	9.815578	0.261450	0.181596				-0.004378	-0.002097	-0.001701				53.077587	-88.092296	173.373699
00962	2473024	9.814184	0.260709	0.177310				-0.003522	-0.000788	-0.000700				53.085566	-88.092337	173.364648
00963	2473074	9.821574	0.259150	0.178207				-0.002961	-0.001296	-0.001702				53.095760	-88.093229	173.355380
00964	2473124	9.807677	0.264863	0.181047				-0.003622	0.003643	0.000158				53.068782	-88.092520	173.381442
00965	2473174	9.822786	0.265925	0.199261				-0.000270	-0.003084	0.001141				53.078177	-88.093717	173.374350
00966	2473224	9.823777	0.249350	0.188849				-0.004067	0.001366	-0.002132				53.078611	-88.092994	173.372745
00967	2473274	9.816916	0.270058	0.177440				-0.000706	0.003662	0.000084				53.046231	-88.093553	173.406630
00968	2473324	9.817288	0.251457	0.194308				-0.004353	-0.000440	0.001772				53.038829	-88.094023	173.412797
00969	2473374	9.835817	0.240360	0.185131				-0.003067	-0.000271	-0.004873				53.058832	-88.093630	173.394037
00970	2473424	9.804240	0.268467	0.190550				-0.003527	-0.000459	-0.000309				53.062454	-88.093684	173.389356
00971	2473474	9.805779	0.263401	0.182675				-0.003597	-0.000335	-0.001114				53.063331	-88.094172	173.389588
00972	2473524	9.803445	0.254149	0.194031				-0.004098	0.002505	-0.000553				53.047837	-88.093506	173.404014
00973	2473574	9.831107	0.236880	0.183483				-0.000910	-0.000089	-0.000161				53.042679	-88.094382	173.410885
00974	2473624	9.803472	0.264253	0.206892				-0.005317	0.000081	-0.003964				53.060791	-88.093661	173.391052
00975	2473674	9.829063	0.258189	0.202754				-0.006460	0.004239	-0.000862				53.028402	-88.093005	173.424134
00976	2473724	9.823168	0.245350	0.179726				-0.003326	0.000317	-0.000024				53.025472	-88.092886	173.426169
00977	2473774	9.827045	0.260653	0.177498				-0.002250	0.000726	-0.000183				53.014020	-88.093712	173.438841
00978	2473824	9.816761	0.255537	0.194372				-0.004392	0.000491	-0.002394				53.021478	-88.093070	173.430124
00979	2473874	9.820826	0.254739	0.193136				-0.004764	0.001805	-0.004472				53.024641	-88.092711	173.427469
00980	2473924	9.815556	0.259805	0.187925				-0.005238	0.004295	0.000872				52.988987	-88.092244	173.461563
00981	2473974	9.821482	0.266798	0.177970				-0.004482	0.000293	-0.002169				52.990631	-88.092462	173.460684
00982	2474024	9.817968	0.239376	0.186000				-0.005476	0.001050	-0.003349				52.999285	-88.091430	173.450529
00983	2474074	9.806273	0.244709	0.179742				-0.004456	-0.001640	-0.001090				53.008414	-88.092192	173.442177
00984	2474124	9.814391	0.240191	0.184576				-0.002925	0.001947	0.000914				52.989546	-88.091856	173.460399
00985	2474174	9.810820	0.260899	0.180980				-0.004532	-0.001127	-0.001118				52.995395	-88.092705	173.455197
00986	2474224	9.821906	0.234627	0.174121				-0.005424	-0.002571	-0.002375				53.024031	-88.092511	173.425082
00987	2474274	9.809866	0.235490	0.194508				-0.004459	0.003759	-0.001379				52.997211	-88.092606	173.452401
00988	2474324	9.820412	0.252433	0.188136				-0.004979	0.001802	-0.002382				52.995739	-88.091624	173.452559
00989	2474374	9.819963	0.261378	0.204118				-0.009146	-0.001274	-0.001749				53.004809	-88.092366	173.442797
00990	2474424	9.797089	0.279809	0.206939				-0.005770	0.001466	-0.003183				53.009563	-88.091372	173.436406
00991	2474474	9.812912	0.261550	0.188139				-0.003076	0.001352	-0.001750				53.001721	-88.091759	173.445169
00992	2474524	9.811888	0.240105	0.166383				-0.005949	0.001685	-0.005332				53.016217	-88.090182	173.429016
00993	2474574	9.814812	0.248281	0.177575				-0.004903	-0.000010	-0.005540				53.036985	-88.089624	173.408940
00994	2474624	9.827037	0.257001	0.185150				-0.004813	-0.001491	-0.001891				53.055646	-88.089280	173.389039
00995	2474674	9.812732	0.254586	0.193617				-0.003448	-0.000981	-0.000289				53.056515	-88.090185	173.389208
00996	2474724	9.812374	0.257064	0.207270				-0.002483	-0.001988	0.002338				53.057319	-88.091167	173.387591
00997	2474774	9.814176	0.259732	0.180912				-0.001338	-0.000747	0.000191				53.054825	-88.091900	173.391967
00998	2474824	9.805960	0.267903	0.182757				-0.003192	0.003357	0.000216				53.029848	-88.091100	173.416293
00999	2474874	9.804435	0.250887	0.194230				-0.003318	0.002128	-0.000590				53.010889	-88.091502	173.436215
01000	2474924	9.813640	0.267825	0.173855				-0.002412	0.002426	-0.005566				53.022405	-88.089841	173.423975
01001	2474974	9.827166	0.246603	0.186234				-0.007144	0.004185	-0.005060				53.011136	-88.088889	173.435110
01002	2475024	9.803488	0.253288	0.188460				-0.008564	0.000872	0.000285				53.001123	-88.088987	173.442504
01003	2475074	9.815425	0.262035	0.205166				-0.005832	0.001305	-0.002351				52.996528	-88.088684	173.447767
01004	2475124	9.796120	0.267142	0.197799				-0.002705	0.000678	-0.003518				53.009212	-88.087882	173.434190
01005	2475174	9.803535	0.251759	0.184139				-0.005922	0.001175	-0.002415				53.005445	-88.088197	173.438028
01006	2475224	9.815906	0.249675	0.190057				-0.006788	0.000413	-0.000688				53.004470	-88.087823	173.437195
01007	2475274	9.817718	0.257544	0.190208				-0.001642	-0.000627	-0.002886				53.016712	-88.087943	173.426578
01008	2475324	9.817934	0.260199	0.186885				-0.005785	-0.002218	-0.001348				53.037260	-88.088027	173.404347
01009	2475374	9.812218	0.241117	0.187209				-0.000702	0.001302	-0.000628				53.025213	-88.088383	173.418314
01010	2475424	9.816128	0.264946	0.199638				0.001137	0.001143	0.001189				53.011940	-88.088160	173.432197
01011	2475474	9.833639	0.259041	0.191122				-0.006789	-0.000647	0.000847				53.003291	-88.089500	173.440708
01012	2475524	9.807090	0.231465	0.188663				-0.003803	0.002351	0.000539				52.983093	-88.089442	173.459620
01013	2475574	9.806891	0.249134	0.185788				-0.004835	0.000483	-0.000789				52.976353	-88.089822	173.467154
01014	2475624	9.810543	0.262941	0.183616				-0.003033	0.002230	0.000119				52.959555	-88.089460	173.483094
01015	2475674	9.816174	0.254268	0.175906				-0.005506	0.001079	-0.003637				52.963007	-88.089178	173.480151
01016	2475724	9.812255	0.241676	0.180193				-0.004122	-0.002221	-0.001796				52.986203	-88.089349	173.455575
01017	2475774	9.808335	0.260233	0.161078				-0.002072	0.000886	-0.001884				52.982717	-88.089714	173.460353
01018	2475824	9.815898	0.267206	0.195073				-0.002418	-0.000284	-0.002177				52.995296	-88.089185	173.447148
01019	2475874	9.828838	0.245968	0.186276				-0.001922	-0.004195	-0.005216				53.044538	-88.089110	173.399721
01020	2475924	9.822109	0.271417	0.182808				-0.009265	-0.001436	-0.000754				53.055586	-88.089104	173.386081
01021	2475974	9.825762	0.260846	0.192852				-0.003154	0.002132	0.001144				53.027358	-88.090236	173.415033
01022	2476024	9.801833	0.264229	0.203567				-0.003004	0.002326	-0.000843				53.014765	-88.089783	173.426635
01023	2476074	9.801552	0.254824	0.190601				-0.005981	0.000212	0.001876				52.996120	-88.090663	173.445912
01024	2476124	9.808037	0.254346	0.182443				-0.002412	0.000920	0.001389				52.981962	-88.090798	173.459405
01025	2476174	9.817087	0.253947	0.182221				-0.005797	0.001639	0.002912				52.947234	-88.092271	173.494253
01026	2476224	9.810406	0.253230	0.186833				-0.003998	-0.002285	-0.002698				52.975827	-88.092158	173.464400
01027	2476274	9.806766	0.259117	0.186665				-0.003047	-0.000681	-0.002017				52.984138	-88.091949	173.457840
01028	2476324	9.807601	0.259978	0.203448				-0.000265	-0.002314	-0.000685				53.003678	-88.092033	173.438360
01029	2476374	9.806318	0.255561	0.188699				-0.006272	0.002202	-0.001961				52.990496	-88.091846	173.451919
01030	2476424	9.827217	0.258222	0.192198				-0.002960	0.000976	0.001553				52.974930	-88.092014	173.466659
01031	2476474	9.798055	0.250211	0.187948				-0.003032	0.001065	-0.001431				52.967033	-88.093071	173.475006
01032	2476524	9.801509	0.275707	0.194369				-0.004651	-0.001550	-0.000828				52.980874	-88.092948	173.460006
01033	2476574	9.807383	0.260357	0.199732				-0.001991	0.001469	-0.003583				52.982121	-88.092792	173.460107
01034	2476624	9.811529	0.256523	0.191298				-0.002783	0.003196	-0.003602				52.978008	-88.091487	173.463364
01035	2476674	9.799486	0.249757	0.188965				-0.001999	0.002564	-0.004212				52.974858	-88.091053	173.467803
01036	2476724	9.804664	0.258660	0.180721				-0.005528	-0.000045	-0.000562				52.976433	-88.090942	173.464628
01037	2476774	9.795727	0.262479	0.193055				-0.001821	0.002182	-0.002803				52.969763	-88.090135	173.473358
01038	2476824	9.832025	0.258276	0.185644				-0.006923	0.001546	-0.000679				52.960601	-88.089720	173.480537
01039	2476874	9.827412	0.242466	0.192130				-0.001858	-0.000856	-0.002027				52.969981	-88.090179	173.472662
01040	2476924	9.821877	0.251520	0.183781				-0.007621	0.001076	-0.002412				52.972852	-88.089420	173.467619
01041	2476974	9.806784	0.265499	0.209551				-0.004434	0.002714	-0.004691				52.970431	-88.089030	173.470450
01042	2477024	9.792288	0.275311	0.184394				-0.003842	0.000011	-0.003451				52.986962	-88.088241	173.452807
01043	2477074	9.810749	0.262081	0.190522				-0.003141	0.000183	-0.004420				53.001736	-88.087723	173.439375
01044	2477124	9.832609	0.235944	0.174588				-0.001519	-0.001501	-0.003891				53.031593	-88.086933	173.409203
01045	2477174	9.814416	0.259489	0.179934				-0.002304	-0.001766	-0.000104				53.037289	-88.088062	173.404832
01046	2477224	9.802916	0.265319	0.181195				-0.003490	-0.001855	-0.002216				53.060459	-88.088098	173.380436
01047	2477274	9.808416	0.271918	0.200909				-0.001197	0.000869	-0.001080				53.053379	-88.088283	173.389392
01048	2477324	9.826528	0.267541	0.168965				-0.004145	0.002686	-0.004245				53.055690	-88.086792	173.385946
01049	2477374	9.792272	0.273399	0.191236				-0.005519	0.003570	-0.003750				53.042681	-88.086315	173.399236
01050	2477424	9.817470	0.248099	0.171648				-0.003858	0.002792	-0.002190				53.033806	-88.085221	173.407110
01051	2477474	9.822265	0.239177	0.184100				-0.001136	0.001908	-0.000376				53.015888	-88.085566	173.426786
01052	2477524	9.828310	0.253302	0.180428				-0.004929	0.002390	-0.000201				52.999222	-88.084912	173.442224
01053	2477574	9.817049	0.251545	0.194342				-0.004794	-0.000231	-0.003163				53.009364	-88.085307	173.432457
01054	2477624	9.808798	0.278084	0.203723				-0.001460	0.000894	-0.001886				53.012577	-88.084704	173.428841
01055	2477674	9.824347	0.257036	0.196177				-0.005206	-0.001400	-0.003269				53.031418	-88.084882	173.410653
01056	2477724	9.817949	0.235819	0.196799				-0.004861	0.002295	-0.000359				53.016054	-88.084504	173.424544
01057	2477774	9.817652	0.250362	0.176895				-0.005154	0.002351	-0.001866				53.002221	-88.084202	173.439174
01058	2477824	9.817000	0.250381	0.204641				-0.007435	0.000407	-0.001129				53.003145	-88.083744	173.436231
01059	2477874	9.809443	0.255862	0.182640				-0.000446	0.000363	-0.001507				53.001598	-88.084315	173.439494
01060	2477924	9.810884	0.252020	0.188156				-0.004198	-0.000570	-0.000925				53.009119	-88.084170	173.430798
01061	2477974	9.815784	0.245822	0.179291				-0.005890	0.002175	-0.003245				53.002914	-88.084084	173.437139
01062	2478024	9.808245	0.241665	0.212541				-0.002229	-0.003356	-0.002803				53.039846	-88.083807	173.399745
01063	2478074	9.826002	0.255113	0.203139				-0.006828	-0.000591	-0.002812				53.050093	-88.083928	173.389681
01064	2478124	9.817872	0.244713	0.190549				-0.002203	0.002113	-0.002394				53.047297	-88.083061	173.391809
01065	2478174	9.801826	0.261280	0.172144				-0.001419	0.001311	-0.006149				53.063313	-88.082310	173.377326
01066	2478224	9.811553	0.267375	0.204903				-0.002738	-0.000028	-0.000635				53.065977	-88.082089	173.373952
01067	2478274	9.802965	0.271781	0.197568				-0.001629	0.002085	-0.003964				53.065222	-88.081682	173.376223
01068	2478324	9.823725	0.249955	0.196076				-0.003010	0.004391	-0.003114				53.050484	-88.080103	173.390209
01069	2478374	9.818045	0.257509	0.174073				-0.004986	-0.003885	0.001274				53.062885	-88.081871	173.378386
01070	2478424	9.794100	0.267402	0.176255				-0.005352	-0.000557	0.000431				53.062845	-88.082066	173.376893
01071	2478474	9.805552	0.255586	0.197056				-0.004688	0.001745	-0.001227				53.049530	-88.082636	173.390575
01072	2478524	9.825254	0.241908	0.195812				-0.002269	0.001013	-0.001883				53.051628	-88.081983	173.387866
01073	2478574	9.824062	0.234141	0.172973				-0.001804	0.001535	-0.002426				53.046731	-88.082110	173.394153
01074	2478624	9.821229	0.248198	0.178936				-0.005119	-0.000617	0.000652				53.046301	-88.082310	173.393175
01075	2478674	9.819414	0.235504	0.192016				-0.003327	0.002121	-0.004376				53.047254	-88.081556	173.393418
01076	2478724	9.812871	0.242011	0.196600				-0.005787	0.002821	-0.004142				53.047767	-88.080019	173.391349
01077	2478774	9.782418	0.277618	0.196182				-0.000244	-0.000989	-0.000866				53.052545	-88.081011	173.388383
01078	2478824	9.807864	0.251943	0.177083				-0.002820	-0.001619	-0.001767				53.071470	-88.081060	173.368471
01079	2478874	9.828669	0.266422	0.171566				-0.004524	0.001751	0.001013				53.047284	-88.081399	173.393773
01080	2478924	9.815250	0.268213	0.182101				-0.006059	0.000920	0.002555				53.025844	-88.081941	173.413377
01081	2478974	9.813855	0.259727	0.194812				-0.005540	-0.000626	-0.000505				53.025358	-88.082268	173.414735
01082	2479024	9.816311	0.240524	0.181350				-0.001051	-0.001908	-0.001290				53.044690	-88.082350	173.395049
01083	2479074	9.802211	0.256866	0.196348				-0.001976	-0.000152	-0.004424				53.061412	-88.082437	173.379549
01084	2479124	9.799385	0.275584	0.190583				-0.000889	0.000130	-0.002759				53.074625	-88.081730	173.366125
01085	2479174	9.805892	0.251889	0.187440				-0.004031	-0.000729	0.000358				53.070480	-88.082521	173.371361
01086	2479224	9.815988	0.250859	0.174735				-0.006351	0.001455	-0.001867				53.068528	-88.081537	173.371779
01087	2479274	9.816522	0.255214	0.195628				-0.002174	0.003676	0.001884				53.026450	-88.082472	173.414949
01088	2479324	9.815307	0.249729	0.172063				-0.005054	0.000895	-0.002807				53.033531	-88.081535	173.406543
01089	2479374	9.810515	0.239554	0.196326				-0.003199	0.002391	-0.001197				53.016333	-88.081802	173.424754
01090	2479424	9.795629	0.259003	0.176957				-0.001350	-0.000161	0.001608				53.008954	-88.081984	173.431943
01091	2479474	9.807478	0.259769	0.184543				-0.005856	-0.000420	-0.006784				53.038324	-88.081566	173.402697
01092	2479524	9.818931	0.256906	0.187460				-0.004220	0.004144	-0.001347				53.015346	-88.080724	173.424299
01093	2479574	9.817951	0.243861	0.179708				-0.005855	-0.000954	0.000075				53.013961	-88.081618	173.426129
01094	2479624	9.808300	0.273196	0.179252				-0.002784	0.000234	-0.000152				53.012371	-88.081420	173.427034
01095	2479674	9.821774	0.254393	0.193792				-0.004155	-0.001830	0.001702				53.008849	-88.083160	173.431202
01096	2479724	9.811860	0.229416	0.192059				-0.003909	0.002506	-0.000616				52.994058	-88.082455	173.445005
01097	2479774	9.817986	0.260047	0.179431				-0.001590	-0.000980	-0.000128				52.994666	-88.083532	173.445850
01098	2479824	9.821900	0.248401	0.185970				-0.003231	0.002258	-0.002067				52.989092	-88.082581	173.450586
01099	2479874	9.799903	0.248896	0.184152				-0.004499	-0.001288	-0.001854				52.999288	-88.083602	173.440759
01100	2479924	9.792714	0.246772	0.186348				-0.002681	-0.002166	-0.002602				53.026925	-88.083370	173.412351
01101	2479974	9.808012	0.261428	0.185068				0.000086	-0.001401	-0.001804				53.039882	-88.083439	173.402000
01102	2480024	9.813092	0.269684	0.193992				-0.004144	-0.001417	-0.003527				53.066665	-88.082699	173.374181
01103	2480074	9.818809	0.252195	0.190701				-0.002147	0.004639	-0.001030				53.032718	-88.083073	173.409027
