// General information: 
//  MT Manager version: 2022.0.0 
//  XDA version: 2022.0.0 build 7085 rev 119802 built on 2022-11-08
// Device information: 
//  DeviceId: 037004D1
//  ProductCode: MTi-300-2A5G4
//  Firmware Version: 1.4.1
//  Hardware Version: 2.1.0
// Device settings: 
//  Filter Profile: general(39.16)
//  Option Flags: Orientation Smoother Disabled, Position/Velocity Smoother Disabled, Continuous Zero Rotation Update Disabled, AHS Disabled, ICC Disabled
// Coordinate system: ENU
PacketCounter	SampleTimeFine	Acc_X	Acc_Y	Acc_Z	AccHR_X	AccHR_Y	AccHR_Z	Gyr_X	Gyr_Y	Gyr_Z	GyrHR_X	GyrHR_Y	GyrHR_Z	Roll	Pitch	Yaw
00001	16418262	0.147702	-9.804938	-0.122331				-0.002583	0.000689	-0.002506				-90.164045	-0.913011	-34.184170
00002	16418312	0.156311	-9.774447	-0.092403				-0.001013	0.002214	0.001988				-90.164327	-0.912443	-34.184804
00003	16418362	0.132377	-9.788869	-0.099761				-0.003822	0.000212	-0.003371				-90.163333	-0.912836	-34.184687
00004	16418412	0.126833	-9.800647	-0.109805				-0.002474	0.002471	-0.000926				-90.164033	-0.913101	-34.185400
00005	16418462	0.153942	-9.820962	-0.108988				-0.003784	-0.002820	-0.000857				-90.163055	-0.912782	-34.184406
00006	16418512	0.153231	-9.799218	-0.104234				-0.005169	0.000450	-0.002088				-90.164536	-0.913383	-34.184536
00007	16418562	0.168646	-9.771931	-0.107860				-0.002769	-0.000480	-0.002904				-90.163277	-0.913643	-34.184221
00008	16418612	0.174978	-9.778386	-0.114788				-0.001995	0.003347	-0.003877				-90.163844	-0.914759	-34.185179
00009	16418662	0.195160	-9.822783	-0.096032				-0.003976	0.002051	-0.004298				-90.162907	-0.915424	-34.185637
00010	16418712	0.198230	-9.794526	-0.095082				-0.003038	0.001609	-0.005395				-90.163756	-0.916971	-34.186091
00011	16418762	0.203308	-9.753247	-0.090873				-0.006741	0.000417	-0.003244				-90.163635	-0.917337	-34.186016
00012	16418812	0.219886	-9.767210	-0.095459				-0.003214	0.000288	-0.002196				-90.164550	-0.917963	-34.186098
00013	16418862	0.219255	-9.794879	-0.086126				-0.004391	-0.001831	-0.001369				-90.163766	-0.917788	-34.185406
00014	16418912	0.229233	-9.828318	-0.094191				-0.001375	-0.002267	-0.001574				-90.164172	-0.918237	-34.184758
00015	16418962	0.210829	-9.797363	-0.100863				-0.001805	-0.001691	-0.002243				-90.162627	-0.918312	-34.184082
00016	16419012	0.197716	-9.751925	-0.089145				-0.004447	-0.003124	-0.000957				-90.163910	-0.918582	-34.183183
00017	16419062	0.209982	-9.776975	-0.085557				-0.002556	0.000949	-0.001875				-90.162592	-0.918559	-34.183271
00018	16419112	0.197415	-9.791624	-0.114810				-0.007377	-0.000555	0.000571				-90.164707	-0.918396	-34.183113
00019	16419162	0.186236	-9.830371	-0.118935				-0.002901	0.002016	0.001539				-90.163481	-0.917388	-34.183544
00020	16419212	0.146674	-9.786763	-0.101998				-0.003360	-0.001168	-0.003096				-90.164464	-0.918276	-34.183211
00021	16419262	0.158705	-9.781814	-0.105719				-0.006608	-0.000641	-0.001480				-90.164259	-0.918125	-34.182853
00022	16419312	0.144111	-9.772293	-0.119223				-0.001824	-0.001974	0.000234				-90.164789	-0.918057	-34.182289
00023	16419362	0.164901	-9.826857	-0.086810				-0.005952	-0.001308	-0.002706				-90.164453	-0.918267	-34.181744
00024	16419412	0.130453	-9.824317	-0.094706				-0.003709	0.000732	-0.003725				-90.165522	-0.919335	-34.181952
00025	16419462	0.130648	-9.801270	-0.097176				-0.004709	0.000907	-0.004233				-90.164790	-0.919978	-34.182028
00026	16419512	0.142053	-9.770627	-0.090727				-0.003059	-0.003555	-0.002177				-90.165689	-0.920602	-34.181007
00027	16419562	0.156226	-9.782570	-0.088968				-0.005847	0.000666	-0.001510				-90.165297	-0.920464	-34.180951
00028	16419612	0.177355	-9.827884	-0.087383				-0.005065	0.004000	-0.005314				-90.166725	-0.921989	-34.182088
00029	16419662	0.182735	-9.812163	-0.117710				-0.002433	0.000180	-0.000367				-90.165366	-0.921527	-34.181976
00030	16419712	0.196213	-9.783835	-0.082648				-0.005262	0.000452	-0.001418				-90.166878	-0.921936	-34.182105
00031	16419762	0.193880	-9.766628	-0.108003				-0.003222	0.001448	-0.003856				-90.165703	-0.922465	-34.182331
00032	16419812	0.219949	-9.808707	-0.096137				-0.002480	-0.000504	-0.000950				-90.166418	-0.922738	-34.182189
00033	16419862	0.224522	-9.810832	-0.101866				-0.003599	0.001284	-0.003058				-90.165401	-0.923047	-34.182398
00034	16419912	0.219129	-9.794578	-0.096072				-0.005241	-0.001386	-0.000883				-90.166916	-0.923300	-34.182003
00035	16419962	0.210597	-9.759280	-0.099782				-0.001314	0.001273	0.000279				-90.165227	-0.922652	-34.182192
00036	16420012	0.224568	-9.755204	-0.091613				-0.006771	0.001526	-0.000285				-90.167149	-0.922730	-34.182628
00037	16420062	0.186397	-9.783170	-0.093360				-0.007463	-0.002044	-0.002290				-90.167244	-0.922819	-34.181854
00038	16420112	0.215654	-9.822416	-0.093424				-0.003427	0.002396	0.002084				-90.168222	-0.922224	-34.182547
00039	16420162	0.203184	-9.807762	-0.115659				-0.006419	0.000630	0.000900				-90.167968	-0.921399	-34.182499
00040	16420212	0.180283	-9.773457	-0.097106				-0.004470	-0.001176	0.001367				-90.169254	-0.921010	-34.182158
00041	16420262	0.184243	-9.798130	-0.094053				-0.006431	-0.002284	-0.002357				-90.169057	-0.921116	-34.181336
00042	16420312	0.172167	-9.815605	-0.124598				-0.005057	-0.001127	-0.000717				-90.170514	-0.921318	-34.181017
00043	16420362	0.172512	-9.834693	-0.101278				-0.002659	0.001282	0.000702				-90.169199	-0.920547	-34.181201
00044	16420412	0.135611	-9.800589	-0.096592				-0.004679	0.001274	-0.001246				-90.170542	-0.920905	-34.181567
00045	16420462	0.145838	-9.751858	-0.110033				-0.001994	-0.000587	-0.000750				-90.169042	-0.920554	-34.181207
00046	16420512	0.149584	-9.779213	-0.102446				-0.003787	0.000815	0.003879				-90.170133	-0.919442	-34.181448
00047	16420562	0.149270	-9.822924	-0.098858				-0.006874	0.000656	-0.000635				-90.170052	-0.919051	-34.181469
00048	16420612	0.150224	-9.810825	-0.097876				-0.003079	0.003504	-0.000184				-90.170925	-0.919110	-34.182477
00049	16420662	0.158992	-9.755694	-0.097230				-0.005814	0.001473	-0.002750				-90.170513	-0.919326	-34.182704
00050	16420712	0.181593	-9.773311	-0.105876				-0.001866	0.003421	-0.002594				-90.171028	-0.920070	-34.183682
00051	16420762	0.178695	-9.797482	-0.110238				-0.003414	0.000218	-0.006490				-90.169942	-0.921367	-34.183560
00052	16420812	0.180878	-9.812016	-0.104226				-0.002959	0.002366	-0.003525				-90.170772	-0.922377	-34.184229
00053	16420862	0.207070	-9.795797	-0.088367				-0.005043	0.001191	-0.005548				-90.170149	-0.923399	-34.184422
00054	16420912	0.207356	-9.763072	-0.103192				-0.003639	-0.000326	-0.001331				-90.171185	-0.923782	-34.184325
00055	16420962	0.205555	-9.766743	-0.081087				-0.002696	0.002671	0.000834				-90.169895	-0.922974	-34.184920
00056	16421012	0.215937	-9.792019	-0.111395				-0.004691	-0.000704	-0.002740				-90.171241	-0.923759	-34.184722
00057	16421062	0.216843	-9.809414	-0.089536				-0.001706	-0.001616	0.001035				-90.169667	-0.922890	-34.184095
00058	16421112	0.196333	-9.775056	-0.103823				-0.002632	0.000244	-0.000463				-90.170419	-0.923023	-34.184163
00059	16421162	0.208454	-9.759232	-0.089564				-0.005171	0.001614	-0.001155				-90.169851	-0.922788	-34.184444
00060	16421212	0.176315	-9.764420	-0.101822				-0.003354	0.004312	0.002900				-90.170789	-0.921960	-34.185685
00061	16421262	0.182800	-9.825504	-0.088727				-0.006240	-0.003245	0.000492				-90.170548	-0.921247	-34.184576
00062	16421312	0.167594	-9.816462	-0.103472				-0.006101	0.000471	-0.001765				-90.172299	-0.921756	-34.184708
00063	16421362	0.157367	-9.796540	-0.111077				-0.002810	-0.000021	-0.000268				-90.171025	-0.921260	-34.184514
00064	16421412	0.150375	-9.770051	-0.080387				-0.003689	-0.001654	-0.001523				-90.172094	-0.921695	-34.184043
00065	16421462	0.164883	-9.808816	-0.093369				-0.005026	0.000811	-0.002599				-90.171463	-0.921871	-34.184074
00066	16421512	0.150483	-9.817216	-0.098770				-0.001776	0.001517	-0.002856				-90.171956	-0.922692	-34.184499
00067	16421562	0.143119	-9.808064	-0.082324				-0.006618	-0.001677	-0.003310				-90.171795	-0.923065	-34.183841
00068	16421612	0.150405	-9.787134	-0.080661				-0.003856	0.000446	-0.002602				-90.172900	-0.923811	-34.183966
00069	16421662	0.165305	-9.769479	-0.090474				-0.003360	-0.000066	-0.002640				-90.171824	-0.923995	-34.183756
00070	16421712	0.174064	-9.803036	-0.107420				-0.006381	0.001241	-0.001439				-90.173637	-0.924406	-34.184109
00071	16421762	0.181777	-9.824546	-0.105704				-0.004764	0.001591	-0.003846				-90.172934	-0.924948	-34.184389
00072	16421812	0.168103	-9.799391	-0.101912				0.000849	0.002461	-0.005142				-90.172673	-0.926422	-34.185087
00073	16421862	0.187781	-9.773778	-0.101158				-0.003921	0.000314	-0.002542				-90.171741	-0.926579	-34.184919
00074	16421912	0.185605	-9.760481	-0.088499				-0.007348	0.001549	-0.001850				-90.173840	-0.927112	-34.185360
00075	16421962	0.207302	-9.791083	-0.101813				-0.005921	0.002962	-0.002489				-90.173461	-0.927253	-34.186045
00076	16422012	0.215472	-9.811015	-0.110159				-0.003906	-0.001406	-0.005122				-90.174587	-0.928717	-34.185639
00077	16422062	0.224357	-9.792714	-0.104995				-0.004878	0.003701	0.001516				-90.173909	-0.927715	-34.186493
00078	16422112	0.211615	-9.779797	-0.107093				-0.004867	0.000104	-0.000457				-90.175298	-0.927847	-34.186518
00079	16422162	0.203118	-9.780331	-0.079277				-0.006083	0.004354	-0.000624				-90.174972	-0.927458	-34.187597
00080	16422212	0.211156	-9.815965	-0.115701				-0.004150	0.000799	0.001146				-90.176151	-0.927131	-34.187825
00081	16422262	0.194274	-9.826175	-0.097810				-0.003560	-0.001841	-0.000341				-90.175119	-0.926653	-34.187167
00082	16422312	0.177247	-9.797771	-0.107554				-0.003844	0.000224	0.001982				-90.176223	-0.926085	-34.187235
00083	16422362	0.169640	-9.777136	-0.097684				-0.002050	0.002288	-0.000484				-90.174747	-0.925654	-34.187721
00084	16422412	0.166674	-9.799308	-0.108248				-0.002638	-0.000627	-0.001361				-90.175505	-0.926048	-34.187536
00085	16422462	0.152727	-9.820640	-0.090184				-0.004484	0.003317	0.000046				-90.174697	-0.925454	-34.188301
00086	16422512	0.172097	-9.815218	-0.118563				-0.002290	0.001969	0.001667				-90.175345	-0.924978	-34.188862
00087	16422562	0.148833	-9.781511	-0.107861				-0.001486	0.000621	-0.000171				-90.173728	-0.924459	-34.188863
00088	16422612	0.140507	-9.775833	-0.097862				-0.005618	0.000776	0.000841				-90.175335	-0.924219	-34.189084
00089	16422662	0.142017	-9.801861	-0.116807				-0.004946	0.002561	-0.002300				-90.174679	-0.924309	-34.189636
00090	16422712	0.166244	-9.823335	-0.104311				-0.000796	0.000654	-0.003865				-90.174916	-0.925415	-34.189831
00091	16422762	0.158590	-9.795814	-0.110802				-0.001048	0.000654	-0.002608				-90.173136	-0.925587	-34.189846
00092	16422812	0.174255	-9.768512	-0.084380				-0.005563	0.003872	-0.002803				-90.174718	-0.926395	-34.190956
00093	16422862	0.192242	-9.769979	-0.097897				-0.003885	0.001282	-0.003533				-90.173750	-0.926834	-34.191122
00094	16422912	0.208348	-9.824136	-0.096004				-0.005924	-0.002082	-0.001685				-90.175458	-0.927316	-34.190519
00095	16422962	0.205960	-9.821472	-0.101262				-0.003397	0.003102	-0.001988				-90.174365	-0.927314	-34.191247
00096	16423012	0.198466	-9.786774	-0.095716				-0.005962	0.002648	0.002962				-90.176044	-0.926466	-34.192004
00097	16423062	0.212141	-9.758995	-0.101867				-0.006685	0.003787	-0.002711				-90.175895	-0.926672	-34.192917
00098	16423112	0.203176	-9.771230	-0.100317				-0.005479	0.002293	-0.001312				-90.177453	-0.927052	-34.193567
00099	16423162	0.215698	-9.802125	-0.117102				-0.001910	0.002068	0.001183				-90.175938	-0.926141	-34.193977
00100	16423212	0.209026	-9.823697	-0.108228				-0.004728	-0.000244	0.001206				-90.177296	-0.925796	-34.193912
00101	16423262	0.208248	-9.784733	-0.113271				-0.004336	0.001434	-0.003082				-90.176486	-0.926111	-34.194126
00102	16423312	0.189776	-9.760062	-0.081269				-0.002011	0.002161	0.000381				-90.177050	-0.926004	-34.194746
00103	16423362	0.203799	-9.806607	-0.112676				-0.000069	-0.000451	0.003891				-90.175018	-0.924314	-34.194448
00104	16423412	0.182191	-9.834056	-0.088625				-0.003081	0.001304	-0.000004				-90.175897	-0.924316	-34.194822
00105	16423462	0.179174	-9.832681	-0.103319				-0.005683	-0.002658	-0.000662				-90.175501	-0.923933	-34.193913
00106	16423512	0.154401	-9.784308	-0.121864				-0.004020	-0.000432	-0.000557				-90.176658	-0.924091	-34.193790
00107	16423562	0.144706	-9.781340	-0.091893				-0.004402	0.002602	-0.001882				-90.175848	-0.924055	-34.194352
00108	16423612	0.146914	-9.785927	-0.099860				-0.006479	0.001436	-0.000600				-90.177689	-0.924225	-34.194759
00109	16423662	0.144583	-9.817282	-0.099114				-0.006121	-0.001383	-0.007032				-90.177397	-0.925671	-34.194169
00110	16423712	0.157757	-9.818415	-0.107708				-0.003297	0.003809	-0.005986				-90.178326	-0.927390	-34.195257
00111	16423762	0.139523	-9.765294	-0.090571				-0.002350	0.001343	-0.003660				-90.176933	-0.927865	-34.195469
00112	16423812	0.168034	-9.783964	-0.102536				-0.003985	0.001705	-0.000643				-90.178061	-0.928049	-34.195956
00113	16423862	0.173379	-9.802845	-0.104730				-0.006625	0.003950	-0.002354				-90.177881	-0.928151	-34.196873
00114	16423912	0.205320	-9.818405	-0.116088				-0.002941	-0.000253	-0.002837				-90.178735	-0.928964	-34.196805
00115	16423962	0.209504	-9.802549	-0.094815				-0.003673	-0.001396	-0.002424				-90.177727	-0.929085	-34.196202
00116	16424012	0.186014	-9.761815	-0.109384				-0.006502	-0.000153	-0.002280				-90.179588	-0.929738	-34.196159
00117	16424062	0.204194	-9.793522	-0.099788				-0.001133	0.002399	-0.001766				-90.177860	-0.929673	-34.196694
00118	16424112	0.205594	-9.792070	-0.100521				-0.002737	0.000530	-0.000589				-90.178644	-0.929842	-34.196850
00119	16424162	0.211415	-9.803618	-0.100818				-0.003234	0.002175	-0.000324				-90.177512	-0.929365	-34.197283
00120	16424212	0.205555	-9.787283	-0.103645				-0.003628	-0.000814	-0.001459				-90.178553	-0.929782	-34.197041
00121	16424262	0.188178	-9.778337	-0.096853				-0.002614	0.001991	0.000833				-90.177244	-0.928976	-34.197436
00122	16424312	0.190651	-9.776180	-0.112459				-0.003445	-0.001320	-0.000178				-90.178233	-0.929025	-34.197056
00123	16424362	0.210619	-9.808039	-0.107027				-0.004145	-0.001699	-0.002330				-90.177384	-0.929119	-34.196399
00124	16424412	0.190374	-9.786079	-0.116699				-0.002103	-0.000338	-0.001874				-90.177972	-0.929653	-34.196295
00125	16424462	0.172445	-9.780036	-0.092518				-0.003709	0.001036	0.000030				-90.176986	-0.929076	-34.196419
00126	16424512	0.174310	-9.786303	-0.099845				0.000487	0.000010	0.000656				-90.176844	-0.928889	-34.196418
00127	16424562	0.150817	-9.777908	-0.094015				-0.002553	-0.002048	0.001006				-90.175542	-0.928025	-34.195631
00128	16424612	0.150122	-9.815092	-0.113953				-0.005206	-0.002319	0.002261				-90.177050	-0.927375	-34.194974
00129	16424662	0.147269	-9.819071	-0.104266				-0.001074	0.003928	0.001873				-90.175272	-0.926268	-34.195879
00130	16424712	0.138680	-9.774611	-0.102062				-0.002098	-0.001365	-0.001749				-90.175873	-0.926766	-34.195485
00131	16424762	0.144163	-9.775408	-0.107707				-0.005586	-0.005589	0.001317				-90.175463	-0.925811	-34.193679
00132	16424812	0.180011	-9.803958	-0.103940				-0.002671	0.002636	-0.001571				-90.176221	-0.926262	-34.194439
00133	16424862	0.168567	-9.817038	-0.110912				-0.002362	0.003026	0.000072				-90.174820	-0.925671	-34.195063
00134	16424912	0.185005	-9.801636	-0.097052				-0.003245	-0.001842	-0.002171				-90.175748	-0.926289	-34.194533
00135	16424962	0.169544	-9.768562	-0.100351				-0.004175	-0.000625	-0.000845				-90.174939	-0.925964	-34.194176
00136	16425012	0.194019	-9.783920	-0.099688				-0.000152	0.001030	-0.000013				-90.174985	-0.925971	-34.194471
00137	16425062	0.210743	-9.806419	-0.088652				-0.005328	0.004326	-0.003896				-90.174422	-0.926511	-34.195524
00138	16425112	0.224533	-9.810972	-0.105367				-0.001805	0.002088	-0.005593				-90.174929	-0.928114	-34.196120
00139	16425162	0.204697	-9.798244	-0.100479				-0.002901	-0.000246	-0.000850				-90.173714	-0.927787	-34.195852
00140	16425212	0.213695	-9.781751	-0.086570				-0.007585	0.000700	-0.003236				-90.175886	-0.928715	-34.196048
00141	16425262	0.224214	-9.796698	-0.092933				-0.002460	0.000820	-0.003381				-90.174540	-0.929111	-34.196095
00142	16425312	0.206105	-9.788939	-0.103580				-0.000833	-0.002128	-0.003780				-90.174794	-0.930194	-34.195485
00143	16425362	0.202570	-9.799232	-0.100357				-0.006863	-0.003035	-0.002456				-90.174732	-0.930320	-34.194433
00144	16425412	0.202371	-9.795477	-0.082010				-0.002487	-0.000110	0.000276				-90.175450	-0.930245	-34.194404
00145	16425462	0.199271	-9.781738	-0.114124				-0.002352	-0.001333	0.000460				-90.174072	-0.929533	-34.193833
00146	16425512	0.168975	-9.788751	-0.099137				-0.003418	-0.001997	0.002772				-90.175055	-0.928735	-34.193266
00147	16425562	0.165454	-9.807997	-0.099886				-0.005954	0.001290	0.002092				-90.174720	-0.927569	-34.193453
00148	16425612	0.167999	-9.820042	-0.101060				-0.003851	0.002523	0.000968				-90.175818	-0.927292	-34.194185
00149	16425662	0.157108	-9.781883	-0.107724				-0.002196	0.002804	0.000167				-90.174383	-0.926673	-34.194780
00150	16425712	0.153140	-9.771589	-0.101601				-0.000762	0.002313	0.000738				-90.174593	-0.926464	-34.195443
00151	16425762	0.161621	-9.813396	-0.106836				-0.005957	0.000957	-0.003109				-90.174255	-0.926780	-34.195533
00152	16425812	0.135630	-9.812497	-0.108984				-0.001290	0.002399	-0.002018				-90.174622	-0.927360	-34.196226
00153	16425862	0.152248	-9.790174	-0.097642				-0.003518	0.000737	-0.004721				-90.173595	-0.928141	-34.196276
00154	16425912	0.161379	-9.774549	-0.103186				-0.003032	-0.000615	-0.004789				-90.174468	-0.929513	-34.196093
00155	16425962	0.167323	-9.791923	-0.110365				-0.003539	0.000416	-0.003180				-90.173431	-0.929851	-34.196045
00156	16426012	0.197229	-9.810313	-0.093511				-0.002275	-0.000114	-0.003158				-90.174083	-0.930754	-34.196014
00157	16426062	0.177717	-9.802321	-0.104503				-0.005672	-0.000043	-0.003725				-90.173659	-0.931242	-34.195815
00158	16426112	0.194448	-9.797709	-0.097503				-0.000121	-0.000039	-0.001789				-90.173684	-0.931754	-34.195798
00159	16426162	0.198689	-9.785094	-0.112252				-0.002459	-0.001440	-0.003228				-90.172334	-0.932105	-34.195178
00160	16426212	0.197731	-9.754770	-0.111059				-0.002630	-0.001630	0.001483				-90.173099	-0.931678	-34.194709
00161	16426262	0.210852	-9.772316	-0.100809				-0.004437	-0.000604	-0.002804				-90.172335	-0.931904	-34.194361
00162	16426312	0.212049	-9.806406	-0.073024				-0.004414	0.005896	-0.002158				-90.173572	-0.932526	-34.196051
00163	16426362	0.193468	-9.768644	-0.091114				-0.004346	0.004256	0.001621				-90.172734	-0.931493	-34.197088
00164	16426412	0.191470	-9.763713	-0.089449				-0.003098	0.001044	0.001600				-90.173618	-0.931039	-34.197388
00165	16426462	0.199854	-9.786925	-0.084378				-0.002041	0.000998	0.001144				-90.172141	-0.930134	-34.197483
00166	16426512	0.199557	-9.816216	-0.093234				-0.001107	0.000858	0.001207				-90.172453	-0.929790	-34.197731
00167	16426562	0.179663	-9.800069	-0.094949				-0.004638	-0.000050	-0.000136				-90.171736	-0.929245	-34.197553
00168	16426612	0.176499	-9.782330	-0.094370				-0.004389	-0.000688	0.002201				-90.172992	-0.928618	-34.197350
00169	16426662	0.158395	-9.781535	-0.129802				-0.005214	-0.002060	0.002456				-90.172453	-0.927333	-34.196577
00170	16426712	0.144188	-9.782718	-0.095189				-0.004141	0.001576	0.001127				-90.173630	-0.927012	-34.197031
00171	16426762	0.150847	-9.805708	-0.090861				-0.001401	0.000077	0.001271				-90.171963	-0.926074	-34.196862
00172	16426812	0.137747	-9.793391	-0.100263				-0.004884	0.001429	-0.002528				-90.173348	-0.926800	-34.197265
00173	16426862	0.158672	-9.790156	-0.108753				-0.006282	0.001214	-0.000605				-90.173106	-0.926394	-34.197455
00174	16426912	0.153535	-9.782823	-0.110866				-0.004552	0.000507	0.002692				-90.174410	-0.925622	-34.197603
00175	16426962	0.172248	-9.794186	-0.097375				0.000792	0.000365	-0.001556				-90.172143	-0.925493	-34.197520
00176	16427012	0.173212	-9.819724	-0.102539				-0.004963	0.001545	-0.007952				-90.173554	-0.927771	-34.197957
00177	16427062	0.161521	-9.787386	-0.101320				-0.005477	0.000995	-0.002694				-90.173086	-0.927971	-34.198057
00178	16427112	0.192763	-9.800926	-0.090222				-0.004760	0.001562	-0.002851				-90.174431	-0.928786	-34.198500
00179	16427162	0.206323	-9.794666	-0.100839				-0.005303	0.001711	-0.000831				-90.173891	-0.928451	-34.198790
00180	16427212	0.210305	-9.792129	-0.092852				-0.001927	0.000025	-0.002965				-90.174446	-0.929305	-34.198791
00181	16427262	0.195416	-9.792318	-0.108182				-0.003422	-0.001360	-0.002877				-90.173404	-0.929545	-34.198198
00182	16427312	0.201763	-9.763351	-0.104649				-0.006377	-0.001901	-0.002612				-90.175234	-0.930291	-34.197650
00183	16427362	0.196303	-9.758370	-0.093541				-0.002358	0.002832	-0.002307				-90.173841	-0.930373	-34.198280
00184	16427412	0.206452	-9.777935	-0.093069				-0.000113	-0.002164	0.001763				-90.173882	-0.929866	-34.197663
00185	16427462	0.179380	-9.779714	-0.107617				-0.006223	0.003245	-0.003481				-90.173611	-0.930289	-34.198390
00186	16427512	0.204579	-9.814016	-0.093135				-0.004622	-0.000698	-0.001327				-90.174934	-0.930669	-34.198188
00187	16427562	0.190390	-9.782784	-0.099835				-0.005661	0.002263	0.002799				-90.174496	-0.929288	-34.198624
00188	16427612	0.176492	-9.766720	-0.090514				-0.002176	-0.000484	0.003710				-90.175125	-0.928225	-34.198488
00189	16427662	0.178590	-9.805864	-0.104770				-0.006016	0.003161	0.000624				-90.174799	-0.927474	-34.199227
00190	16427712	0.180884	-9.820692	-0.110421				-0.002093	-0.003532	0.001313				-90.175408	-0.927091	-34.198219
00191	16427762	0.159027	-9.806856	-0.102427				-0.003567	-0.002450	0.001938				-90.174412	-0.925961	-34.197333
00192	16427812	0.145555	-9.776290	-0.110819				-0.004331	-0.000522	0.003038				-90.175658	-0.925092	-34.197182
00193	16427862	0.146405	-9.791237	-0.094503				-0.002756	0.003476	0.001358				-90.174350	-0.924118	-34.197992
00194	16427912	0.142219	-9.805872	-0.102392				-0.004521	0.000176	-0.001351				-90.175652	-0.924504	-34.198046
00195	16427962	0.165252	-9.813558	-0.108978				-0.004759	-0.001583	-0.003610				-90.174990	-0.924960	-34.197388
00196	16428012	0.166216	-9.783454	-0.106285				-0.003322	0.000712	-0.002670				-90.175943	-0.925727	-34.197589
00197	16428062	0.177508	-9.773484	-0.097481				-0.000168	0.002517	-0.001670				-90.173943	-0.925626	-34.198103
00198	16428112	0.179230	-9.784715	-0.091189				-0.008590	0.002203	-0.002196				-90.176405	-0.926259	-34.198734
00199	16428162	0.186850	-9.809894	-0.113983				-0.007472	0.001220	-0.002591				-90.176490	-0.926427	-34.198902
00200	16428212	0.192473	-9.804661	-0.109811				-0.003626	-0.000978	-0.003576				-90.177536	-0.927449	-34.198620
00201	16428262	0.203225	-9.790723	-0.113221				-0.003195	-0.000191	-0.000850				-90.176381	-0.927108	-34.198365
00202	16428312	0.220442	-9.785374	-0.091734				-0.004392	0.000080	-0.001644				-90.177635	-0.927581	-34.198382
00203	16428362	0.188376	-9.767806	-0.103361				-0.005376	-0.001034	-0.000943				-90.177140	-0.927270	-34.197901
00204	16428412	0.210903	-9.799790	-0.118510				-0.002045	-0.000811	0.002094				-90.177724	-0.926669	-34.197669
00205	16428462	0.197296	-9.795872	-0.106959				-0.004145	-0.000332	0.001980				-90.176882	-0.925522	-34.197403
00206	16428512	0.196977	-9.771521	-0.101490				-0.005424	-0.000419	-0.000072				-90.178443	-0.925546	-34.197281
00207	16428562	0.198606	-9.787290	-0.093131				-0.007121	0.000221	-0.002757				-90.178431	-0.925753	-34.197174
00208	16428612	0.200207	-9.806979	-0.107452				-0.004104	-0.000589	0.001690				-90.179611	-0.925270	-34.197010
00209	16428662	0.171863	-9.803143	-0.102060				-0.004131	0.001190	0.000162				-90.178743	-0.924642	-34.197198
00210	16428712	0.182671	-9.791195	-0.113862				-0.005629	-0.002904	0.003640				-90.180369	-0.923597	-34.196369
00211	16428762	0.153952	-9.781354	-0.098797				-0.003678	0.001324	0.000963				-90.179376	-0.922744	-34.196576
00212	16428812	0.143457	-9.780895	-0.090172				-0.003763	0.002744	-0.000630				-90.180441	-0.922926	-34.197361
00213	16428862	0.157225	-9.806611	-0.073329				-0.006076	0.001929	-0.000469				-90.180124	-0.922482	-34.197725
00214	16428912	0.147020	-9.807691	-0.104337				-0.003944	0.001252	-0.002179				-90.181244	-0.923108	-34.198079
00215	16428962	0.171991	-9.810803	-0.097454				-0.001427	0.000554	-0.001456				-90.179614	-0.922947	-34.198048
00216	16429012	0.169770	-9.789821	-0.090473				-0.001601	-0.001001	-0.002395				-90.180091	-0.923637	-34.197764
00217	16429062	0.165285	-9.802302	-0.100131				-0.006226	-0.000731	-0.002569				-90.179817	-0.923790	-34.197356
00218	16429112	0.175709	-9.814317	-0.112301				-0.003050	0.000560	0.000249				-90.180685	-0.923719	-34.197515
00219	16429162	0.199792	-9.813488	-0.116200				-0.000666	-0.002445	-0.004233				-90.178855	-0.924351	-34.196622
00220	16429212	0.179784	-9.780910	-0.091273				-0.001547	0.001192	-0.005268				-90.179308	-0.925864	-34.196970
00221	16429262	0.188132	-9.763631	-0.097584				-0.003775	0.000799	-0.003500				-90.178344	-0.926286	-34.197017
00222	16429312	0.194875	-9.781700	-0.105376				-0.006275	-0.000314	-0.005041				-90.180143	-0.927730	-34.196924
00223	16429362	0.220397	-9.809853	-0.104453				-0.005683	0.001477	-0.002056				-90.179710	-0.927741	-34.197134
00224	16429412	0.205528	-9.807574	-0.095282				-0.003242	-0.002942	-0.002305				-90.180654	-0.928397	-34.196292
00225	16429462	0.207591	-9.761102	-0.107202				-0.002575	-0.000569	-0.002746				-90.179377	-0.928612	-34.195978
00226	16429512	0.212305	-9.784410	-0.115208				-0.004748	0.002072	-0.004423				-90.180735	-0.929883	-34.196568
00227	16429562	0.203187	-9.795391	-0.102210				-0.004211	0.003935	0.001711				-90.179858	-0.928818	-34.197498
00228	16429612	0.199005	-9.799017	-0.101451				-0.004043	0.001217	-0.001863				-90.181010	-0.929352	-34.197847
00229	16429662	0.181815	-9.792592	-0.116203				-0.003611	0.001068	0.000252				-90.180008	-0.928700	-34.197980
00230	16429712	0.172684	-9.769526	-0.112081				-0.001650	-0.001322	0.000911				-90.180482	-0.928435	-34.197603
00231	16429762	0.155745	-9.782418	-0.089800				-0.005665	0.001195	0.001162				-90.180058	-0.927527	-34.197746
00232	16429812	0.173510	-9.810212	-0.087940				-0.006987	0.001594	0.002608				-90.182052	-0.926781	-34.198199
00233	16429862	0.160856	-9.795686	-0.117040				-0.001998	0.005849	-0.000179				-90.180563	-0.926258	-34.199686
00234	16429912	0.176791	-9.791675	-0.103188				-0.001396	0.001842	-0.000364				-90.180949	-0.926363	-34.200207
00235	16429962	0.165584	-9.780609	-0.122896				-0.004470	0.000492	-0.002290				-90.180194	-0.926438	-34.200173
00236	16430012	0.158277	-9.809008	-0.117106				-0.005141	0.000354	-0.002030				-90.181661	-0.927020	-34.200271
00237	16430062	0.145428	-9.800684	-0.098056				-0.002519	-0.000346	-0.001399				-90.180350	-0.926845	-34.199969
00238	16430112	0.143713	-9.798971	-0.087326				-0.005037	-0.000907	-0.003444				-90.181794	-0.927831	-34.199705
00239	16430162	0.170969	-9.790592	-0.085720				-0.002054	-0.002050	-0.002658				-90.180366	-0.928014	-34.198906
00240	16430212	0.180596	-9.791508	-0.095622				-0.004053	0.000498	-0.002579				-90.181519	-0.928754	-34.199039
00241	16430262	0.184699	-9.788754	-0.117474				-0.004304	-0.001667	-0.001466				-90.180734	-0.928589	-34.198377
00242	16430312	0.186805	-9.821873	-0.090399				-0.004771	0.002013	-0.000290				-90.182096	-0.928674	-34.198958
00243	16430362	0.210331	-9.828794	-0.099620				-0.004067	0.002790	-0.003852				-90.181212	-0.929201	-34.199576
00244	16430412	0.216375	-9.794699	-0.105748				-0.000199	0.001246	-0.001597				-90.181249	-0.929658	-34.199930
00245	16430462	0.224062	-9.793845	-0.093438				-0.002318	-0.000126	-0.006378				-90.179899	-0.930910	-34.199696
00246	16430512	0.226876	-9.801849	-0.110655				-0.003260	0.002041	0.001241				-90.180814	-0.930554	-34.200279
00247	16430562	0.202166	-9.812341	-0.096278				-0.005233	0.002424	-0.000099				-90.180270	-0.930006	-34.200807
00248	16430612	0.212264	-9.802126	-0.089064				-0.003333	0.000196	0.000142				-90.181221	-0.929965	-34.200863
00249	16430662	0.200443	-9.779203	-0.108203				-0.005723	-0.001334	-0.000020				-90.180826	-0.929387	-34.200290
00250	16430712	0.205592	-9.786699	-0.110551				-0.001968	-0.003701	-0.002031				-90.181410	-0.929965	-34.199229
00251	16430762	0.190854	-9.823339	-0.099544				-0.005440	-0.000067	0.000401				-90.180939	-0.929277	-34.199016
00252	16430812	0.169473	-9.788341	-0.094595				-0.003809	-0.000878	0.002287				-90.182022	-0.928617	-34.198759
00253	16430862	0.176505	-9.798702	-0.108690				-0.000320	0.001515	0.002968				-90.180080	-0.927191	-34.199005
00254	16430912	0.165725	-9.800911	-0.097730				-0.003733	0.000408	-0.002197				-90.181152	-0.927823	-34.199126
00255	16430962	0.145495	-9.779020	-0.087360				-0.006394	-0.003186	0.001966				-90.180975	-0.926679	-34.198019
00256	16431012	0.156555	-9.818311	-0.099593				-0.003692	0.002488	0.000415				-90.182017	-0.926560	-34.198731
00257	16431062	0.148561	-9.812164	-0.120232				-0.005709	0.004386	-0.000755				-90.181592	-0.926199	-34.199799
00258	16431112	0.155727	-9.793137	-0.102184				-0.004145	0.002903	0.002599				-90.182771	-0.925459	-34.200636
00259	16431162	0.162772	-9.774698	-0.108011				-0.003901	-0.000078	-0.002068				-90.181849	-0.925467	-34.200426
00260	16431212	0.167925	-9.783795	-0.098434				-0.003923	0.005446	-0.004249				-90.182949	-0.926688	-34.201982
00261	16431262	0.174440	-9.797784	-0.108980				-0.004206	0.001571	0.000221				-90.182124	-0.926048	-34.202235
00262	16431312	0.188327	-9.792086	-0.082179				-0.001642	0.000453	0.000368				-90.182588	-0.925946	-34.202366
00263	16431362	0.196806	-9.784116	-0.084984				-0.005756	0.002833	-0.002306				-90.182199	-0.926027	-34.202985
00264	16431412	0.197522	-9.774887	-0.113909				-0.002740	-0.000473	-0.000760				-90.182979	-0.926242	-34.202850
00265	16431462	0.207157	-9.798392	-0.104601				-0.001626	0.001708	-0.001872				-90.181398	-0.926199	-34.203144
00266	16431512	0.207390	-9.806468	-0.088504				-0.002819	-0.002421	-0.003687				-90.182231	-0.927254	-34.202451
00267	16431562	0.197116	-9.795845	-0.109056				-0.000940	0.000459	-0.000409				-90.180453	-0.926790	-34.202388
00268	16431612	0.201609	-9.777638	-0.101453				-0.002863	0.002362	-0.003469				-90.181268	-0.927785	-34.203061
00269	16431662	0.208880	-9.792226	-0.087869				-0.004712	-0.001030	-0.002652				-90.180570	-0.927962	-34.202568
00270	16431712	0.188571	-9.795618	-0.083640				-0.001395	0.000875	-0.000340				-90.180963	-0.928060	-34.202820
00271	16431762	0.214751	-9.804313	-0.099023				-0.007572	0.002610	0.000519				-90.181083	-0.927332	-34.203388
00272	16431812	0.180045	-9.788820	-0.085775				-0.003743	-0.001644	0.004661				-90.182173	-0.925997	-34.202925
00273	16431862	0.176727	-9.790277	-0.101614				-0.004936	0.002366	0.000515				-90.181550	-0.925268	-34.203400
00274	16431912	0.164720	-9.802807	-0.113958				-0.002772	-0.001212	0.002351				-90.182345	-0.924594	-34.203049
00275	16431962	0.177132	-9.806897	-0.099967				-0.004507	0.001790	-0.000936				-90.181602	-0.924280	-34.203362
00276	16432012	0.170679	-9.807296	-0.079228				-0.001134	0.001293	-0.003742				-90.181915	-0.925350	-34.203727
00277	16432062	0.141214	-9.790362	-0.109604				-0.002991	0.000559	0.000759				-90.180753	-0.924557	-34.203705
00278	16432112	0.175147	-9.787991	-0.112762				-0.001183	-0.000191	-0.002075				-90.181097	-0.925152	-34.203649
00279	16432162	0.149513	-9.792867	-0.093837				-0.005830	0.001186	-0.000515				-90.180724	-0.924717	-34.203794
00280	16432212	0.166682	-9.813002	-0.112717				-0.001454	-0.000809	-0.003038				-90.181149	-0.925585	-34.203558
00281	16432262	0.174292	-9.809022	-0.118897				-0.005854	0.001469	-0.003977				-90.180766	-0.926141	-34.203801
00282	16432312	0.184417	-9.795644	-0.086060				-0.003996	0.001533	-0.004464				-90.181906	-0.927423	-34.204237
00283	16432362	0.193847	-9.786420	-0.107424				-0.003254	-0.000350	-0.000309				-90.180813	-0.926931	-34.203982
00284	16432412	0.192560	-9.797133	-0.090360				-0.002754	-0.000386	-0.004251				-90.181613	-0.928150	-34.203871
00285	16432462	0.188510	-9.815278	-0.101853				-0.002802	-0.000639	-0.002589				-90.180380	-0.928307	-34.203466
00286	16432512	0.195462	-9.789628	-0.113179				-0.002439	0.001112	-0.002164				-90.181071	-0.928927	-34.203785
00287	16432562	0.211770	-9.776499	-0.120961				-0.004312	-0.000509	-0.003613				-90.180269	-0.929379	-34.203448
00288	16432612	0.199955	-9.774763	-0.104747				0.000643	0.001974	-0.003162				-90.180078	-0.930287	-34.204013
00289	16432662	0.195217	-9.800264	-0.100718				-0.003103	0.003108	-0.001512				-90.178931	-0.930142	-34.204735
00290	16432712	0.199360	-9.794425	-0.091189				-0.006229	0.001631	-0.001252				-90.180704	-0.930504	-34.205197
00291	16432762	0.180239	-9.787837	-0.103095				-0.006815	0.000847	-0.000355				-90.180621	-0.930019	-34.205247
00292	16432812	0.192364	-9.788177	-0.086637				-0.005981	0.002057	0.000417				-90.182325	-0.929902	-34.205835
00293	16432862	0.178074	-9.775074	-0.102582				-0.004254	-0.002610	-0.004453				-90.181518	-0.930592	-34.204892
00294	16432912	0.174036	-9.785416	-0.096009				-0.001772	-0.000588	-0.001630				-90.182019	-0.931058	-34.204718
00295	16432962	0.175812	-9.794490	-0.106377				-0.005522	0.002615	-0.000126				-90.181574	-0.930511	-34.205278
00296	16433012	0.175072	-9.789516	-0.106392				-0.003290	-0.000225	-0.000725				-90.182524	-0.930723	-34.205213
00297	16433062	0.157964	-9.785948	-0.120955				-0.004973	-0.000710	-0.000175				-90.181919	-0.930191	-34.204821
00298	16433112	0.155230	-9.790857	-0.112131				-0.007633	0.000775	0.003754				-90.184089	-0.929117	-34.205041
00299	16433162	0.165418	-9.821845	-0.124977				-0.002354	0.000369	-0.002070				-90.182733	-0.929126	-34.204963
00300	16433212	0.156384	-9.792415	-0.102742				-0.003984	-0.002798	-0.002758				-90.183884	-0.929914	-34.204162
00301	16433262	0.171491	-9.808295	-0.090766				-0.002317	-0.000990	-0.003937				-90.182530	-0.930457	-34.203696
00302	16433312	0.171757	-9.778791	-0.081379				-0.002673	0.001398	-0.003187				-90.183294	-0.931375	-34.204093
00303	16433362	0.164271	-9.800933	-0.081365				-0.002352	0.000670	0.000788				-90.181930	-0.930561	-34.204100
00304	16433412	0.180061	-9.812304	-0.069875				-0.001363	0.000150	-0.007111				-90.182324	-0.932599	-34.204135
00305	16433462	0.185918	-9.785623	-0.103755				-0.002062	-0.001464	0.001060				-90.180871	-0.931709	-34.203522
00306	16433512	0.199900	-9.787650	-0.115127				-0.003684	0.002997	-0.001957				-90.181923	-0.932275	-34.204383
00307	16433562	0.197199	-9.774014	-0.093287				-0.002895	0.002626	-0.001195				-90.180709	-0.932032	-34.204974
00308	16433612	0.213155	-9.793684	-0.097682				-0.002965	0.000847	0.000111				-90.181550	-0.931999	-34.205211
00309	16433662	0.196638	-9.790255	-0.087112				-0.003880	-0.002985	-0.001670				-90.180629	-0.931888	-34.204152
00310	16433712	0.210208	-9.792223	-0.117994				-0.001098	0.001362	-0.001942				-90.180936	-0.932446	-34.204537
00311	16433762	0.210140	-9.801697	-0.087925				-0.005115	-0.000454	-0.001685				-90.180374	-0.932345	-34.204218
00312	16433812	0.204822	-9.787571	-0.085486				-0.005748	0.005411	-0.004923				-90.181998	-0.933761	-34.205766
00313	16433862	0.188618	-9.802256	-0.115543				-0.003624	0.003222	-0.002472				-90.180983	-0.933889	-34.206490
00314	16433912	0.208252	-9.816385	-0.106526				-0.003553	0.003200	0.002210				-90.181990	-0.933259	-34.207414
00315	16433962	0.178384	-9.796100	-0.107270				-0.000849	-0.001241	0.001960				-90.180204	-0.932109	-34.206885
00316	16434012	0.163490	-9.788130	-0.081915				-0.003672	-0.005504	-0.000526				-90.181279	-0.932251	-34.205308
00317	16434062	0.152288	-9.780334	-0.089449				-0.002574	0.000335	-0.002292				-90.179984	-0.932326	-34.205190
00318	16434112	0.144294	-9.808675	-0.088203				-0.001844	0.000605	-0.001332				-90.180504	-0.932708	-34.205361
00319	16434162	0.164781	-9.804178	-0.102031				-0.003754	0.000118	-0.002420				-90.179550	-0.932822	-34.205139
00320	16434212	0.170857	-9.791407	-0.078980				-0.002649	0.000852	-0.000846				-90.180313	-0.933063	-34.205388
00321	16434262	0.146234	-9.793676	-0.090604				-0.002395	0.002924	-0.002377				-90.178951	-0.933160	-34.205970
00322	16434312	0.156364	-9.781039	-0.101490				-0.003698	-0.000556	-0.001042				-90.180006	-0.933454	-34.205808
00323	16434362	0.167893	-9.807801	-0.095583				-0.003994	0.000665	-0.001135				-90.179124	-0.933199	-34.205801
00324	16434412	0.162452	-9.784667	-0.107678				-0.001290	0.001393	-0.002324				-90.179475	-0.933863	-34.206195
00325	16434462	0.177118	-9.814022	-0.115291				-0.004011	0.002252	-0.000773				-90.178597	-0.933507	-34.206629
00326	16434512	0.165950	-9.793872	-0.076924				-0.006226	-0.001898	-0.002520				-90.180402	-0.934229	-34.206090
00327	16434562	0.199296	-9.790030	-0.084186				-0.002369	-0.000115	-0.002015				-90.179029	-0.934215	-34.205849
00328	16434612	0.190745	-9.802531	-0.095629				-0.003040	0.003810	-0.004746				-90.179887	-0.935580	-34.206937
00329	16434662	0.208954	-9.803420	-0.115833				-0.002438	-0.001090	-0.002463				-90.178560	-0.935698	-34.206436
00330	16434712	0.187440	-9.774801	-0.112233				-0.004995	0.003874	-0.004194				-90.179977	-0.936901	-34.207545
00331	16434762	0.210727	-9.790380	-0.098204				-0.006232	-0.001607	-0.001945				-90.179730	-0.936870	-34.206885
00332	16434812	0.208203	-9.798821	-0.122121				-0.003389	-0.000163	-0.001500				-90.180698	-0.937300	-34.206833
00333	16434862	0.210594	-9.811076	-0.094598				-0.003225	0.004686	-0.003458				-90.179586	-0.937707	-34.207984
00334	16434912	0.177311	-9.780841	-0.097743				-0.002855	0.000267	-0.000434				-90.180390	-0.937830	-34.208054
00335	16434962	0.191615	-9.782324	-0.098108				-0.003614	0.003000	-0.001572				-90.179415	-0.937704	-34.208731
00336	16435012	0.159221	-9.782487	-0.097800				0.000955	0.001469	-0.000144				-90.179119	-0.937745	-34.209145
00337	16435062	0.172973	-9.789764	-0.091492				-0.004461	0.003805	0.002640				-90.178334	-0.936406	-34.210035
00338	16435112	0.166715	-9.788273	-0.100766				-0.001504	0.000197	0.000430				-90.178758	-0.936281	-34.210093
00339	16435162	0.177965	-9.798485	-0.091115				-0.006884	-0.002001	0.000495				-90.178718	-0.935554	-34.209345
00340	16435212	0.148026	-9.763464	-0.094580				-0.005183	0.004170	-0.001624				-90.180188	-0.936024	-34.210540
00341	16435262	0.170856	-9.795106	-0.100857				-0.003029	0.003719	-0.001957				-90.178989	-0.935997	-34.211436
00342	16435312	0.165549	-9.812169	-0.121933				-0.004245	0.000464	-0.002287				-90.180201	-0.936652	-34.211570
00343	16435362	0.168845	-9.800998	-0.105399				-0.004466	0.000333	-0.002609				-90.179457	-0.936818	-34.211459
00344	16435412	0.170995	-9.785661	-0.097700				-0.002248	0.000012	-0.003931				-90.180099	-0.937942	-34.211460
00345	16435462	0.193304	-9.793871	-0.101364				-0.001218	0.000902	-0.004192				-90.178430	-0.938562	-34.211543
00346	16435512	0.199981	-9.800233	-0.098589				-0.003064	0.002585	-0.004113				-90.179296	-0.939742	-34.212277
00347	16435562	0.192408	-9.810098	-0.080197				-0.007272	0.005034	-0.003220				-90.179319	-0.940081	-34.213533
00348	16435612	0.199421	-9.801219	-0.096674				-0.005429	-0.001150	-0.007718				-90.180882	-0.942292	-34.213198
00349	16435662	0.205240	-9.813210	-0.083787				-0.007101	0.000709	-0.002252				-90.180884	-0.942351	-34.213230
00350	16435712	0.202334	-9.794007	-0.085289				-0.008179	0.001629	0.000516				-90.183209	-0.942206	-34.213688
00351	16435762	0.216231	-9.807773	-0.088608				-0.005060	0.005908	-0.004444				-90.182604	-0.942894	-34.215186
00352	16435812	0.209030	-9.789395	-0.086560				-0.000899	0.002242	-0.000495				-90.182849	-0.943040	-34.215822
00353	16435862	0.198120	-9.787703	-0.097656				-0.004158	0.001829	-0.001482				-90.182009	-0.942883	-34.216187
00354	16435912	0.209950	-9.788450	-0.116077				-0.004278	0.002436	-0.002988				-90.183203	-0.943739	-34.216871
00355	16435962	0.201377	-9.778280	-0.106161				-0.007440	0.000413	0.000187				-90.183325	-0.943103	-34.216807
00356	16436012	0.203108	-9.806890	-0.094983				-0.002173	0.000764	-0.000916				-90.183948	-0.943367	-34.217026
00357	16436062	0.168714	-9.782437	-0.108951				-0.002190	0.002807	0.002499				-90.182523	-0.942064	-34.217649
00358	16436112	0.189839	-9.802219	-0.085341				-0.003849	0.003417	-0.000608				-90.183609	-0.942240	-34.218624
00359	16436162	0.171663	-9.787993	-0.099984				-0.005902	0.003576	0.001101				-90.183255	-0.941345	-34.219466
00360	16436212	0.158694	-9.815064	-0.093261				-0.004845	-0.001939	-0.001947				-90.184655	-0.941903	-34.218902
00361	16436262	0.162764	-9.820370	-0.099519				-0.001490	-0.002517	0.000285				-90.183077	-0.941233	-34.218002
00362	16436312	0.151818	-9.805877	-0.110115				-0.004338	-0.000866	-0.004957				-90.184310	-0.942653	-34.217737
00363	16436362	0.163851	-9.791556	-0.090293				-0.004482	0.000010	-0.001168				-90.183578	-0.942399	-34.217573
00364	16436412	0.168213	-9.798906	-0.086951				-0.004062	0.002055	-0.001351				-90.184722	-0.942786	-34.218155
00365	16436462	0.166775	-9.795164	-0.099768				0.001132	0.000659	-0.001147				-90.182391	-0.942536	-34.218144
00366	16436512	0.170040	-9.803239	-0.112638				-0.005213	-0.001195	0.000560				-90.183898	-0.942376	-34.217805
00367	16436562	0.187747	-9.796583	-0.099043				-0.005061	-0.000097	-0.001581				-90.183312	-0.942244	-34.217588
00368	16436612	0.182154	-9.770928	-0.105733				-0.005610	0.001791	-0.005838				-90.184919	-0.943920	-34.218098
00369	16436662	0.185116	-9.770448	-0.104514				-0.004133	0.001018	-0.002094				-90.184060	-0.943935	-34.218184
00370	16436712	0.200888	-9.807894	-0.109348				-0.003875	0.000821	-0.003639				-90.185169	-0.944978	-34.218416
00371	16436762	0.191316	-9.796320	-0.098339				-0.004455	0.001111	-0.001294				-90.184423	-0.944762	-34.218538
00372	16436812	0.187188	-9.784665	-0.118914				-0.003509	-0.000456	-0.000018				-90.185447	-0.944769	-34.218416
00373	16436862	0.202192	-9.782075	-0.105284				-0.001647	0.000349	-0.002941				-90.183870	-0.945021	-34.218310
00374	16436912	0.214407	-9.807650	-0.082900				-0.005128	0.000226	-0.000142				-90.185336	-0.945065	-34.218370
00375	16436962	0.205762	-9.796108	-0.084466				-0.004327	-0.001051	-0.001211				-90.184572	-0.944825	-34.217877
00376	16437012	0.203844	-9.802445	-0.106006				-0.001873	0.002642	-0.001034				-90.185096	-0.945122	-34.218633
00377	16437062	0.168434	-9.799977	-0.094338				-0.003421	0.001909	0.000317				-90.184034	-0.944449	-34.218971
00378	16437112	0.171225	-9.783255	-0.115695				-0.001843	0.000838	0.000340				-90.184553	-0.944350	-34.219208
00379	16437162	0.177965	-9.782862	-0.088868				-0.001753	0.000866	-0.000018				-90.183032	-0.943770	-34.219252
00380	16437212	0.167709	-9.827719	-0.111388				-0.004560	0.002502	0.000129				-90.184326	-0.943737	-34.219971
00381	16437262	0.167274	-9.804080	-0.106123				-0.004494	-0.001174	0.004730				-90.183606	-0.941796	-34.219439
00382	16437312	0.162209	-9.798388	-0.094875				-0.005455	0.001518	0.000993				-90.185160	-0.941512	-34.219872
00383	16437362	0.161241	-9.794256	-0.102233				-0.002840	0.002487	-0.005008				-90.183938	-0.942364	-34.220404
00384	16437412	0.165082	-9.797401	-0.095081				-0.006087	0.001442	0.001411				-90.185667	-0.941958	-34.220818
00385	16437462	0.162434	-9.812632	-0.094251				-0.000191	-0.003246	-0.001740				-90.183743	-0.941873	-34.219695
00386	16437512	0.164191	-9.809650	-0.101580				-0.004869	0.000841	-0.003663				-90.185128	-0.942924	-34.219932
00387	16437562	0.183699	-9.784062	-0.083643				-0.001632	0.003197	-0.001096				-90.183541	-0.942648	-34.220644
00388	16437612	0.181617	-9.799078	-0.096356				-0.004251	0.003695	-0.003043				-90.184746	-0.943523	-34.221701
00389	16437662	0.182427	-9.793273	-0.102571				-0.001915	0.001161	0.001366				-90.183269	-0.942547	-34.221899
00390	16437712	0.201704	-9.811267	-0.104863				-0.005361	0.000580	0.001501				-90.184810	-0.942119	-34.222074
00391	16437762	0.204769	-9.794443	-0.101522				-0.004187	0.001428	-0.005173				-90.183969	-0.943008	-34.222285
00392	16437812	0.203770	-9.781239	-0.096745				-0.005665	0.000025	-0.000493				-90.185585	-0.943150	-34.222285
00393	16437862	0.203381	-9.787932	-0.109384				-0.004533	0.004896	-0.000180				-90.184844	-0.942619	-34.223510
00394	16437912	0.195462	-9.791740	-0.114913				-0.005779	-0.002860	-0.001823				-90.186510	-0.943136	-34.222686
00395	16437962	0.204440	-9.797345	-0.097693				-0.005812	0.002604	-0.002310				-90.186150	-0.943217	-34.223232
00396	16438012	0.188505	-9.790440	-0.096381				-0.003421	0.001398	0.004291				-90.187134	-0.941990	-34.223644
00397	16438062	0.194120	-9.772400	-0.092880				-0.005318	-0.000334	-0.004183				-90.186641	-0.942599	-34.223319
00398	16438112	0.201833	-9.801297	-0.105403				-0.005465	0.002000	0.002853				-90.188197	-0.941785	-34.223891
00399	16438162	0.190372	-9.795326	-0.101796				-0.000891	-0.000184	-0.001470				-90.186436	-0.941615	-34.223653
00400	16438212	0.204079	-9.815638	-0.080723				-0.004705	-0.001058	0.000297				-90.187785	-0.941529	-34.223354
00401	16438262	0.176048	-9.797196	-0.084354				-0.006776	-0.001647	-0.003288				-90.187723	-0.941884	-34.222677
00402	16438312	0.170102	-9.799271	-0.093148				-0.002233	-0.000142	-0.000050				-90.188356	-0.941897	-34.222637
00403	16438362	0.173975	-9.796433	-0.104783				-0.007819	0.000115	-0.000387				-90.188580	-0.941418	-34.222499
00404	16438412	0.178267	-9.811301	-0.105612				-0.003298	-0.000907	-0.000695				-90.189527	-0.941612	-34.222242
00405	16438462	0.160478	-9.805654	-0.086734				-0.007489	-0.000434	-0.003407				-90.189645	-0.942002	-34.221918
00406	16438512	0.170230	-9.784567	-0.092708				-0.006484	0.004494	-0.004090				-90.191488	-0.943177	-34.223203
00407	16438562	0.154612	-9.806771	-0.095984				-0.004728	0.000487	-0.004145				-90.190821	-0.943781	-34.223150
00408	16438612	0.167971	-9.788837	-0.109998				-0.005858	0.000792	-0.001289				-90.192496	-0.944150	-34.223379
00409	16438662	0.163722	-9.776924	-0.101619				-0.007509	-0.001693	-0.001971				-90.192627	-0.944123	-34.222694
00410	16438712	0.189600	-9.782867	-0.110367				-0.007005	-0.003529	-0.001955				-90.194642	-0.944679	-34.221678
00411	16438762	0.203180	-9.791357	-0.102724				-0.003580	-0.000232	-0.001433				-90.193649	-0.944497	-34.221434
00412	16438812	0.197691	-9.789994	-0.118730				-0.004312	-0.002176	0.002860				-90.194888	-0.943677	-34.220812
00413	16438862	0.197514	-9.785299	-0.083950				-0.002816	-0.004034	0.000344				-90.193709	-0.942986	-34.219403
00414	16438912	0.207230	-9.773164	-0.094540				-0.002803	0.001558	-0.002322				-90.194515	-0.943656	-34.219852
00415	16438962	0.201288	-9.795445	-0.100447				-0.002667	0.004572	-0.000317				-90.193222	-0.943159	-34.220930
00416	16439012	0.197854	-9.771756	-0.085375				0.000975	0.000691	-0.001021				-90.192946	-0.943454	-34.221129
00417	16439062	0.203486	-9.801868	-0.097753				-0.007240	0.002196	0.000066				-90.193005	-0.942848	-34.221556
00418	16439112	0.205677	-9.809830	-0.087153				-0.006273	0.001085	0.002304				-90.194786	-0.942187	-34.221864
00419	16439162	0.186881	-9.803819	-0.076162				-0.001803	-0.002294	0.003430				-90.193303	-0.940615	-34.221022
00420	16439212	0.177747	-9.776557	-0.098710				-0.003570	-0.000586	-0.001301				-90.194316	-0.940986	-34.220848
00421	16439262	0.173532	-9.801050	-0.097966				-0.003180	-0.000678	-0.000635				-90.193213	-0.940580	-34.220444
00422	16439312	0.155815	-9.795452	-0.090710				-0.004365	0.003470	-0.001756				-90.194452	-0.941090	-34.221434
00423	16439362	0.158722	-9.803350	-0.114672				-0.004421	0.001606	0.004905				-90.193704	-0.939097	-34.221717
00424	16439412	0.166478	-9.800019	-0.108888				-0.003307	0.002094	-0.004593				-90.194642	-0.940414	-34.222311
00425	16439462	0.177542	-9.792145	-0.118502				0.002223	0.003945	-0.000267				-90.191959	-0.939904	-34.223251
00426	16439512	0.155894	-9.799973	-0.105033				-0.001310	-0.001965	0.000644				-90.192346	-0.939716	-34.222689
00427	16439562	0.164857	-9.808211	-0.102006				-0.005586	0.002381	-0.002147				-90.191922	-0.939744	-34.223184
00428	16439612	0.176065	-9.795812	-0.096986				-0.000168	-0.001784	-0.000644				-90.191975	-0.939927	-34.222668
00429	16439662	0.168256	-9.796086	-0.085571				-0.005713	-0.000890	-0.004023				-90.191606	-0.940492	-34.222221
00430	16439712	0.199310	-9.800629	-0.104865				-0.004397	0.001074	-0.003763				-90.192860	-0.941572	-34.222530
00431	16439762	0.175207	-9.779796	-0.105828				-0.003172	0.000229	-0.000691				-90.191756	-0.941180	-34.222400
00432	16439812	0.183890	-9.792110	-0.100190				-0.003602	0.002483	-0.002728				-90.192767	-0.941964	-34.223100
00433	16439862	0.205312	-9.774244	-0.102874				-0.003066	-0.000023	0.002093				-90.191628	-0.940775	-34.222890
00434	16439912	0.202492	-9.809613	-0.103879				-0.002526	-0.000082	-0.000858				-90.192354	-0.941020	-34.222866
00435	16439962	0.191589	-9.783983	-0.097772				-0.001614	0.002744	-0.000165				-90.190796	-0.940486	-34.223460
00436	16440012	0.190927	-9.795131	-0.098692				-0.008477	0.002518	-0.004935				-90.193215	-0.941902	-34.224175
00437	16440062	0.201072	-9.791039	-0.109434				-0.004266	-0.005802	0.001366				-90.192431	-0.940914	-34.222308
00438	16440112	0.208435	-9.797120	-0.093807				-0.004103	0.002247	-0.000487				-90.193593	-0.941054	-34.222955
00439	16440162	0.185798	-9.780334	-0.092880				-0.006101	-0.000435	0.001241				-90.193351	-0.940115	-34.222656
00440	16440212	0.196092	-9.789949	-0.106805				0.002012	0.002416	-0.001915				-90.192768	-0.940667	-34.223349
00441	16440262	0.174584	-9.789071	-0.104757				-0.005876	0.003739	-0.000825				-90.192404	-0.940309	-34.224232
00442	16440312	0.173262	-9.790017	-0.105612				-0.002117	-0.001053	-0.002848				-90.193017	-0.941124	-34.223928
00443	16440362	0.176931	-9.803430	-0.109754				-0.004898	0.001140	0.000281				-90.192392	-0.940456	-34.224025
00444	16440412	0.173252	-9.803954	-0.109254				-0.003310	0.002885	0.003275				-90.193313	-0.939516	-34.224848
00445	16440462	0.164254	-9.793811	-0.098116				-0.002255	-0.001025	-0.005510				-90.191955	-0.940508	-34.224367
00446	16440512	0.157166	-9.785516	-0.103176				-0.002459	-0.000241	-0.002041				-90.192659	-0.941091	-34.224298
00447	16440562	0.163791	-9.810299	-0.106011				-0.001696	-0.003309	-0.004437				-90.191138	-0.941770	-34.223167
00448	16440612	0.141787	-9.786632	-0.088958				-0.002494	0.004312	-0.000089				-90.191837	-0.941798	-34.224410
00449	16440662	0.155596	-9.796346	-0.094504				-0.002927	-0.001740	-0.002560				-90.190651	-0.941942	-34.223710
00450	16440712	0.158120	-9.789627	-0.081623				-0.002940	0.004849	-0.004384				-90.191469	-0.943205	-34.225090
00451	16440762	0.166564	-9.791516	-0.122178				-0.004820	0.001851	0.001059				-90.190835	-0.942312	-34.225447
00452	16440812	0.191173	-9.798966	-0.095666				-0.001834	0.001346	-0.003286				-90.191354	-0.943255	-34.225829
00453	16440862	0.187034	-9.776591	-0.104043				-0.003837	-0.000010	0.000369				-90.190435	-0.942560	-34.225570
00454	16440912	0.186049	-9.793211	-0.104068				-0.005016	-0.001353	-0.000629				-90.191862	-0.942735	-34.225173
00455	16440962	0.195817	-9.793361	-0.101685				-0.004180	0.000534	-0.001232				-90.191057	-0.942499	-34.225158
00456	16441012	0.207366	-9.794612	-0.088269				-0.001520	0.002784	0.000343				-90.191490	-0.942405	-34.225956
00457	16441062	0.201195	-9.785457	-0.102464				-0.004432	0.003599	-0.000671				-90.190711	-0.942005	-34.226785
00458	16441112	0.200408	-9.793137	-0.112429				-0.002096	0.001407	-0.001489				-90.191305	-0.942431	-34.227192
00459	16441162	0.210511	-9.799037	-0.106143				-0.005277	0.000705	-0.001582				-90.190798	-0.942299	-34.227178
00460	16441212	0.188620	-9.765868	-0.105463				-0.002050	0.001182	-0.000784				-90.191385	-0.942523	-34.227528
00461	16441262	0.204207	-9.819717	-0.092764				0.000436	-0.000579	-0.000805				-90.189255	-0.942169	-34.227159
00462	16441312	0.186696	-9.802670	-0.104898				-0.000967	0.000367	-0.000826				-90.189520	-0.942404	-34.227257
00463	16441362	0.178273	-9.795429	-0.104753				-0.003246	0.001325	-0.002641				-90.188431	-0.942575	-34.227445
00464	16441412	0.177349	-9.766147	-0.096875				-0.005300	0.002646	-0.001793				-90.189942	-0.943092	-34.228206
00465	16441462	0.163564	-9.796165	-0.099738				-0.007652	-0.003347	-0.003262				-90.190119	-0.943428	-34.227051
00466	16441512	0.171242	-9.810806	-0.097981				-0.006203	0.000694	-0.000393				-90.191902	-0.943544	-34.227250
00467	16441562	0.153807	-9.801800	-0.111653				-0.006559	0.002014	0.000226				-90.191738	-0.942887	-34.227595
00468	16441612	0.169573	-9.777896	-0.110251				-0.005341	0.005873	-0.002739				-90.193244	-0.943680	-34.229275
00469	16441662	0.158426	-9.785749	-0.102190				-0.003772	0.000562	-0.005624				-90.192317	-0.944700	-34.229254
00470	16441712	0.178722	-9.815862	-0.102538				-0.002356	0.000824	-0.000466				-90.192985	-0.944835	-34.229489
00471	16441762	0.177239	-9.792044	-0.094339				-0.001000	0.000294	-0.002396				-90.191244	-0.944927	-34.229364
00472	16441812	0.189270	-9.804137	-0.100192				-0.004903	0.001102	-0.001707				-90.192632	-0.945413	-34.229679
00473	16441862	0.190370	-9.800872	-0.095609				-0.000224	0.000152	-0.001050				-90.190697	-0.945128	-34.229495
00474	16441912	0.195029	-9.798619	-0.099871				-0.006702	0.002065	-0.004170				-90.192610	-0.946325	-34.230085
00475	16441962	0.192768	-9.799921	-0.094510				-0.004591	0.004633	-0.000695				-90.191888	-0.945940	-34.231198
00476	16442012	0.212205	-9.798760	-0.076773				-0.001386	-0.000680	-0.001571				-90.192291	-0.946387	-34.231003
00477	16442062	0.204226	-9.794475	-0.099586				-0.004794	0.000454	-0.002673				-90.191643	-0.946559	-34.230945
00478	16442112	0.194260	-9.773396	-0.105603				-0.005932	0.001176	-0.003438				-90.193331	-0.947543	-34.231277
00479	16442162	0.202475	-9.787192	-0.112033				-0.003663	0.000539	-0.000240				-90.192344	-0.947020	-34.231221
00480	16442212	0.200411	-9.797014	-0.107214				-0.004598	-0.000180	0.000784				-90.193669	-0.946796	-34.231172
00481	16442262	0.205137	-9.787210	-0.108465				-0.003932	0.002798	-0.002540				-90.192775	-0.946940	-34.231727
00482	16442312	0.180078	-9.784923	-0.107811				-0.003333	0.002097	-0.003244				-90.193722	-0.947874	-34.232326
00483	16442362	0.195619	-9.795024	-0.101453				-0.004388	0.000178	0.000338				-90.192958	-0.947181	-34.232184
00484	16442412	0.185420	-9.787581	-0.100171				-0.003855	0.002806	0.000805				-90.194055	-0.946954	-34.232989
00485	16442462	0.163665	-9.788486	-0.105420				-0.005601	0.001962	-0.002377				-90.193619	-0.947044	-34.233356
00486	16442512	0.185864	-9.791182	-0.113101				-0.002882	0.002206	-0.000905				-90.194436	-0.947306	-34.233984
00487	16442562	0.153252	-9.788445	-0.101101				-0.006419	-0.000901	-0.003957				-90.194263	-0.947843	-34.233519
00488	16442612	0.164480	-9.787089	-0.102370				0.000522	0.003140	0.000821				-90.194103	-0.947612	-34.234422
00489	16442662	0.176597	-9.804634	-0.078240				0.000174	0.001544	-0.003516				-90.192051	-0.948033	-34.234673
00490	16442712	0.169577	-9.802176	-0.105082				-0.001034	-0.001841	-0.002566				-90.192358	-0.948767	-34.234147
00491	16442762	0.163171	-9.802368	-0.097709				-0.005693	-0.000601	-0.004855				-90.191955	-0.949561	-34.233761
00492	16442812	0.159935	-9.779639	-0.113103				-0.006495	-0.004292	0.000132				-90.193825	-0.949516	-34.232529
00493	16442862	0.176326	-9.794363	-0.098607				-0.000081	-0.002597	-0.002510				-90.191861	-0.949645	-34.231574
00494	16442912	0.179199	-9.808991	-0.116660				-0.003622	-0.003111	-0.001957				-90.192912	-0.950203	-34.230683
00495	16442962	0.192975	-9.786563	-0.114073				-0.001360	0.000677	-0.000729				-90.191267	-0.949820	-34.230624
00496	16443012	0.181955	-9.810313	-0.105714				-0.003758	0.001644	0.000316				-90.192335	-0.949730	-34.231098
00497	16443062	0.197379	-9.790979	-0.085194				-0.005287	0.001126	-0.003154				-90.191820	-0.950041	-34.231200
00498	16443112	0.216852	-9.789541	-0.117153				-0.003961	-0.000469	-0.001691				-90.192949	-0.950524	-34.231059
00499	16443162	0.196572	-9.772991	-0.099353				-0.006452	0.000326	-0.003763				-90.192798	-0.951011	-34.230963
00500	16443212	0.191373	-9.792089	-0.111165				-0.001903	0.003446	-0.003050				-90.193320	-0.951884	-34.231948
00501	16443262	0.190747	-9.758573	-0.085137				-0.003525	-0.001748	-0.000381				-90.192335	-0.951406	-34.231241
00502	16443312	0.212628	-9.790240	-0.090497				-0.003877	0.003321	0.000226				-90.193425	-0.951343	-34.232193
00503	16443362	0.188773	-9.786707	-0.092579				-0.005422	0.002385	-0.001763				-90.192969	-0.951261	-34.232667
00504	16443412	0.190203	-9.808153	-0.116305				-0.003371	0.003161	-0.003882				-90.193915	-0.952373	-34.233570
00505	16443462	0.177967	-9.786034	-0.083523				-0.007530	0.000118	-0.001416				-90.194059	-0.952192	-34.233387
00506	16443512	0.162036	-9.777470	-0.097711				-0.004835	-0.000964	-0.000563				-90.195454	-0.952353	-34.233112
00507	16443562	0.158496	-9.774731	-0.109132				-0.001495	-0.002198	0.000288				-90.193873	-0.951674	-34.232295
00508	16443612	0.183636	-9.793229	-0.104460				-0.001557	-0.004266	0.000694				-90.194341	-0.951470	-34.231076
00509	16443662	0.172034	-9.800434	-0.092553				-0.005230	0.001420	-0.000452				-90.193818	-0.951007	-34.231279
00510	16443712	0.146250	-9.790135	-0.120150				-0.004101	0.001984	-0.004558				-90.194980	-0.952315	-34.231839
00511	16443762	0.149012	-9.805854	-0.098656				-0.006819	-0.001026	0.001787				-90.194918	-0.951209	-34.231351
00512	16443812	0.169880	-9.814605	-0.098859				-0.002579	-0.000377	-0.000789				-90.195665	-0.951438	-34.231244
00513	16443862	0.195242	-9.806745	-0.095728				-0.003996	-0.000010	-0.000402				-90.194796	-0.950955	-34.231041
00514	16443912	0.179344	-9.798894	-0.125889				-0.005867	0.002382	-0.000540				-90.196473	-0.951115	-34.231726
00515	16443962	0.175331	-9.786344	-0.111921				-0.005241	0.000706	-0.001226				-90.195958	-0.950873	-34.231718
00516	16444012	0.193566	-9.787683	-0.102391				-0.001654	-0.000069	0.000877				-90.196436	-0.950622	-34.231704
00517	16444062	0.198614	-9.801408	-0.100574				-0.004381	0.001381	0.004386				-90.195652	-0.948774	-34.231876
00518	16444112	0.188269	-9.795978	-0.107344				-0.002626	0.001141	-0.000910				-90.196384	-0.949035	-34.232193
00519	16444162	0.205741	-9.789614	-0.090561				-0.005232	0.000384	-0.002325				-90.195902	-0.949109	-34.232134
00520	16444212	0.190487	-9.779370	-0.105646				-0.009603	-0.001472	-0.003184				-90.198657	-0.950019	-34.231706
00521	16444262	0.188351	-9.789204	-0.085043				-0.008209	-0.001937	-0.003866				-90.199013	-0.950533	-34.230952
00522	16444312	0.180694	-9.778148	-0.115993				-0.005511	0.001221	-0.001093				-90.200595	-0.950847	-34.231306
00523	16444362	0.183787	-9.785788	-0.094895				-0.005107	0.000612	-0.000682				-90.200023	-0.950450	-34.231276
00524	16444412	0.188134	-9.782509	-0.104352				-0.006580	0.000522	-0.002544				-90.201910	-0.951178	-34.231427
00525	16444462	0.164755	-9.789237	-0.117126				-0.004042	0.000142	-0.002290				-90.201060	-0.951246	-34.231246
00526	16444512	0.193801	-9.809051	-0.085509				0.000680	0.001813	-0.002489				-90.200852	-0.951962	-34.231762
00527	16444562	0.175742	-9.804681	-0.106834				-0.004806	-0.000869	-0.001656				-90.200213	-0.951837	-34.231329
00528	16444612	0.167417	-9.786118	-0.101735				-0.001703	0.001352	-0.001264				-90.200692	-0.952200	-34.231716
00529	16444662	0.171749	-9.797180	-0.089148				-0.007059	-0.000713	-0.002095				-90.200724	-0.952205	-34.231325
00530	16444712	0.164353	-9.784507	-0.085920				-0.003514	0.001034	0.000539				-90.201725	-0.952053	-34.231623
00531	16444762	0.159015	-9.801760	-0.094363				-0.005572	-0.000145	-0.004181				-90.201324	-0.952657	-34.231365
00532	16444812	0.164695	-9.799914	-0.101487				-0.001151	-0.001027	-0.001055				-90.201654	-0.952957	-34.231070
00533	16444862	0.161979	-9.791717	-0.096670				-0.001717	-0.000358	-0.001338				-90.200126	-0.952744	-34.230763
00534	16444912	0.165714	-9.782853	-0.099811				-0.003053	-0.000544	-0.000628				-90.200996	-0.952922	-34.230599
00535	16444962	0.177988	-9.780626	-0.095855				-0.003850	0.000416	-0.000461				-90.200086	-0.952459	-34.230532
00536	16445012	0.194569	-9.809613	-0.094994				-0.002857	-0.000802	-0.001565				-90.200904	-0.952906	-34.230298
00537	16445062	0.169938	-9.779005	-0.114958				-0.004750	0.003698	0.001419				-90.200245	-0.951911	-34.231153
00538	16445112	0.198748	-9.808849	-0.125800				-0.007843	-0.000075	-0.000005				-90.202495	-0.951914	-34.231129
00539	16445162	0.186733	-9.784525	-0.113056				-0.002273	-0.001954	-0.000478				-90.201158	-0.951451	-34.230379
00540	16445212	0.206496	-9.806274	-0.101768				-0.004629	-0.000609	-0.001363				-90.202480	-0.951839	-34.230198
00541	16445262	0.213271	-9.803113	-0.101299				-0.003775	0.003162	0.001086				-90.201557	-0.950938	-34.230906
00542	16445312	0.195942	-9.800233	-0.101828				-0.000429	-0.001600	-0.001383				-90.201688	-0.951335	-34.230441
00543	16445362	0.187070	-9.783942	-0.103837				-0.003912	-0.000523	0.002708				-90.200793	-0.949960	-34.230089
00544	16445412	0.179053	-9.783104	-0.103286				-0.003034	0.000745	-0.001261				-90.201659	-0.950324	-34.230296
00545	16445462	0.197417	-9.788431	-0.096901				-0.005078	-0.001682	-0.002298				-90.201104	-0.950383	-34.229632
00546	16445512	0.180914	-9.793058	-0.118456				-0.004829	0.000814	-0.000071				-90.202474	-0.950401	-34.229864
00547	16445562	0.186660	-9.784771	-0.096623				-0.002640	-0.001735	-0.002241				-90.201240	-0.950451	-34.229160
00548	16445612	0.193317	-9.806863	-0.089213				-0.002517	-0.002445	-0.001157				-90.201981	-0.950779	-34.228463
00549	16445662	0.170844	-9.785711	-0.094821				-0.004455	0.001568	0.002917				-90.201248	-0.949352	-34.228704
00550	16445712	0.189540	-9.800753	-0.104016				-0.001594	0.000706	-0.002363				-90.201706	-0.950030	-34.228903
00551	16445762	0.174827	-9.792112	-0.091792				-0.005717	0.001573	-0.001960				-90.201327	-0.949997	-34.229149
00552	16445812	0.159772	-9.815074	-0.122535				-0.001656	0.000580	-0.002163				-90.201795	-0.950618	-34.229306
00553	16445862	0.145315	-9.781263	-0.095657				-0.001549	0.003787	0.001639				-90.200217	-0.949555	-34.230208
00554	16445912	0.168252	-9.787193	-0.108531				-0.005734	-0.001214	-0.003029				-90.201876	-0.950424	-34.229859
00555	16445962	0.170476	-9.816778	-0.111358				-0.002258	0.001534	-0.002544				-90.200516	-0.950559	-34.230081
00556	16446012	0.174583	-9.798809	-0.119359				-0.005201	-0.002623	-0.000859				-90.202014	-0.950803	-34.229327
00557	16446062	0.173814	-9.797007	-0.113546				-0.004744	0.003272	0.000262				-90.201346	-0.950136	-34.230038
00558	16446112	0.166850	-9.787719	-0.090587				-0.004860	-0.001057	0.000206				-90.202740	-0.950076	-34.229731
00559	16446162	0.179259	-9.790576	-0.110823				-0.006378	-0.000934	-0.002936				-90.202565	-0.950320	-34.229269
00560	16446212	0.194723	-9.787222	-0.100721				-0.003354	0.002104	0.001887				-90.203511	-0.949783	-34.229871
00561	16446262	0.199642	-9.810015	-0.095213				-0.003285	0.000481	-0.002745				-90.202435	-0.949974	-34.229803
00562	16446312	0.196273	-9.809351	-0.126400				-0.003991	0.003472	-0.004841				-90.203567	-0.951363	-34.230797
00563	16446362	0.199865	-9.797719	-0.092609				-0.005452	-0.002947	-0.001793				-90.203146	-0.951280	-34.229725
00564	16446412	0.192506	-9.800828	-0.097218				-0.007287	0.002810	0.000390				-90.205222	-0.951168	-34.230533
00565	16446462	0.190381	-9.779553	-0.093477				-0.001565	-0.000069	-0.001207				-90.203682	-0.950925	-34.230299
00566	16446512	0.206179	-9.802807	-0.095898				-0.001724	0.003900	-0.002505				-90.204152	-0.951644	-34.231411
00567	16446562	0.193138	-9.798378	-0.101399				-0.003338	0.001821	0.004324				-90.203097	-0.949812	-34.231742
00568	16446612	0.165612	-9.782358	-0.116367				-0.003478	0.002448	-0.002728				-90.204080	-0.950594	-34.232440
00569	16446662	0.167022	-9.779039	-0.099389				-0.005393	-0.000453	0.000757				-90.203620	-0.949782	-34.232126
00570	16446712	0.151896	-9.794272	-0.108879				-0.002431	0.004052	-0.003073				-90.204295	-0.950667	-34.233285
00571	16446762	0.176818	-9.806449	-0.114800				-0.006056	0.001114	-0.002254				-90.204014	-0.950713	-34.233332
00572	16446812	0.151764	-9.798087	-0.091841				-0.002377	0.002507	-0.000357				-90.204700	-0.950820	-34.234054
00573	16446862	0.174846	-9.806609	-0.105438				-0.003796	0.000602	-0.000942				-90.203774	-0.950498	-34.234020
00574	16446912	0.160805	-9.790457	-0.102721				-0.003257	-0.003491	-0.002313				-90.204727	-0.951157	-34.233014
00575	16446962	0.151462	-9.778162	-0.092083				-0.004136	0.000280	0.000567				-90.203899	-0.950400	-34.232886
00576	16447012	0.169878	-9.788401	-0.105887				-0.004208	0.001471	-0.002573				-90.205095	-0.951139	-34.233300
00577	16447062	0.177366	-9.799353	-0.112936				-0.006361	-0.001474	-0.000178				-90.204925	-0.950591	-34.232701
00578	16447112	0.177547	-9.795360	-0.094437				-0.006051	-0.001445	-0.005469				-90.206656	-0.952155	-34.232280
00579	16447162	0.189820	-9.807677	-0.101012				-0.005332	0.002517	-0.002664				-90.206189	-0.952333	-34.232790
00580	16447212	0.180444	-9.791685	-0.115019				-0.002357	-0.001507	-0.002433				-90.206871	-0.953028	-34.232355
00581	16447262	0.195178	-9.796610	-0.107145				-0.003342	-0.000484	0.000265				-90.205817	-0.952352	-34.232001
00582	16447312	0.195256	-9.782996	-0.097594				-0.003973	-0.002052	-0.002468				-90.206957	-0.953058	-34.231404
00583	16447362	0.186169	-9.775075	-0.111002				-0.003004	0.001844	-0.002417				-90.205811	-0.953153	-34.231730
00584	16447412	0.204269	-9.789005	-0.084952				-0.004262	0.001242	-0.000877				-90.207029	-0.953406	-34.232084
00585	16447462	0.188817	-9.789343	-0.106473				-0.003085	0.000557	0.002550				-90.205899	-0.952083	-34.232039
00586	16447512	0.190692	-9.801809	-0.096096				-0.003892	0.000536	-0.001617				-90.207014	-0.952545	-34.232195
00587	16447562	0.205086	-9.797254	-0.103486				-0.005575	0.000480	0.002015				-90.206602	-0.951376	-34.232117
00588	16447612	0.188032	-9.791383	-0.081901				-0.000364	0.002738	0.000730				-90.206694	-0.951167	-34.232902
00589	16447662	0.183257	-9.796079	-0.089187				-0.005199	0.004322	-0.003809				-90.206151	-0.951668	-34.233926
00590	16447712	0.174465	-9.793770	-0.107620				-0.003352	0.001434	0.006983				-90.207112	-0.949672	-34.234345
00591	16447762	0.162612	-9.789742	-0.085917				-0.002540	-0.000766	-0.001724				-90.205839	-0.949566	-34.233928
00592	16447812	0.182600	-9.798564	-0.097719				-0.000662	-0.000406	-0.001891				-90.206027	-0.950107	-34.233810
00593	16447862	0.160497	-9.790498	-0.099747				-0.000703	0.000179	0.000492				-90.204214	-0.949367	-34.233665
00594	16447912	0.189903	-9.804542	-0.104714				-0.001937	-0.003895	-0.004692				-90.204788	-0.950707	-34.232540
00595	16447962	0.158470	-9.798995	-0.104905				-0.005762	-0.000010	-0.001454				-90.204433	-0.950527	-34.232313
00596	16448012	0.180120	-9.792706	-0.110107				0.001157	0.003282	0.000437				-90.204086	-0.950403	-34.233254
00597	16448062	0.176977	-9.802736	-0.108451				-0.000063	-0.000044	-0.001980				-90.202101	-0.950378	-34.233027
00598	16448112	0.170170	-9.803733	-0.095803				-0.003687	0.002520	0.000191				-90.203139	-0.950325	-34.233747
00599	16448162	0.166143	-9.788638	-0.108625				0.000329	0.001642	-0.003738				-90.201042	-0.950804	-34.234019
00600	16448212	0.163292	-9.782823	-0.103689				-0.001861	0.002320	0.000124				-90.201568	-0.950772	-34.234687
00601	16448262	0.176539	-9.794300	-0.102326				-0.003973	0.000085	-0.000559				-90.200702	-0.950334	-34.234517
00602	16448312	0.180535	-9.772201	-0.101373				-0.003323	-0.001293	-0.001110				-90.201665	-0.950652	-34.234146
00603	16448362	0.197203	-9.793652	-0.097192				-0.006063	-0.000533	0.000145				-90.201393	-0.950010	-34.233794
00604	16448412	0.204757	-9.800827	-0.102746				-0.006437	-0.001127	-0.002486				-90.203243	-0.950721	-34.233470
00605	16448462	0.191361	-9.790804	-0.101890				-0.003339	-0.002076	-0.004391				-90.202212	-0.951385	-34.232657
00606	16448512	0.180484	-9.766887	-0.092350				-0.007033	0.001545	-0.003205				-90.204219	-0.952305	-34.233099
00607	16448562	0.188516	-9.797705	-0.087329				-0.003409	-0.002956	-0.004395				-90.203220	-0.952968	-34.232095
00608	16448612	0.185801	-9.802162	-0.108697				-0.007765	0.001373	-0.002790				-90.205422	-0.953768	-34.232476
00609	16448662	0.173771	-9.784947	-0.126853				-0.005515	0.001051	-0.003955				-90.205000	-0.954299	-34.232586
00610	16448712	0.184710	-9.796676	-0.110962				-0.003100	-0.002255	-0.000157				-90.205904	-0.954342	-34.231940
00611	16448762	0.186371	-9.783239	-0.103848				-0.003954	0.000829	0.000441				-90.205023	-0.953618	-34.231978
00612	16448812	0.182608	-9.806743	-0.105499				-0.004338	0.000670	0.002459				-90.206261	-0.952914	-34.232169
00613	16448862	0.173992	-9.797341	-0.107370				-0.005727	0.002897	-0.000253				-90.205896	-0.952396	-34.232795
00614	16448912	0.190214	-9.794795	-0.105539				-0.004074	-0.001022	-0.003580				-90.207065	-0.953423	-34.232491
00615	16448962	0.185067	-9.785082	-0.109066				-0.003958	0.000761	-0.001650				-90.206176	-0.953294	-34.232503
00616	16449012	0.158070	-9.801899	-0.100946				-0.002459	-0.000280	-0.001976				-90.206889	-0.953862	-34.232417
00617	16449062	0.160247	-9.788486	-0.092593				-0.001723	0.000897	-0.001652				-90.205377	-0.953737	-34.232458
00618	16449112	0.169071	-9.783918	-0.104641				-0.001630	0.000998	-0.001680				-90.205849	-0.954220	-34.232749
00619	16449162	0.175797	-9.808404	-0.096144				-0.006211	-0.001448	-0.004475				-90.205625	-0.954902	-34.232104
00620	16449212	0.178740	-9.810997	-0.094838				-0.003709	-0.000503	-0.006018				-90.206680	-0.956620	-34.231954
00621	16449262	0.197232	-9.797903	-0.082529				-0.004394	-0.000122	-0.004248				-90.205944	-0.957243	-34.231716
00622	16449312	0.181447	-9.792448	-0.080040				-0.005328	-0.000557	-0.002294				-90.207478	-0.957900	-34.231556
00623	16449362	0.199356	-9.797223	-0.110095				-0.003909	0.001788	-0.005782				-90.206588	-0.958964	-34.231848
00624	16449412	0.194020	-9.782860	-0.091812				-0.003370	0.002191	-0.003375				-90.207545	-0.959933	-34.232474
00625	16449462	0.202557	-9.794992	-0.098322				-0.000835	0.000042	-0.002496				-90.205773	-0.960054	-34.232250
00626	16449512	0.203316	-9.803324	-0.095742				-0.004741	0.004209	-0.001179				-90.207108	-0.960396	-34.233453
00627	16449562	0.218163	-9.797911	-0.111547				-0.009400	0.001340	-0.003622				-90.207811	-0.960837	-34.233628
00628	16449612	0.188830	-9.787460	-0.105026				-0.002404	0.003409	-0.000545				-90.208490	-0.960999	-34.234603
00629	16449662	0.182687	-9.792385	-0.099027				-0.006288	-0.002868	-0.002046				-90.208283	-0.960979	-34.233582
00630	16449712	0.174494	-9.809878	-0.093457				-0.001582	0.002781	0.000701				-90.208718	-0.960781	-34.234378
00631	16449762	0.207657	-9.803868	-0.102853				-0.001919	-0.001075	-0.001791				-90.207280	-0.960695	-34.233894
00632	16449812	0.178597	-9.789698	-0.091851				-0.005066	0.005466	-0.002100				-90.208700	-0.961303	-34.235456
00633	16449862	0.199111	-9.807780	-0.108968				-0.004598	-0.000013	0.003129				-90.208021	-0.959806	-34.235243
00634	16449912	0.165773	-9.793485	-0.111968				-0.008779	0.002494	0.000461				-90.210524	-0.959676	-34.235963
00635	16449962	0.172471	-9.791811	-0.122752				-0.002347	0.001570	0.000505				-90.209197	-0.958937	-34.236185
00636	16450012	0.174237	-9.782046	-0.109124				-0.004485	0.004242	-0.002396				-90.210468	-0.959628	-34.237406
00637	16450062	0.150946	-9.779142	-0.115918				-0.001649	0.000345	-0.003673				-90.208918	-0.960082	-34.237294
00638	16450112	0.180809	-9.793340	-0.124990				-0.003929	0.000800	0.000855				-90.210049	-0.959839	-34.237530
00639	16450162	0.160299	-9.797248	-0.103496				-0.003744	0.003161	-0.000866				-90.209118	-0.959492	-34.238218
00640	16450212	0.170473	-9.759035	-0.096198				-0.001797	0.000612	0.001717				-90.209620	-0.958998	-34.238397
00641	16450262	0.169965	-9.811189	-0.099178				-0.001977	-0.000168	-0.000855				-90.208195	-0.958651	-34.238154
00642	16450312	0.177562	-9.780634	-0.120669				-0.004250	0.005092	0.000241				-90.209395	-0.958589	-34.239619
00643	16450362	0.189706	-9.812394	-0.096901				-0.001185	0.002466	0.000536				-90.207711	-0.957838	-34.240157
00644	16450412	0.192355	-9.759201	-0.114272				-0.005273	0.000575	-0.003025				-90.209209	-0.958705	-34.240315
00645	16450462	0.191948	-9.779646	-0.095786				-0.004058	0.000923	-0.000721				-90.208359	-0.958308	-34.240376
00646	16450512	0.191706	-9.796579	-0.105883				-0.004707	-0.001089	-0.000085				-90.209717	-0.958335	-34.240062
00647	16450562	0.182682	-9.783382	-0.092160				-0.005328	0.003654	0.000069				-90.209215	-0.957716	-34.240901
00648	16450612	0.208317	-9.807002	-0.108818				-0.003895	-0.000238	-0.000437				-90.210335	-0.957842	-34.240830
00649	16450662	0.176682	-9.766972	-0.115164				-0.005852	0.000862	-0.000937				-90.210002	-0.957514	-34.240872
00650	16450712	0.204173	-9.804073	-0.101507				-0.000560	0.001732	0.000621				-90.210162	-0.957340	-34.241368
00651	16450762	0.172038	-9.782640	-0.118194				-0.003138	0.001270	0.000855				-90.209052	-0.956496	-34.241526
00652	16450812	0.197172	-9.802422	-0.122694				-0.006006	0.001502	-0.001381				-90.210773	-0.956893	-34.241961
00653	16450862	0.192485	-9.786954	-0.098749				-0.006445	0.002664	0.001000				-90.210599	-0.956012	-34.242472
00654	16450912	0.188772	-9.784203	-0.111099				-0.003812	0.001154	0.000148				-90.211696	-0.955971	-34.242805
00655	16450962	0.187325	-9.794867	-0.127992				-0.000601	0.003127	0.001911				-90.209840	-0.954828	-34.243479
00656	16451012	0.157303	-9.781897	-0.100916				-0.004613	-0.000191	-0.004824				-90.211155	-0.956207	-34.243416
00657	16451062	0.192339	-9.815450	-0.096773				-0.004665	-0.000989	0.002291				-90.210505	-0.954953	-34.242937
00658	16451112	0.181269	-9.785460	-0.096953				-0.004682	0.000496	0.002168				-90.211843	-0.954332	-34.243082
00659	16451162	0.169526	-9.787282	-0.096335				-0.002763	0.001066	-0.005403				-90.210623	-0.955282	-34.243159
00660	16451212	0.161575	-9.781643	-0.098802				-0.006641	0.001359	-0.002631				-90.212509	-0.956036	-34.243539
00661	16451262	0.154553	-9.793167	-0.110624				-0.001783	0.003139	0.001249				-90.211006	-0.955083	-34.244251
00662	16451312	0.172216	-9.799282	-0.131520				-0.007277	-0.003047	-0.002526				-90.213106	-0.955804	-34.243377
00663	16451362	0.167961	-9.778268	-0.112109				-0.001726	-0.000103	-0.001051				-90.211594	-0.955508	-34.243135
00664	16451412	0.173358	-9.790186	-0.088996				-0.005002	-0.000604	0.001944				-90.213041	-0.954952	-34.242968
00665	16451462	0.192640	-9.794435	-0.105600				-0.003996	0.002061	0.000443				-90.212175	-0.954227	-34.243347
00666	16451512	0.178756	-9.802136	-0.109829				-0.005984	0.001891	-0.001796				-90.213895	-0.954746	-34.243884
00667	16451562	0.180427	-9.797425	-0.106312				-0.004470	-0.000706	-0.003867				-90.213143	-0.955246	-34.243495
00668	16451612	0.191984	-9.778814	-0.103929				-0.002957	-0.001609	-0.000250				-90.214000	-0.955315	-34.243034
00669	16451662	0.186271	-9.766615	-0.099307				-0.003637	-0.000032	0.001974				-90.213066	-0.954151	-34.242836
00670	16451712	0.202926	-9.801689	-0.088439				-0.006599	0.000039	-0.001198				-90.214957	-0.954492	-34.242848
00671	16451762	0.205503	-9.779483	-0.095424				-0.004815	-0.001480	0.000299				-90.214334	-0.953808	-34.242209
00672	16451812	0.210756	-9.796767	-0.093531				-0.006039	-0.002602	-0.001697				-90.216078	-0.954291	-34.241462
00673	16451862	0.189535	-9.788659	-0.098304				-0.002787	0.001038	-0.003163				-90.214887	-0.954603	-34.241545
00674	16451912	0.182453	-9.798332	-0.107221				-0.003596	0.001549	0.000700				-90.215916	-0.954405	-34.241991
00675	16451962	0.171212	-9.797068	-0.090704				-0.005493	-0.000396	-0.000691				-90.215482	-0.953999	-34.241666
00676	16452012	0.169506	-9.789584	-0.100198				-0.001029	-0.001902	-0.001573				-90.215785	-0.954446	-34.241121
00677	16452062	0.163986	-9.786062	-0.102324				-0.002812	-0.000089	-0.000466				-90.214578	-0.953976	-34.240854
00678	16452112	0.177676	-9.794462	-0.115862				-0.004730	-0.003322	0.000421				-90.215943	-0.953851	-34.239899
00679	16452162	0.164656	-9.785556	-0.104049				-0.003164	0.001279	-0.009695				-90.214847	-0.956031	-34.240040
00680	16452212	0.147123	-9.781658	-0.109302				-0.007669	0.000174	-0.005261				-90.217044	-0.957538	-34.240088
00681	16452262	0.172557	-9.781178	-0.104766				-0.001505	0.002130	-0.002575				-90.215464	-0.957673	-34.240499
00682	16452312	0.182628	-9.811305	-0.096445				-0.005139	0.004589	-0.002073				-90.216915	-0.958272	-34.241809
00683	16452362	0.175375	-9.793883	-0.078216				-0.005858	0.001020	-0.001898				-90.216597	-0.958218	-34.241853
00684	16452412	0.189729	-9.798988	-0.105106				-0.003545	0.002707	-0.003114				-90.217602	-0.959112	-34.242627
00685	16452462	0.180805	-9.798971	-0.097783				-0.000086	-0.005638	-0.002524				-90.215656	-0.959225	-34.240803
00686	16452512	0.174981	-9.783004	-0.107420				-0.000904	-0.001967	-0.004077				-90.215920	-0.960392	-34.240228
00687	16452562	0.198398	-9.796317	-0.101750				-0.000997	-0.002965	-0.000779				-90.214219	-0.960010	-34.239170
00688	16452612	0.188023	-9.765391	-0.100636				-0.005358	-0.000618	0.000082				-90.215762	-0.959984	-34.238994
00689	16452662	0.197473	-9.795287	-0.108550				-0.006754	0.001909	-0.001855				-90.215688	-0.959919	-34.239356
00690	16452712	0.196553	-9.798584	-0.110197				-0.005990	-0.000890	0.000335				-90.217409	-0.959821	-34.239103
00691	16452762	0.198987	-9.787885	-0.094632				-0.004800	0.001945	-0.002124				-90.216765	-0.959828	-34.239442
00692	16452812	0.182108	-9.793526	-0.095582				0.000399	-0.000156	0.000097				-90.216648	-0.959798	-34.239396
00693	16452862	0.201880	-9.795694	-0.124881				-0.005461	0.000476	-0.002321				-90.216232	-0.959864	-34.239318
00694	16452912	0.195313	-9.801578	-0.101998				-0.003625	0.001620	0.002234				-90.217263	-0.959225	-34.239788
00695	16452962	0.176737	-9.804142	-0.104216				-0.000939	0.001761	0.001077				-90.215519	-0.958315	-34.240064
00696	16453012	0.197471	-9.798433	-0.103731				-0.003085	-0.001451	0.000999				-90.216414	-0.958027	-34.239652
00697	16453062	0.181430	-9.785197	-0.114007				-0.006909	-0.001325	-0.001203				-90.216414	-0.957770	-34.239083
00698	16453112	0.180162	-9.792602	-0.095730				-0.004605	0.000851	0.000344				-90.217727	-0.957670	-34.239329
00699	16453162	0.155350	-9.780758	-0.099334				-0.000519	-0.001860	-0.002245				-90.215869	-0.957708	-34.238570
00700	16453212	0.163391	-9.799737	-0.093178				-0.001007	0.002695	-0.000393				-90.216144	-0.957824	-34.239336
00701	16453262	0.162721	-9.796432	-0.107641				-0.004376	-0.001474	-0.001752				-90.215421	-0.957727	-34.238730
00702	16453312	0.189805	-9.802704	-0.094771				-0.002600	-0.001630	0.000291				-90.216169	-0.957641	-34.238262
00703	16453362	0.178495	-9.806386	-0.111506				-0.003865	-0.001068	0.003541				-90.215288	-0.956020	-34.237761
00704	16453412	0.157723	-9.793115	-0.111945				-0.004843	0.002398	-0.000927				-90.216668	-0.956289	-34.238449
00705	16453462	0.179512	-9.796537	-0.118278				-0.004115	-0.001769	-0.004067				-90.215843	-0.956847	-34.237728
00706	16453512	0.198178	-9.807137	-0.092394				-0.001636	0.001390	0.001489				-90.216313	-0.956424	-34.238129
00707	16453562	0.185303	-9.787737	-0.115460				-0.006732	0.002233	-0.002337				-90.216233	-0.956493	-34.238568
00708	16453612	0.194922	-9.802786	-0.101060				-0.003862	-0.000432	-0.001108				-90.217349	-0.956808	-34.238449
00709	16453662	0.183695	-9.788163	-0.104049				-0.001632	-0.000902	0.000490				-90.215822	-0.956067	-34.237999
00710	16453712	0.186955	-9.783676	-0.115608				-0.001869	-0.001593	-0.001954				-90.216355	-0.956623	-34.237535
00711	16453762	0.200693	-9.797225	-0.103270				-0.004177	0.003143	-0.005998				-90.215543	-0.957742	-34.238201
00712	16453812	0.206157	-9.801240	-0.115317				-0.006389	-0.000314	0.000437				-90.217380	-0.957617	-34.238118
00713	16453862	0.204509	-9.799971	-0.090517				-0.004663	0.001885	0.001020				-90.216708	-0.956719	-34.238438
00714	16453912	0.198099	-9.790402	-0.116980				-0.007876	-0.003248	-0.000921				-90.218972	-0.956979	-34.237504
00715	16453962	0.186395	-9.784916	-0.097891				-0.003709	0.001796	-0.003762				-90.218019	-0.957461	-34.237798
00716	16454012	0.198774	-9.801826	-0.098031				-0.005376	-0.002372	-0.002883				-90.219574	-0.958284	-34.237118
00717	16454062	0.181567	-9.802314	-0.111242				-0.002524	0.000821	-0.001489				-90.218309	-0.958114	-34.237157
00718	16454112	0.161765	-9.816195	-0.103952				-0.003771	-0.002207	-0.000766				-90.219414	-0.958333	-34.236533
00719	16454162	0.160881	-9.793838	-0.093003				-0.005342	-0.002034	0.001811				-90.218947	-0.957204	-34.235722
00720	16454212	0.150404	-9.776265	-0.118563				-0.004978	-0.001649	-0.002005				-90.220384	-0.957776	-34.235250
00721	16454262	0.162162	-9.794017	-0.095919				-0.004818	0.001623	-0.000098				-90.219760	-0.957208	-34.235493
00722	16454312	0.167063	-9.799067	-0.102641				-0.004475	-0.000581	-0.004955				-90.221056	-0.958627	-34.235329
00723	16454362	0.175857	-9.796048	-0.075803				-0.005188	0.000032	-0.001554				-90.220529	-0.958471	-34.235104
00724	16454412	0.169784	-9.812605	-0.099511				-0.004948	-0.001649	-0.002494				-90.221953	-0.959184	-34.234626
00725	16454462	0.163961	-9.795983	-0.089551				-0.000704	-0.002857	0.001214				-90.220185	-0.958229	-34.233599
00726	16454512	0.186199	-9.817561	-0.087729				-0.000051	0.000735	-0.001977				-90.220201	-0.958797	-34.233808
00727	16454562	0.197130	-9.797672	-0.107573				-0.004879	-0.001879	-0.003747				-90.219611	-0.959264	-34.233046
00728	16454612	0.187603	-9.788198	-0.114402				-0.002950	0.000298	-0.000305				-90.220454	-0.959348	-34.233130
00729	16454662	0.203440	-9.791243	-0.119568				-0.004420	0.002079	-0.001129				-90.219713	-0.959071	-34.233523
00730	16454712	0.169692	-9.797292	-0.108134				-0.004216	0.002733	-0.002245				-90.220905	-0.959717	-34.234300
00731	16454762	0.205944	-9.803611	-0.115507				-0.004608	0.000978	-0.001615				-90.220220	-0.959579	-34.234375
00732	16454812	0.210425	-9.788759	-0.105431				-0.003129	0.000814	0.000463				-90.221114	-0.959449	-34.234605
00733	16454862	0.195900	-9.788883	-0.093518				-0.005833	0.001056	-0.002316				-90.220784	-0.959506	-34.234709
00734	16454912	0.185570	-9.775601	-0.117827				-0.004712	0.001269	-0.000009				-90.222127	-0.959512	-34.235067
00735	16454962	0.190491	-9.795020	-0.099966				0.000177	0.000941	0.001069				-90.220067	-0.958606	-34.235134
00736	16455012	0.171465	-9.782707	-0.083205				-0.004790	-0.000218	-0.000139				-90.221442	-0.958647	-34.235075
00737	16455062	0.191244	-9.791870	-0.103991				-0.005086	0.001843	-0.002123				-90.220902	-0.958652	-34.235376
00738	16455112	0.189300	-9.808831	-0.098158				-0.004465	0.000101	-0.004634				-90.222186	-0.959981	-34.235399
00739	16455162	0.186019	-9.795944	-0.105885				-0.005872	0.000474	0.000855				-90.221857	-0.959133	-34.235342
00740	16455212	0.186581	-9.804295	-0.102224				-0.005046	0.002717	-0.000604				-90.223288	-0.959308	-34.236124
00741	16455262	0.185229	-9.803693	-0.111569				-0.003930	0.000732	-0.000267				-90.222428	-0.958780	-34.236097
00742	16455312	0.176120	-9.806107	-0.100199				-0.003151	0.001486	-0.001549				-90.223332	-0.959224	-34.236522
00743	16455362	0.175790	-9.815067	-0.104417				-0.006396	0.001823	-0.000416				-90.223129	-0.958740	-34.236850
00744	16455412	0.181948	-9.794477	-0.096346				-0.001904	0.000405	-0.003646				-90.223679	-0.959786	-34.236971
00745	16455462	0.186526	-9.796625	-0.107199				-0.001208	0.001945	-0.000718				-90.222009	-0.959392	-34.237292
00746	16455512	0.199168	-9.790655	-0.114941				-0.001545	-0.002981	-0.003022				-90.222469	-0.960253	-34.236439
00747	16455562	0.199222	-9.782022	-0.089875				-0.006361	0.001360	-0.005300				-90.222295	-0.961170	-34.236615
00748	16455612	0.194548	-9.792817	-0.101023				-0.002416	-0.000408	-0.001627				-90.222991	-0.961637	-34.236495
00749	16455662	0.187016	-9.795771	-0.100448				-0.001582	-0.002722	-0.002348				-90.221463	-0.961702	-34.235500
00750	16455712	0.202291	-9.798580	-0.106067				-0.000396	-0.002800	-0.002606				-90.221583	-0.962443	-34.234692
00751	16455762	0.182417	-9.791724	-0.105566				-0.004227	-0.002089	-0.001729				-90.220816	-0.962337	-34.233878
00752	16455812	0.201012	-9.806281	-0.115234				-0.003391	-0.001233	-0.001439				-90.221793	-0.962746	-34.233529
00753	16455862	0.183772	-9.800868	-0.111295				-0.002372	0.002117	-0.003119				-90.220449	-0.963038	-34.233980
00754	16455912	0.197711	-9.796412	-0.111536				-0.002269	-0.003349	-0.001319				-90.221125	-0.963414	-34.233024
00755	16455962	0.193668	-9.794197	-0.120306				-0.006982	0.002531	0.003310				-90.221106	-0.961863	-34.233556
00756	16456012	0.182167	-9.792075	-0.113233				-0.004916	-0.002547	0.000519				-90.222521	-0.961712	-34.232820
00757	16456062	0.173343	-9.780322	-0.113671				-0.005186	0.001834	-0.003307				-90.222000	-0.962058	-34.233134
00758	16456112	0.165071	-9.789268	-0.108992				-0.000071	0.002413	-0.002674				-90.222005	-0.962824	-34.233821
00759	16456162	0.191526	-9.785342	-0.096227				-0.001676	-0.001585	-0.000867				-90.220508	-0.962470	-34.233185
00760	16456212	0.167101	-9.786837	-0.111691				-0.003001	0.002041	0.000346				-90.221351	-0.962374	-34.233765
00761	16456262	0.191105	-9.796965	-0.081133				-0.003359	-0.000325	-0.002234				-90.220312	-0.962408	-34.233446
00762	16456312	0.164157	-9.799990	-0.107116				-0.003652	0.002322	-0.000226				-90.221341	-0.962475	-34.234104
00763	16456362	0.183786	-9.807412	-0.101892				-0.002912	0.000907	-0.002195				-90.220198	-0.962505	-34.234166
00764	16456412	0.173798	-9.793722	-0.105213				-0.000088	0.001125	0.000592				-90.220220	-0.962336	-34.234491
00765	16456462	0.177343	-9.797787	-0.116106				-0.005392	0.000346	-0.001676				-90.219765	-0.962215	-34.234357
00766	16456512	0.173747	-9.807876	-0.110318				-0.003154	0.000686	0.001623				-90.220664	-0.961749	-34.234560
00767	16456562	0.180967	-9.799953	-0.111171				-0.006882	0.000639	-0.005075				-90.220650	-0.962606	-34.234513
00768	16456612	0.174584	-9.784696	-0.121554				-0.003144	0.001097	-0.002709				-90.221535	-0.963382	-34.234820
00769	16456662	0.178931	-9.780287	-0.095936				-0.002805	0.001555	-0.003406				-90.220338	-0.963751	-34.235061
00770	16456712	0.183542	-9.804254	-0.092113				-0.003248	-0.002916	-0.003786				-90.221286	-0.964834	-34.234224
00771	16456762	0.193121	-9.778190	-0.096762				-0.005823	-0.001114	-0.001398				-90.220965	-0.964628	-34.233694
00772	16456812	0.183874	-9.779922	-0.100231				-0.001297	0.000676	-0.002006				-90.221336	-0.965204	-34.233885
00773	16456862	0.198444	-9.783761	-0.116660				-0.003552	0.000499	-0.005982				-90.220366	-0.966318	-34.233807
00774	16456912	0.204131	-9.800371	-0.096097				-0.004369	0.001401	-0.002605				-90.221624	-0.967069	-34.234210
00775	16456962	0.189727	-9.798952	-0.107196				-0.002720	0.002976	-0.002670				-90.220380	-0.967233	-34.234854
00776	16457012	0.181300	-9.765187	-0.088808				-0.004781	0.005367	-0.003354				-90.221726	-0.968201	-34.236386
00777	16457062	0.193207	-9.793899	-0.109649				-0.003840	-0.001241	-0.002334				-90.220833	-0.968257	-34.235814
00778	16457112	0.177789	-9.791739	-0.092372				-0.004847	0.001458	-0.000360				-90.222217	-0.968362	-34.236233
00779	16457162	0.181516	-9.779336	-0.093776				-0.002080	-0.000178	-0.003581				-90.220822	-0.968788	-34.235954
00780	16457212	0.185678	-9.797607	-0.121230				-0.006572	0.003172	-0.002173				-90.222694	-0.969414	-34.236859
00781	16457262	0.183866	-9.794364	-0.101899				-0.002692	0.002144	-0.001549				-90.221466	-0.969257	-34.237246
00782	16457312	0.165575	-9.784088	-0.106130				-0.002421	0.000892	0.000977				-90.222157	-0.968979	-34.237503
00783	16457362	0.170813	-9.779887	-0.112415				-0.001775	-0.001390	0.001702				-90.220670	-0.967873	-34.236915
00784	16457412	0.186111	-9.804547	-0.101009				-0.001674	0.000253	-0.001724				-90.221155	-0.968367	-34.236991
00785	16457462	0.153741	-9.785869	-0.107799				-0.003265	-0.000838	-0.000051				-90.220093	-0.967781	-34.236535
00786	16457512	0.182752	-9.792599	-0.094008				-0.000191	-0.000683	0.002474				-90.220146	-0.967071	-34.236342
00787	16457562	0.191801	-9.803375	-0.095670				-0.000083	0.001635	-0.002327				-90.218181	-0.967137	-34.236604
00788	16457612	0.170317	-9.792044	-0.109631				-0.004712	0.000167	-0.002001				-90.219525	-0.967711	-34.236649
00789	16457662	0.185111	-9.821887	-0.100587				-0.005759	-0.000269	0.000242				-90.219199	-0.967035	-34.236351
00790	16457712	0.184686	-9.782410	-0.107325				-0.008652	0.001164	-0.000574				-90.221670	-0.967197	-34.236680
00791	16457762	0.184284	-9.767999	-0.103930				-0.005189	0.000966	-0.003055				-90.221150	-0.967468	-34.236753
00792	16457812	0.200017	-9.799742	-0.078341				-0.005016	-0.000588	-0.004061				-90.222588	-0.968631	-34.236576
00793	16457862	0.196422	-9.799175	-0.103037				-0.006022	0.000410	0.002139				-90.222322	-0.967412	-34.236503
00794	16457912	0.203230	-9.820505	-0.098980				-0.006665	0.001072	-0.001867				-90.224230	-0.967951	-34.236806
00795	16457962	0.190408	-9.793770	-0.089012				-0.003393	-0.000032	-0.000691				-90.223228	-0.967546	-34.236632
00796	16458012	0.191593	-9.785054	-0.114616				-0.000657	0.002861	0.001048				-90.223407	-0.967249	-34.237452
00797	16458062	0.202951	-9.789887	-0.115052				-0.003995	0.001957	-0.000775				-90.222527	-0.966866	-34.237807
00798	16458112	0.200251	-9.789356	-0.105827				-0.002822	-0.000932	-0.002719				-90.223342	-0.967644	-34.237539
00799	16458162	0.167126	-9.782154	-0.107577				-0.002822	0.002269	-0.002377				-90.222162	-0.967721	-34.237990
00800	16458212	0.197177	-9.792009	-0.090547				-0.004472	-0.001678	-0.004741				-90.223465	-0.969080	-34.237511
00801	16458262	0.178444	-9.779842	-0.078494				-0.007003	-0.000129	0.000701				-90.223445	-0.968272	-34.237221
00802	16458312	0.188693	-9.787336	-0.091949				-0.004885	0.001783	-0.000325				-90.224844	-0.968366	-34.237738
00803	16458362	0.166202	-9.779178	-0.085471				0.000963	-0.000061	-0.002214				-90.222570	-0.968392	-34.237517
00804	16458412	0.161676	-9.803380	-0.104467				-0.001998	0.002246	-0.004946				-90.223129	-0.969813	-34.238153
00805	16458462	0.187304	-9.790718	-0.089236				-0.001992	0.000252	-0.000696				-90.221714	-0.969407	-34.238002
00806	16458512	0.180573	-9.784121	-0.107471				-0.006052	0.000278	0.001888				-90.223458	-0.968866	-34.238090
00807	16458562	0.176584	-9.804184	-0.101973				-0.006331	0.000850	0.000094				-90.223257	-0.968236	-34.238108
00808	16458612	0.157390	-9.775045	-0.099065				0.001878	0.005685	-0.001475				-90.222699	-0.968667	-34.239739
00809	16458662	0.176528	-9.795616	-0.103351				-0.001313	-0.000030	-0.001722				-90.221076	-0.968547	-34.239522
00810	16458712	0.164641	-9.795288	-0.104104				-0.006237	-0.001644	-0.005052				-90.222872	-0.969992	-34.239049
00811	16458762	0.175087	-9.798553	-0.098748				-0.001966	0.001480	-0.001648				-90.221435	-0.969866	-34.239258
00812	16458812	0.180552	-9.796238	-0.106521				-0.004279	0.000662	-0.001651				-90.222655	-0.970338	-34.239448
00813	16458862	0.177521	-9.785423	-0.102718				-0.006040	0.000571	-0.000230				-90.222391	-0.969799	-34.239385
00814	16458912	0.184348	-9.775842	-0.102581				-0.001529	-0.000193	-0.001401				-90.222826	-0.970199	-34.239326
00815	16458962	0.173993	-9.786857	-0.104107				-0.005763	-0.001980	0.000106				-90.222489	-0.969559	-34.238551
00816	16459012	0.188785	-9.771512	-0.102891				-0.002164	0.001926	-0.001007				-90.223100	-0.969848	-34.239107
00817	16459062	0.191553	-9.777665	-0.102183				-0.003383	0.000574	-0.003256				-90.222078	-0.970179	-34.239044
00818	16459112	0.192546	-9.803947	-0.103891				-0.001748	-0.001590	-0.001088				-90.222586	-0.970488	-34.238593
00819	16459162	0.210290	-9.813362	-0.110027				-0.003959	0.002964	0.001604				-90.221726	-0.969429	-34.239227
00820	16459212	0.192436	-9.798747	-0.087753				-0.000886	0.000686	-0.002494				-90.221973	-0.970143	-34.239416
00821	16459262	0.188094	-9.793797	-0.089052				-0.003318	-0.000328	-0.001269				-90.220926	-0.969901	-34.239116
00822	16459312	0.211069	-9.833943	-0.112935				-0.004544	0.002111	-0.000070				-90.222228	-0.969923	-34.239725
00823	16459362	0.184196	-9.796021	-0.117594				-0.006008	0.001697	-0.001605				-90.221948	-0.969783	-34.239985
00824	16459412	0.152946	-9.781887	-0.105418				-0.003760	0.001609	-0.000866				-90.223022	-0.970033	-34.240448
00825	16459462	0.175697	-9.792455	-0.109290				-0.001151	0.000238	0.001036				-90.221341	-0.969129	-34.240292
00826	16459512	0.163766	-9.785028	-0.108102				-0.003495	0.002228	-0.000869				-90.222338	-0.969384	-34.240927
00827	16459562	0.168709	-9.795974	-0.102140				-0.004742	-0.000066	-0.003991				-90.221714	-0.969917	-34.240692
00828	16459612	0.172539	-9.793204	-0.125057				-0.000662	0.005089	-0.000767				-90.221887	-0.970144	-34.242157
00829	16459662	0.199886	-9.807747	-0.113492				-0.000097	0.001959	-0.003130				-90.219888	-0.970432	-34.242490
00830	16459712	0.167089	-9.788061	-0.093700				-0.002308	-0.000954	-0.002465				-90.220557	-0.971139	-34.242212
00831	16459762	0.176961	-9.777167	-0.099776				-0.003605	0.002905	-0.000901				-90.219579	-0.970794	-34.242851
00832	16459812	0.180210	-9.794809	-0.091377				-0.003856	0.000538	-0.000299				-90.220690	-0.970882	-34.243011
00833	16459862	0.166166	-9.803165	-0.076889				-0.003751	0.000083	-0.002644				-90.219750	-0.971028	-34.242806
00834	16459912	0.183325	-9.805467	-0.095392				-0.005249	0.002070	-0.000960				-90.221237	-0.971306	-34.243395
00835	16459962	0.193739	-9.791849	-0.109543				-0.002400	0.001080	-0.001650				-90.219961	-0.971179	-34.243497
00836	16460012	0.191083	-9.795984	-0.104546				-0.005239	0.000644	-0.001286				-90.221458	-0.971546	-34.243681
00837	16460062	0.199953	-9.807570	-0.115507				-0.000345	0.000890	-0.001653				-90.219550	-0.971409	-34.243706
00838	16460112	0.170592	-9.801560	-0.113522				-0.003105	-0.001264	-0.003548				-90.220451	-0.972426	-34.243341
00839	16460162	0.200919	-9.799792	-0.095998				-0.005479	0.001153	-0.002567				-90.220004	-0.972552	-34.243416
00840	16460212	0.188518	-9.781840	-0.100932				-0.003690	0.001415	-0.000675				-90.221053	-0.972746	-34.243824
00841	16460262	0.188236	-9.776543	-0.106419				-0.004296	-0.001695	0.001169				-90.220305	-0.971807	-34.243141
00842	16460312	0.182280	-9.799108	-0.093822				-0.008357	0.001108	-0.000121				-90.222699	-0.971844	-34.243459
00843	16460362	0.167695	-9.787791	-0.100872				-0.005233	0.002450	-0.001338				-90.222189	-0.971619	-34.243935
00844	16460412	0.176961	-9.778670	-0.099952				-0.003801	0.002297	0.002860				-90.223265	-0.970804	-34.244594
00845	16460462	0.186737	-9.810925	-0.108255				-0.002767	-0.004546	0.000860				-90.222083	-0.969946	-34.243067
00846	16460512	0.173464	-9.813443	-0.094069				-0.002269	-0.002347	-0.002437				-90.222749	-0.970644	-34.242392
00847	16460562	0.169520	-9.794975	-0.110669				-0.002933	-0.001482	-0.002552				-90.221605	-0.970762	-34.241759
00848	16460612	0.156206	-9.795031	-0.117790				-0.005021	-0.002229	-0.001591				-90.223052	-0.971218	-34.241113
00849	16460662	0.182122	-9.792501	-0.107094				-0.001044	0.001556	-0.003543				-90.221356	-0.971631	-34.241324
00850	16460712	0.170360	-9.795847	-0.099597				-0.003287	0.001910	-0.000516				-90.222285	-0.971779	-34.241868
00851	16460762	0.166833	-9.802998	-0.115402				-0.002436	0.002045	-0.004140				-90.220975	-0.972360	-34.242253
00852	16460812	0.160474	-9.782001	-0.097163				-0.002757	-0.001065	-0.003193				-90.221761	-0.973272	-34.241942
00853	16460862	0.174687	-9.788897	-0.115968				-0.003093	0.001521	-0.002247				-90.220653	-0.973311	-34.242164
00854	16460912	0.189197	-9.790730	-0.092942				-0.000857	0.001715	-0.004886				-90.220883	-0.974712	-34.242643
00855	16460962	0.175534	-9.792459	-0.099448				-0.004605	0.001982	-0.001249				-90.220196	-0.974465	-34.242995
00856	16461012	0.178135	-9.790422	-0.106332				-0.001918	0.001454	0.001824				-90.220734	-0.973942	-34.243408
00857	16461062	0.185769	-9.791674	-0.096356				-0.003752	-0.000755	-0.002329				-90.219805	-0.973998	-34.242939
00858	16461112	0.195021	-9.805632	-0.090937				-0.003431	0.000094	-0.001869				-90.220786	-0.974534	-34.242962
00859	16461162	0.190914	-9.783157	-0.090418				-0.004145	-0.000833	-0.005150				-90.219993	-0.975398	-34.242510
00860	16461212	0.173269	-9.808082	-0.119063				-0.003952	0.002574	-0.001696				-90.221125	-0.975889	-34.243254
00861	16461262	0.211706	-9.808340	-0.102517				-0.004363	-0.000633	0.000944				-90.220384	-0.975010	-34.242848
00862	16461312	0.184384	-9.797289	-0.087007				-0.004061	-0.000142	-0.000650				-90.221546	-0.975197	-34.242801
00863	16461362	0.184281	-9.794049	-0.112408				-0.004023	-0.005673	-0.002927				-90.220740	-0.975414	-34.240967
00864	16461412	0.192901	-9.784369	-0.102404				-0.002494	0.001919	-0.003020				-90.221442	-0.976283	-34.241506
00865	16461462	0.193912	-9.795408	-0.093362				-0.007135	0.001740	-0.002434				-90.221473	-0.976373	-34.241787
00866	16461512	0.181280	-9.791720	-0.096541				-0.002241	0.001086	-0.001327				-90.222111	-0.976754	-34.242096
00867	16461562	0.184893	-9.787176	-0.111677				-0.003602	-0.000427	-0.001141				-90.221159	-0.976474	-34.241754
00868	16461612	0.179106	-9.800456	-0.100794				-0.000208	-0.001664	-0.003815				-90.221227	-0.977567	-34.241270
00869	16461662	0.186378	-9.796063	-0.103616				-0.005189	0.002065	-0.002629				-90.220711	-0.977714	-34.241646
00870	16461712	0.178071	-9.802852	-0.100373				-0.003684	0.000124	-0.000974				-90.221769	-0.977994	-34.241678
00871	16461762	0.169009	-9.797572	-0.111808				-0.002258	0.004867	-0.000883				-90.220398	-0.977637	-34.242885
00872	16461812	0.186836	-9.793424	-0.104823				-0.006698	0.000165	-0.001577				-90.222323	-0.978088	-34.242938
00873	16461862	0.173230	-9.787885	-0.121379				-0.001907	-0.002365	-0.000668				-90.220872	-0.977668	-34.242048
00874	16461912	0.158414	-9.801048	-0.110104				-0.002853	0.000004	-0.003698				-90.221686	-0.978725	-34.242043
00875	16461962	0.161425	-9.780704	-0.103890				-0.004596	-0.001380	-0.000879				-90.221023	-0.978362	-34.241412
00876	16462012	0.192762	-9.790037	-0.088745				-0.004464	-0.001308	0.001329				-90.222308	-0.977981	-34.241035
00877	16462062	0.188060	-9.809766	-0.105672				-0.002293	0.000497	-0.004029				-90.220984	-0.978525	-34.240998
00878	16462112	0.193295	-9.792757	-0.112221				-0.002126	0.000275	-0.003707				-90.221590	-0.979586	-34.241077
00879	16462162	0.189965	-9.781043	-0.105080				-0.005464	-0.000133	0.001114				-90.221152	-0.978655	-34.240806
00880	16462212	0.173566	-9.782289	-0.099223				-0.005455	0.000216	-0.002988				-90.222715	-0.979510	-34.240867
00881	16462262	0.178848	-9.791569	-0.092940				-0.003597	-0.001589	-0.000889				-90.221761	-0.979157	-34.240191
00882	16462312	0.197254	-9.797065	-0.091193				-0.004560	0.002465	-0.001826				-90.223054	-0.979681	-34.240895
00883	16462362	0.186084	-9.795494	-0.109917				-0.009211	0.002936	0.000112				-90.223685	-0.979042	-34.241543
00884	16462412	0.208281	-9.818057	-0.105819				-0.004870	-0.000901	-0.000466				-90.225091	-0.979175	-34.241291
00885	16462462	0.171859	-9.777181	-0.108722				-0.002708	-0.001187	-0.000630				-90.223886	-0.978747	-34.240721
00886	16462512	0.172416	-9.808052	-0.105780				-0.001042	-0.001315	-0.000121				-90.224194	-0.978780	-34.240348
00887	16462562	0.167511	-9.792643	-0.109330				-0.007538	-0.002596	-0.000270				-90.224383	-0.978241	-34.239365
00888	16462612	0.177597	-9.791658	-0.087944				-0.003970	0.000283	0.000603				-90.225519	-0.978069	-34.239444
00889	16462662	0.186144	-9.811029	-0.117749				-0.005580	-0.000657	-0.000137				-90.225114	-0.977494	-34.239037
00890	16462712	0.162764	-9.789677	-0.105570				-0.003246	-0.000551	-0.002199				-90.226043	-0.978123	-34.238872
00891	16462762	0.179786	-9.798309	-0.101329				-0.000681	0.000237	-0.003096				-90.224240	-0.978403	-34.238721
00892	16462812	0.167947	-9.773872	-0.095745				-0.001604	0.003454	-0.000767				-90.224684	-0.978625	-34.239713
00893	16462862	0.157895	-9.802568	-0.104289				-0.002162	0.001569	-0.001481				-90.223315	-0.978441	-34.239936
00894	16462912	0.177163	-9.802276	-0.107786				-0.002027	-0.000691	-0.001145				-90.223899	-0.978769	-34.239732
00895	16462962	0.167292	-9.793912	-0.119894				-0.007027	0.001151	-0.006219				-90.223907	-0.979939	-34.239844
00896	16463012	0.174611	-9.791133	-0.094154				-0.004171	0.002341	-0.002722				-90.225089	-0.980722	-34.240510
00897	16463062	0.176596	-9.787458	-0.115065				-0.003128	0.000612	-0.003795				-90.223988	-0.981198	-34.240460
00898	16463112	0.183517	-9.780964	-0.099981				-0.004334	0.002500	-0.002561				-90.225221	-0.981938	-34.241170
00899	16463162	0.180144	-9.800131	-0.105684				-0.003570	0.000902	0.001500				-90.224236	-0.980893	-34.241228
00900	16463212	0.176855	-9.780129	-0.098028				-0.005362	0.002677	-0.001209				-90.225756	-0.981243	-34.241991
00901	16463262	0.188523	-9.784307	-0.095016				-0.005731	0.001089	-0.001124				-90.225415	-0.980959	-34.242083
00902	16463312	0.183495	-9.768633	-0.115730				-0.003708	-0.004248	-0.001220				-90.226503	-0.981307	-34.240864
00903	16463362	0.194332	-9.802977	-0.110030				-0.002646	0.000717	-0.002773				-90.225284	-0.981487	-34.240863
00904	16463412	0.190603	-9.785345	-0.102261				-0.000609	0.000010	-0.004253				-90.225454	-0.982705	-34.240856
00905	16463462	0.186255	-9.774825	-0.096214				-0.006467	0.003375	0.000432				-90.225269	-0.981965	-34.241605
00906	16463512	0.183493	-9.775770	-0.098198				-0.002561	0.000073	-0.002549				-90.226009	-0.982694	-34.241626
00907	16463562	0.192220	-9.809867	-0.095881				-0.003547	0.001865	-0.002954				-90.225032	-0.982936	-34.241931
00908	16463612	0.194338	-9.811531	-0.093460				0.000416	0.001359	-0.001204				-90.224902	-0.983282	-34.242313
00909	16463662	0.182391	-9.787352	-0.102094				-0.004901	0.002401	0.000424				-90.224291	-0.982548	-34.242786
00910	16463712	0.179636	-9.792510	-0.093245				-0.004514	-0.003226	-0.003683				-90.225600	-0.983598	-34.241859
00911	16463762	0.185389	-9.787599	-0.114643				-0.006934	0.001452	-0.002500				-90.225581	-0.983702	-34.242035
00912	16463812	0.172126	-9.799669	-0.111919				-0.005009	0.000715	-0.000356				-90.227024	-0.983807	-34.242240
00913	16463862	0.172581	-9.792788	-0.111814				-0.000729	-0.000220	-0.003001				-90.225233	-0.984052	-34.241959
00914	16463912	0.186115	-9.801804	-0.099956				-0.002906	-0.000053	0.000340				-90.226073	-0.983954	-34.241949
00915	16463962	0.165391	-9.795292	-0.108244				-0.004795	0.001073	0.001124				-90.225448	-0.983026	-34.242017
00916	16464012	0.170756	-9.789309	-0.107569				-0.004153	0.005196	0.000437				-90.226608	-0.982905	-34.243504
00917	16464062	0.165483	-9.787598	-0.099674				-0.004905	0.001295	-0.001220				-90.226017	-0.982643	-34.243664
00918	16464112	0.193051	-9.804843	-0.097532				-0.001198	-0.001350	0.001157				-90.226373	-0.982311	-34.243281
00919	16464162	0.179669	-9.795061	-0.096739				-0.002275	0.002183	-0.000967				-90.225010	-0.981973	-34.243698
00920	16464212	0.173847	-9.777931	-0.119764				-0.002486	0.000791	-0.001548				-90.225715	-0.982417	-34.243923
00921	16464262	0.208739	-9.805326	-0.115156				-0.001468	-0.004401	-0.002386				-90.224160	-0.982481	-34.242436
00922	16464312	0.221902	-9.800640	-0.100645				-0.004038	-0.001857	-0.001246				-90.225323	-0.982837	-34.241901
00923	16464362	0.179527	-9.780436	-0.107062				-0.010174	-0.003552	-0.002547				-90.226278	-0.982953	-34.240669
00924	16464412	0.200492	-9.802153	-0.112547				-0.005980	-0.001211	-0.000302				-90.227999	-0.983038	-34.240327
00925	16464462	0.173749	-9.800432	-0.106902				-0.005350	-0.000648	0.000215				-90.227540	-0.982361	-34.239908
00926	16464512	0.175923	-9.783890	-0.101377				-0.004146	-0.001341	0.000431				-90.228727	-0.982235	-34.239523
00927	16464562	0.210545	-9.797551	-0.125864				-0.000045	0.000410	-0.002430				-90.226768	-0.982326	-34.239423
00928	16464612	0.179511	-9.795265	-0.114269				-0.001412	-0.000747	-0.000539				-90.227179	-0.982482	-34.239206
00929	16464662	0.200500	-9.791718	-0.096750				-0.005970	0.000503	0.000253				-90.226894	-0.981798	-34.239133
00930	16464712	0.178604	-9.804268	-0.100535				-0.000168	-0.001659	-0.001473				-90.226942	-0.982216	-34.238657
00931	16464762	0.166976	-9.789736	-0.098929				-0.003965	-0.000171	-0.001904				-90.226092	-0.982150	-34.238356
00932	16464812	0.176565	-9.797788	-0.106866				-0.003833	0.001092	0.001054				-90.227185	-0.981849	-34.238670
00933	16464862	0.168226	-9.806853	-0.110728				-0.006695	0.002168	-0.002300				-90.227106	-0.981897	-34.239066
00934	16464912	0.157365	-9.783500	-0.095311				-0.005199	0.002585	-0.001790				-90.228581	-0.982416	-34.239804
00935	16464962	0.179072	-9.789438	-0.123580				-0.001529	-0.001392	-0.002271				-90.227018	-0.982448	-34.239173
00936	16465012	0.166536	-9.791522	-0.105842				-0.002940	0.000907	-0.002670				-90.227842	-0.983213	-34.239425
00937	16465062	0.185423	-9.792500	-0.104286				-0.003071	-0.000130	-0.002708				-90.226755	-0.983378	-34.239175
00938	16465112	0.177374	-9.792401	-0.117423				-0.004855	0.000519	-0.003726				-90.228153	-0.984447	-34.239320
00939	16465162	0.176848	-9.780099	-0.100434				-0.005244	-0.001033	0.000917				-90.227656	-0.983565	-34.238810
00940	16465212	0.187618	-9.797073	-0.082383				-0.001772	0.002684	0.000127				-90.228148	-0.983532	-34.239579
00941	16465262	0.194657	-9.805341	-0.110214				-0.001106	0.001652	-0.002100				-90.226467	-0.983522	-34.239815
00942	16465312	0.197689	-9.772289	-0.097941				-0.006872	0.001647	-0.001506				-90.228416	-0.983954	-34.240284
00943	16465362	0.195568	-9.789914	-0.109989				-0.000239	0.003931	0.000194				-90.226506	-0.983292	-34.241242
00944	16465412	0.196466	-9.784060	-0.104343				-0.002718	0.001110	-0.001327				-90.227273	-0.983670	-34.241556
00945	16465462	0.178482	-9.784530	-0.088268				-0.007268	-0.000978	-0.000166				-90.227365	-0.983109	-34.241057
00946	16465512	0.180054	-9.781722	-0.115473				-0.002907	0.000843	-0.003220				-90.228187	-0.984033	-34.241286
00947	16465562	0.194178	-9.788404	-0.101747				-0.007696	0.001307	-0.003717				-90.228388	-0.984479	-34.241450
00948	16465612	0.182806	-9.781601	-0.090063				-0.001676	-0.002924	-0.005065				-90.228872	-0.985924	-34.240603
00949	16465662	0.182882	-9.786009	-0.112206				-0.005228	0.000519	0.000830				-90.228401	-0.985082	-34.240552
00950	16465712	0.182522	-9.791329	-0.121036				-0.001484	0.001684	0.001211				-90.228812	-0.984733	-34.241038
00951	16465762	0.181549	-9.794777	-0.098043				-0.004833	0.000872	-0.002702				-90.228191	-0.984897	-34.241047
00952	16465812	0.166358	-9.795418	-0.099614				-0.002554	0.001820	-0.003213				-90.228906	-0.985817	-34.241561
00953	16465862	0.166305	-9.796021	-0.106825				-0.004087	0.000994	0.001151				-90.228086	-0.984875	-34.241623
00954	16465912	0.165430	-9.796792	-0.103463				-0.003113	-0.000776	-0.001394				-90.228977	-0.985273	-34.241396
00955	16465962	0.163659	-9.789267	-0.100626				-0.005434	0.002805	-0.002234				-90.228538	-0.985303	-34.241965
00956	16466012	0.166789	-9.784068	-0.112649				-0.008259	0.002918	-0.002229				-90.230890	-0.985944	-34.242798
00957	16466062	0.190607	-9.809319	-0.101647				-0.003148	-0.000906	-0.003260				-90.229823	-0.986264	-34.242328
00958	16466112	0.170692	-9.789680	-0.114565				-0.005405	0.000569	-0.005230				-90.231372	-0.987764	-34.242486
00959	16466162	0.184302	-9.777347	-0.087995				-0.004753	-0.000285	-0.000137				-90.230734	-0.987187	-34.242178
00960	16466212	0.175610	-9.780253	-0.090816				-0.002690	0.001203	-0.000490				-90.231497	-0.987328	-34.242522
00961	16466262	0.195011	-9.801815	-0.107573				-0.000495	0.000927	0.001011				-90.229652	-0.986427	-34.242579
00962	16466312	0.192085	-9.807656	-0.085126				-0.002362	0.003898	-0.001983				-90.230300	-0.986993	-34.243694
00963	16466362	0.180981	-9.784828	-0.098021				-0.005156	0.001062	-0.002507				-90.229797	-0.987108	-34.243797
00964	16466412	0.191889	-9.816201	-0.115893				-0.005766	0.004420	0.001076				-90.231426	-0.986803	-34.245065
00965	16466462	0.184129	-9.788010	-0.104322				-0.005581	-0.000620	0.000310				-90.231038	-0.986098	-34.244671
00966	16466512	0.190370	-9.803458	-0.112973				-0.005934	0.000305	-0.002318				-90.232733	-0.986761	-34.244759
00967	16466562	0.186703	-9.771421	-0.100968				-0.004764	-0.000092	-0.000906				-90.232113	-0.986403	-34.244493
00968	16466612	0.194655	-9.798450	-0.111025				-0.004506	-0.000919	0.002778				-90.233403	-0.985607	-34.244225
00969	16466662	0.189926	-9.799227	-0.095188				-0.003451	0.001902	-0.001255				-90.232407	-0.985351	-34.244560
00970	16466712	0.173907	-9.790613	-0.112813				-0.003392	0.000196	0.000761				-90.233383	-0.985135	-34.244617
00971	16466762	0.178723	-9.778320	-0.106131				-0.002941	-0.002063	-0.000633				-90.232256	-0.984703	-34.243839
00972	16466812	0.175184	-9.793953	-0.095113				-0.002112	0.001888	-0.004432				-90.232853	-0.985974	-34.244380
00973	16466862	0.169838	-9.806893	-0.106564				-0.002205	0.001959	-0.001636				-90.231478	-0.985833	-34.244692
00974	16466912	0.183328	-9.793550	-0.114775				-0.004074	0.001278	-0.000549				-90.232641	-0.985994	-34.245054
00975	16466962	0.161317	-9.807969	-0.105105				-0.004447	0.000748	-0.004722				-90.231925	-0.986730	-34.245023
00976	16467012	0.168689	-9.801759	-0.102241				-0.003894	-0.000730	-0.005724				-90.233035	-0.988369	-34.244804
00977	16467062	0.163890	-9.791136	-0.102560				-0.003426	0.002199	-0.001374				-90.232012	-0.988146	-34.245212
00978	16467112	0.178184	-9.797139	-0.085988				-0.005309	-0.000229	-0.001614				-90.233537	-0.988609	-34.245140
00979	16467162	0.194003	-9.791963	-0.101654				-0.002496	0.002852	-0.004876				-90.232256	-0.989394	-34.245750
00980	16467212	0.181562	-9.804262	-0.113976				0.000870	0.000782	-0.002396				-90.232009	-0.990080	-34.245978
00981	16467262	0.185075	-9.813127	-0.105449				-0.003781	-0.000747	0.001495				-90.231091	-0.989034	-34.245527
00982	16467312	0.186313	-9.783526	-0.116544				-0.004719	0.000323	-0.003920				-90.232440	-0.990156	-34.245615
00983	16467362	0.193138	-9.805823	-0.110850				-0.005849	0.001896	0.000353				-90.232117	-0.989448	-34.245941
00984	16467412	0.197428	-9.811895	-0.098354				-0.005324	0.001720	0.003303				-90.233628	-0.988502	-34.246437
00985	16467462	0.181624	-9.794288	-0.083154				-0.003653	-0.000811	0.000241				-90.232690	-0.987817	-34.245982
00986	16467512	0.187153	-9.777637	-0.098038				-0.003636	0.002443	-0.004455				-90.233708	-0.989094	-34.246672
00987	16467562	0.184343	-9.812367	-0.093681				-0.001746	0.000741	0.000402				-90.232236	-0.988370	-34.246675
00988	16467612	0.206396	-9.795967	-0.108895				-0.004082	0.001533	-0.002606				-90.233401	-0.989120	-34.247110
00989	16467662	0.179691	-9.801788	-0.075674				-0.002199	0.001387	0.003714				-90.232037	-0.987441	-34.247287
00990	16467712	0.202690	-9.811755	-0.103358				-0.002706	-0.000372	0.000141				-90.232798	-0.987400	-34.247173
00991	16467762	0.171835	-9.799809	-0.102493				-0.003034	0.000943	-0.000612				-90.231692	-0.986966	-34.247254
00992	16467812	0.176098	-9.789084	-0.102522				-0.003765	-0.001697	-0.003194				-90.232784	-0.987884	-34.246761
00993	16467862	0.187071	-9.786116	-0.101336				-0.000720	-0.001209	0.002061				-90.231009	-0.986672	-34.246171
00994	16467912	0.179418	-9.807287	-0.103985				-0.005001	0.004195	-0.003740				-90.232416	-0.987746	-34.247368
00995	16467962	0.168084	-9.803174	-0.103002				-0.005425	-0.000457	-0.000647				-90.231996	-0.987321	-34.247019
00996	16468012	0.172524	-9.797929	-0.101319				-0.004441	0.000049	0.000922				-90.233280	-0.987060	-34.247040
00997	16468062	0.174777	-9.806365	-0.090531				-0.001769	-0.003953	-0.002508				-90.231830	-0.987159	-34.245701
00998	16468112	0.170457	-9.788243	-0.084216				-0.000383	0.000146	-0.001781				-90.231938	-0.987668	-34.245744
00999	16468162	0.182595	-9.814080	-0.107406				-0.003669	-0.002596	-0.001952				-90.231003	-0.987609	-34.244775
01000	16468212	0.178871	-9.799571	-0.112664				-0.005134	0.000189	-0.003151				-90.232462	-0.988511	-34.244826
01001	16468262	0.189511	-9.808007	-0.079972				-0.000300	-0.000727	-0.003012				-90.230573	-0.988756	-34.244415
01002	16468312	0.180164	-9.797417	-0.097011				-0.001283	0.002067	-0.003372				-90.230918	-0.989725	-34.244996
01003	16468362	0.169382	-9.800603	-0.114979				-0.005364	-0.003725	-0.002431				-90.230502	-0.989803	-34.243715
01004	16468412	0.194993	-9.813716	-0.120614				-0.002610	0.001626	-0.000653				-90.231243	-0.989992	-34.244177
01005	16468462	0.179641	-9.769717	-0.109687				-0.003239	0.003425	-0.001215				-90.230171	-0.989733	-34.244935
01006	16468512	0.183821	-9.773753	-0.090615				-0.001626	0.004201	-0.000670				-90.230617	-0.989931	-34.246131
01007	16468562	0.180726	-9.804830	-0.092945				-0.002962	0.000487	-0.002962				-90.229468	-0.990165	-34.246027
01008	16468612	0.201852	-9.813241	-0.099890				-0.006514	0.002297	-0.002851				-90.231326	-0.990985	-34.246683
01009	16468662	0.184356	-9.784432	-0.105244				-0.004676	0.000038	-0.001615				-90.230677	-0.990831	-34.246471
01010	16468712	0.158684	-9.767673	-0.090035				-0.004680	0.000397	-0.000226				-90.232018	-0.990897	-34.246588
01011	16468762	0.191619	-9.800717	-0.104745				-0.003180	-0.001353	0.001423				-90.230961	-0.989874	-34.245993
01012	16468812	0.170336	-9.803649	-0.116430				-0.004116	-0.001370	-0.000915				-90.232140	-0.990136	-34.245589
01013	16468862	0.165675	-9.794932	-0.116579				-0.001183	0.002270	-0.000549				-90.230485	-0.989680	-34.246036
01014	16468912	0.180843	-9.807917	-0.108378				-0.006156	0.001206	-0.001600				-90.232243	-0.990141	-34.246382
01015	16468962	0.164421	-9.804840	-0.105875				-0.004710	-0.000239	0.005031				-90.231604	-0.988086	-34.246092
01016	16469012	0.174933	-9.791962	-0.116919				-0.003856	0.000539	-0.000075				-90.232706	-0.988109	-34.246244
01017	16469062	0.176759	-9.803090	-0.101052				-0.001842	0.001506	-0.004242				-90.231244	-0.988711	-34.246478
01018	16469112	0.176916	-9.789547	-0.087481				-0.004072	-0.002898	-0.002559				-90.232423	-0.989439	-34.245647
01019	16469162	0.170683	-9.805239	-0.090065				-0.003769	-0.001369	-0.003290				-90.231518	-0.989766	-34.245033
01020	16469212	0.171855	-9.784099	-0.090727				-0.000899	0.001138	-0.002388				-90.231783	-0.990454	-34.245358
01021	16469262	0.185814	-9.788120	-0.110968				-0.001670	0.003424	-0.001220				-90.230257	-0.990192	-34.246117
01022	16469312	0.188596	-9.809063	-0.088932				-0.003174	0.002067	-0.003308				-90.231160	-0.991143	-34.246708
01023	16469362	0.188665	-9.793019	-0.098767				-0.002725	0.001300	-0.001129				-90.229931	-0.990854	-34.246869
01024	16469412	0.181482	-9.781232	-0.115054				-0.004525	0.001627	-0.000931				-90.231210	-0.991121	-34.247330
01025	16469462	0.194398	-9.796149	-0.091633				-0.004535	0.000688	-0.001867				-90.230541	-0.991042	-34.247303
01026	16469512	0.192755	-9.793069	-0.107657				-0.003243	-0.000583	-0.000336				-90.231478	-0.991138	-34.247141
01027	16469562	0.189077	-9.795079	-0.087669				-0.001819	-0.001139	-0.001115				-90.230016	-0.990840	-34.246618
01028	16469612	0.190317	-9.788507	-0.097851				-0.004668	-0.000252	-0.001550				-90.231347	-0.991284	-34.246544
01029	16469662	0.184201	-9.784547	-0.128912				-0.001855	-0.003081	-0.001000				-90.229910	-0.990954	-34.245429
01030	16469712	0.178275	-9.782898	-0.102294				-0.002643	0.004860	0.000587				-90.230641	-0.990790	-34.246819
01031	16469762	0.194843	-9.787479	-0.114837				-0.010315	0.001333	0.000237				-90.231616	-0.990112	-34.246963
01032	16469812	0.179870	-9.793292	-0.103259				-0.003737	-0.002074	0.000523				-90.232705	-0.989961	-34.246375
01033	16469862	0.173650	-9.793563	-0.106401				-0.005791	0.002254	0.000518				-90.232347	-0.989198	-34.246767
01034	16469912	0.168448	-9.788779	-0.113041				-0.002240	0.001076	-0.001141				-90.232982	-0.989527	-34.247072
01035	16469962	0.220607	-9.808749	-0.114546				-0.005198	0.003583	-0.001025				-90.232487	-0.989211	-34.247884
01036	16470012	0.191143	-9.808857	-0.116005				-0.003184	-0.002721	-0.001960				-90.233412	-0.989769	-34.247102
01037	16470062	0.175972	-9.800382	-0.108263				-0.001604	-0.001685	0.000866				-90.231902	-0.988909	-34.246399
01038	16470112	0.158203	-9.783763	-0.092630				-0.003171	0.000323	-0.000173				-90.232812	-0.988960	-34.246495
01039	16470162	0.167993	-9.789529	-0.111232				-0.006532	0.005272	-0.001360				-90.232674	-0.988738	-34.247762
01040	16470212	0.185750	-9.787735	-0.105203				-0.003909	-0.001695	0.000615				-90.233798	-0.988559	-34.247277
01041	16470262	0.177529	-9.792642	-0.101278				-0.001725	0.002090	-0.001904				-90.232298	-0.988489	-34.247638
01042	16470312	0.168809	-9.795449	-0.110856				-0.002507	0.001462	-0.002196				-90.233023	-0.989123	-34.248058
01043	16470362	0.191382	-9.792262	-0.114855				-0.004585	0.002232	-0.001514				-90.232332	-0.988946	-34.248446
01044	16470412	0.186078	-9.782500	-0.090426				-0.005809	0.000595	-0.002126				-90.233989	-0.989556	-34.248611
01045	16470462	0.183042	-9.786825	-0.089735				-0.009837	0.000205	-0.000932				-90.234833	-0.989205	-34.248454
01046	16470512	0.185745	-9.803416	-0.104021				-0.003918	0.002441	-0.001897				-90.235940	-0.989752	-34.249150
01047	16470562	0.182763	-9.801298	-0.089120				-0.003068	0.001065	-0.001427				-90.234837	-0.989549	-34.249248
01048	16470612	0.193726	-9.812162	-0.114628				-0.004004	-0.003154	-0.002027				-90.235998	-0.990124	-34.248340
01049	16470662	0.200201	-9.789499	-0.117982				-0.003806	0.003090	-0.000004				-90.235082	-0.989512	-34.248984
01050	16470712	0.193093	-9.781351	-0.097850				-0.003905	0.002018	-0.002319				-90.236189	-0.990177	-34.249558
01051	16470762	0.195243	-9.790146	-0.095180				-0.000776	-0.001543	-0.000034				-90.234435	-0.989576	-34.248891
01052	16470812	0.196428	-9.800215	-0.103122				-0.003581	-0.004311	-0.001328				-90.235489	-0.989952	-34.247658
01053	16470862	0.205037	-9.801181	-0.110308				-0.002803	0.002652	-0.002098				-90.234319	-0.989934	-34.248211
01054	16470912	0.187038	-9.800495	-0.092080				-0.004363	-0.000734	-0.000885				-90.235574	-0.990185	-34.248001
01055	16470962	0.183027	-9.799284	-0.097375				-0.004631	-0.000453	-0.001754				-90.234903	-0.990075	-34.247644
01056	16471012	0.188006	-9.782933	-0.091845				-0.004397	-0.000507	-0.000533				-90.236159	-0.990224	-34.247498
01057	16471062	0.165795	-9.780246	-0.115048				-0.007145	-0.000079	-0.003856				-90.236238	-0.990719	-34.247261
01058	16471112	0.164519	-9.779483	-0.103408				-0.003617	0.003123	-0.001413				-90.237257	-0.991126	-34.248155
01059	16471162	0.169646	-9.799012	-0.094921				-0.007691	0.000210	-0.000937				-90.237488	-0.990778	-34.247997
01060	16471212	0.167120	-9.801865	-0.096299				-0.004222	-0.000247	-0.002101				-90.238700	-0.991379	-34.247921
01061	16471262	0.182158	-9.811036	-0.120597				-0.005507	0.001959	-0.002856				-90.238274	-0.991581	-34.248271
01062	16471312	0.177309	-9.790623	-0.109788				-0.004823	-0.001553	-0.002076				-90.239656	-0.992173	-34.247822
01063	16471362	0.179422	-9.791353	-0.106905				-0.006165	-0.001574	-0.001241				-90.239448	-0.991910	-34.247150
01064	16471412	0.171621	-9.794261	-0.109060				-0.006329	0.001491	-0.002953				-90.241251	-0.992756	-34.247572
01065	16471462	0.181422	-9.784139	-0.111433				-0.003168	-0.001809	0.001321				-90.240206	-0.991764	-34.246838
01066	16471512	0.164233	-9.783860	-0.113132				-0.007761	-0.000028	-0.004658				-90.242434	-0.993099	-34.246830
01067	16471562	0.197875	-9.803308	-0.116323				-0.004508	0.003050	0.000446				-90.241727	-0.992359	-34.247484
01068	16471612	0.193055	-9.805663	-0.121224				0.000551	-0.001302	-0.003694				-90.241581	-0.993418	-34.247108
01069	16471662	0.185595	-9.785365	-0.105398				-0.002076	-0.001281	-0.003269				-90.240188	-0.993738	-34.246511
01070	16471712	0.196974	-9.788413	-0.113919				-0.005769	0.002379	-0.000804				-90.241822	-0.993970	-34.247188
01071	16471762	0.183465	-9.792455	-0.109053				-0.003450	0.002936	-0.001059				-90.240834	-0.993660	-34.247801
01072	16471812	0.176363	-9.785436	-0.092650				-0.001457	0.003940	-0.001319				-90.241233	-0.994045	-34.248924
01073	16471862	0.183439	-9.792325	-0.101710				-0.006967	0.001774	0.000513				-90.241257	-0.993285	-34.249204
01074	16471912	0.170962	-9.780241	-0.110693				-0.002863	-0.000580	-0.001883				-90.242085	-0.993823	-34.249042
