// General information: 
//  MT Manager version: 2022.0.0 
//  XDA version: 2022.0.0 build 7085 rev 119802 built on 2022-11-08
// Device information: 
//  DeviceId: 037004D1
//  ProductCode: MTi-300-2A5G4
//  Firmware Version: 1.4.1
//  Hardware Version: 2.1.0
// Device settings: 
//  Filter Profile: general(39.16)
//  Option Flags: Orientation Smoother Disabled, Position/Velocity Smoother Disabled, Continuous Zero Rotation Update Disabled, AHS Disabled, ICC Disabled
// Coordinate system: ENU
PacketCounter	SampleTimeFine	Acc_X	Acc_Y	Acc_Z	AccHR_X	AccHR_Y	AccHR_Z	Gyr_X	Gyr_Y	Gyr_Z	GyrHR_X	GyrHR_Y	GyrHR_Z	Roll	Pitch	Yaw
00001	1945774	-0.237792	9.813272	0.316180				-0.004309	-0.001371	-0.002141				87.733018	1.567727	-40.401062
00002	1945824	-0.274144	9.822599	0.328481				-0.003008	0.001107	-0.002866				87.732166	1.568561	-40.400776
00003	1945874	-0.240148	9.792706	0.325416				0.000792	0.000435	-0.000735				87.734440	1.568001	-40.400924
00004	1945924	-0.270320	9.812184	0.314576				-0.002319	-0.001333	-0.000410				87.733760	1.568100	-40.401305
00005	1945974	-0.274558	9.845865	0.311102				-0.004556	0.001603	-0.001670				87.734520	1.567834	-40.401142
00006	1946024	-0.248724	9.811032	0.298630				-0.002112	-0.000682	0.000843				87.733915	1.567580	-40.401338
00007	1946074	-0.244202	9.813128	0.320336				-0.007062	-0.000449	-0.000685				87.733946	1.567006	-40.401706
00008	1946124	-0.237762	9.817712	0.305566				-0.003241	-0.002807	-0.001574				87.732993	1.567422	-40.402528
00009	1946174	-0.231981	9.810293	0.313985				-0.004887	0.000719	-0.001200				87.733668	1.567011	-40.402619
00010	1946224	-0.267717	9.824450	0.321319				-0.004501	0.001500	-0.003660				87.732391	1.568080	-40.402231
00011	1946274	-0.225550	9.802314	0.328953				-0.001945	0.000934	-0.002230				87.733885	1.567956	-40.402241
00012	1946324	-0.239230	9.800767	0.310604				-0.001936	0.003650	-0.002729				87.733348	1.568778	-40.401216
00013	1946374	-0.224999	9.805410	0.313477				-0.003768	-0.000263	-0.002781				87.734322	1.568796	-40.401588
00014	1946424	-0.235686	9.810900	0.318075				-0.004557	-0.001866	-0.005063				87.733003	1.570224	-40.402181
00015	1946474	-0.217590	9.804963	0.333264				-0.002661	-0.000992	-0.004292				87.734297	1.570670	-40.402793
00016	1946524	-0.242652	9.803963	0.315962				-0.002543	0.002670	-0.001193				87.733576	1.571036	-40.402043
00017	1946574	-0.232467	9.798470	0.311292				-0.002447	0.003973	0.000544				87.734964	1.570157	-40.401143
00018	1946624	-0.255146	9.821600	0.316284				-0.005154	0.001531	0.001923				87.733506	1.569624	-40.400696
00019	1946674	-0.246922	9.817095	0.307094				-0.005271	0.002682	-0.004295				87.734061	1.570120	-40.400234
00020	1946724	-0.242060	9.819434	0.298114				-0.002103	0.001539	-0.005177				87.733466	1.571616	-40.399850
00021	1946774	-0.239926	9.819360	0.304619				-0.002641	0.001567	-0.002901				87.734789	1.571694	-40.399711
00022	1946824	-0.230941	9.820555	0.310861				-0.003587	0.003167	-0.003467				87.733789	1.572724	-40.398842
00023	1946874	-0.240218	9.806659	0.312121				-0.005537	-0.004137	-0.000226				87.734215	1.571969	-40.400289
00024	1946924	-0.240021	9.805002	0.327708				-0.005750	0.001002	0.002111				87.732569	1.571374	-40.399977
00025	1946974	-0.267986	9.825826	0.324438				-0.004203	0.003445	-0.004007				87.733474	1.571800	-40.399315
00026	1947024	-0.255881	9.814409	0.320476				-0.000504	0.000859	-0.002746				87.733330	1.572594	-40.399100
00027	1947074	-0.250223	9.813179	0.312171				-0.005549	0.002918	0.002217				87.733835	1.571223	-40.398508
00028	1947124	-0.238052	9.805357	0.306274				-0.003221	-0.001480	-0.001211				87.732908	1.571554	-40.398950
00029	1947174	-0.255248	9.816643	0.330089				-0.002675	0.001860	-0.001197				87.734202	1.571147	-40.398710
00030	1947224	-0.253729	9.809806	0.313104				-0.001965	0.000250	-0.004735				87.733650	1.572503	-40.398701
00031	1947274	-0.226833	9.819379	0.313725				-0.005445	0.000131	-0.000239				87.734132	1.571807	-40.398909
00032	1947324	-0.239999	9.804420	0.319294				-0.004222	0.003295	0.000900				87.732951	1.571588	-40.397951
00033	1947374	-0.249428	9.814210	0.323162				-0.003549	0.001171	0.000150				87.733994	1.570782	-40.397888
00034	1947424	-0.247699	9.826385	0.319840				-0.005857	-0.003211	-0.002690				87.732304	1.571518	-40.398844
00035	1947474	-0.217554	9.797542	0.322015				-0.003313	0.000720	-0.000178				87.733413	1.570807	-40.398916
00036	1947524	-0.236490	9.802504	0.292600				-0.001125	0.003473	-0.001260				87.733115	1.571205	-40.397938
00037	1947574	-0.222735	9.808055	0.328297				-0.002301	0.003389	0.000441				87.734537	1.570350	-40.397249
00038	1947624	-0.227983	9.826753	0.326711				-0.006139	-0.000272	-0.001588				87.732771	1.570800	-40.397343
00039	1947674	-0.236313	9.827039	0.317120				-0.004784	-0.001608	-0.002493				87.733443	1.570720	-40.398126
00040	1947724	-0.235608	9.805068	0.311363				-0.003847	-0.002848	0.000192				87.732312	1.570630	-40.398933
00041	1947774	-0.237275	9.792562	0.305963				-0.001545	-0.002783	-0.002604				87.733910	1.570573	-40.400024
00042	1947824	-0.222600	9.802292	0.302022				-0.004920	-0.000546	-0.003804				87.732499	1.571657	-40.400226
00043	1947874	-0.267932	9.809938	0.308138				-0.001745	0.002518	-0.004754				87.734082	1.572273	-40.399830
00044	1947924	-0.248514	9.815454	0.304729				-0.004354	-0.000150	-0.004669				87.732836	1.573608	-40.399931
00045	1947974	-0.261547	9.798387	0.308862				-0.004731	-0.001051	-0.001048				87.733547	1.573123	-40.400505
00046	1948024	-0.255959	9.809795	0.311670				-0.001284	0.000563	0.000078				87.733189	1.573105	-40.400349
00047	1948074	-0.249402	9.812574	0.305614				-0.004419	-0.001086	-0.002590				87.733957	1.573069	-40.400942
00048	1948124	-0.253816	9.808131	0.313340				-0.001565	0.000133	-0.000052				87.733506	1.573084	-40.400906
00049	1948174	-0.238776	9.800429	0.317807				-0.003165	0.000912	-0.002193				87.734664	1.572951	-40.400928
00050	1948224	-0.246241	9.809454	0.326517				-0.005114	-0.000761	0.003736				87.733178	1.571872	-40.401098
00051	1948274	-0.253071	9.802806	0.337004				0.000003	0.005139	-0.003463				87.735306	1.572146	-40.399927
00052	1948324	-0.245989	9.823321	0.319473				-0.001564	0.004138	-0.002532				87.734894	1.572916	-40.398774
00053	1948374	-0.245812	9.819218	0.308775				-0.005494	-0.003331	-0.000638				87.735356	1.572296	-40.399998
00054	1948424	-0.250410	9.802010	0.313580				-0.003659	-0.001582	-0.000025				87.734283	1.572285	-40.400452
00055	1948474	-0.247948	9.813360	0.302327				-0.005288	0.002329	-0.002600				87.734858	1.572282	-40.400083
00056	1948524	-0.235376	9.810385	0.305293				-0.001530	-0.000232	-0.004035				87.734406	1.573435	-40.400193
00057	1948574	-0.229362	9.807474	0.314685				-0.004017	-0.000589	-0.001977				87.735317	1.573222	-40.400657
00058	1948624	-0.225679	9.803727	0.314405				-0.003199	0.000272	0.001325				87.734390	1.572848	-40.400554
00059	1948674	-0.244046	9.818154	0.317843				-0.004391	0.001180	-0.003344				87.735207	1.573043	-40.400524
00060	1948724	-0.224343	9.811707	0.305459				-0.001968	0.001578	-0.002262				87.734660	1.573713	-40.400099
00061	1948774	-0.222894	9.798565	0.313467				-0.003882	0.002088	-0.005785				87.735642	1.574619	-40.399845
00062	1948824	-0.225504	9.808119	0.321764				-0.001104	-0.000111	0.000998				87.735325	1.574331	-40.399866
00063	1948874	-0.244516	9.812023	0.315170				-0.001865	-0.000981	-0.005383				87.736814	1.575083	-40.400442
00064	1948924	-0.240796	9.812240	0.319542				-0.005029	0.000267	-0.000751				87.735380	1.575301	-40.400374
00065	1948974	-0.236747	9.797813	0.335100				-0.005152	0.001235	-0.000135				87.735991	1.574585	-40.400285
00066	1949024	-0.249442	9.827791	0.334710				-0.004628	0.001825	-0.000869				87.734690	1.574853	-40.399784
00067	1949074	-0.261183	9.825065	0.333126				-0.006012	0.001632	-0.005135				87.735033	1.575573	-40.399613
00068	1949124	-0.250746	9.810630	0.307810				-0.001652	0.000647	-0.002202				87.734570	1.576211	-40.399459
00069	1949174	-0.267749	9.817894	0.315734				-0.002526	-0.000818	0.000071				87.735908	1.575414	-40.399966
00070	1949224	-0.277538	9.817905	0.306990				-0.002314	0.001412	-0.003541				87.735262	1.576443	-40.399606
00071	1949274	-0.267551	9.823297	0.303801				-0.003077	0.002372	-0.001319				87.736460	1.576070	-40.399204
00072	1949324	-0.240777	9.820144	0.298687				-0.003072	-0.002865	0.000130				87.735549	1.575998	-40.400019
00073	1949374	-0.247191	9.821897	0.303103				-0.004988	0.001581	-0.006714				87.736204	1.577173	-40.399930
00074	1949424	-0.248018	9.812002	0.329449				-0.006434	0.001147	-0.001608				87.734380	1.577650	-40.399616
00075	1949474	-0.244199	9.812700	0.316978				-0.008059	-0.002180	-0.000721				87.734102	1.577056	-40.400521
00076	1949524	-0.241480	9.807548	0.330574				-0.004377	0.002193	0.002144				87.732851	1.576464	-40.399863
00077	1949574	-0.225663	9.804925	0.313487				-0.005499	-0.001163	-0.000372				87.733342	1.575782	-40.400497
00078	1949624	-0.237153	9.821389	0.328852				-0.006789	-0.000635	0.001273				87.731399	1.575411	-40.400669
00079	1949674	-0.226610	9.804361	0.334089				-0.005315	-0.001134	-0.003645				87.731925	1.575663	-40.401291
00080	1949724	-0.227361	9.796951	0.321869				-0.004306	-0.000596	-0.002295				87.730692	1.576315	-40.401485
00081	1949774	-0.222368	9.798767	0.315658				-0.005820	0.000668	-0.004023				87.731087	1.576705	-40.401591
00082	1949824	-0.229084	9.803700	0.313832				-0.000081	0.000608	-0.003456				87.731073	1.577704	-40.401459
00083	1949874	-0.233198	9.810129	0.308027				-0.005432	-0.002492	-0.003267				87.731556	1.577837	-40.402485
00084	1949924	-0.210403	9.804639	0.313191				-0.004725	0.001050	0.000536				87.730208	1.577692	-40.402173
00085	1949974	-0.243013	9.814202	0.328540				-0.001177	-0.000495	0.003150				87.731938	1.576013	-40.402565
00086	1950024	-0.254773	9.834965	0.295640				-0.004295	-0.001565	-0.000533				87.730694	1.576148	-40.403019
00087	1950074	-0.231208	9.809802	0.300234				-0.002605	0.001567	-0.002097				87.732016	1.575991	-40.402862
00088	1950124	-0.255610	9.794533	0.317265				-0.006877	-0.000253	-0.002478				87.730045	1.576698	-40.402965
00089	1950174	-0.239011	9.804104	0.340995				-0.000984	0.000945	-0.003097				87.731830	1.576822	-40.402953
00090	1950224	-0.255434	9.810655	0.317884				-0.003275	0.000261	-0.004472				87.730894	1.578101	-40.402926
00091	1950274	-0.254791	9.820681	0.314579				-0.004418	-0.001957	-0.003038				87.731666	1.578187	-40.403829
00092	1950324	-0.241704	9.826028	0.347458				0.000647	0.001139	-0.002299				87.731864	1.578855	-40.403533
00093	1950374	-0.250809	9.807305	0.307796				-0.003432	0.002260	-0.004493				87.732964	1.579390	-40.403194
00094	1950424	-0.258256	9.826296	0.316923				-0.003783	-0.000386	0.001363				87.731875	1.578997	-40.403286
00095	1950474	-0.234798	9.804782	0.315908				-0.005095	-0.001773	-0.000951				87.732452	1.578477	-40.404064
00096	1950524	-0.250724	9.828236	0.304517				-0.003850	-0.000521	-0.002328				87.731339	1.579136	-40.404237
00097	1950574	-0.236026	9.798232	0.324078				-0.004051	-0.001496	-0.003584				87.732255	1.579371	-40.405008
00098	1950624	-0.225378	9.806802	0.330479				-0.004066	-0.000653	-0.000661				87.731086	1.579551	-40.405204
00099	1950674	-0.244399	9.801450	0.308494				-0.004066	0.002386	0.000130				87.732003	1.578769	-40.404773
00100	1950724	-0.216151	9.801392	0.303914				-0.006559	0.000880	-0.002699				87.730139	1.579551	-40.404564
00101	1950774	-0.220523	9.813779	0.312894				-0.002424	-0.001877	0.002088				87.731490	1.578164	-40.405330
00102	1950824	-0.225980	9.806645	0.309137				-0.002952	-0.001704	-0.001919				87.730628	1.578695	-40.405837
00103	1950874	-0.237037	9.816629	0.314701				-0.002888	0.000528	-0.001717				87.731868	1.578416	-40.405983
00104	1950924	-0.224686	9.802310	0.299067				-0.004897	0.000975	-0.003827				87.730464	1.579524	-40.405746
00105	1950974	-0.233734	9.804953	0.304954				-0.006931	0.000815	-0.000837				87.730558	1.578997	-40.405779
00106	1951024	-0.246042	9.818573	0.304121				0.000359	0.001166	-0.001495				87.730671	1.579439	-40.405465
00107	1951074	-0.251159	9.808350	0.301565				-0.002368	0.004452	-0.001150				87.732097	1.579044	-40.404480
00108	1951124	-0.263931	9.801147	0.327729				-0.001886	0.001159	-0.002290				87.731549	1.579711	-40.404158
00109	1951174	-0.270263	9.813601	0.299826				-0.004105	0.000446	-0.001229				87.732459	1.579295	-40.404303
00110	1951224	-0.254799	9.821609	0.315979				-0.003565	0.001518	-0.002702				87.731451	1.580087	-40.403895
00111	1951274	-0.246098	9.814465	0.308972				-0.004792	-0.001188	-0.001591				87.732124	1.579755	-40.404515
00112	1951324	-0.249758	9.814095	0.299708				-0.006226	0.000633	-0.001194				87.730342	1.580107	-40.404351
00113	1951374	-0.263916	9.814301	0.305721				-0.002714	0.001018	-0.001321				87.731659	1.579718	-40.404337
00114	1951424	-0.261822	9.819591	0.317967				-0.004112	0.000834	0.000221				87.730498	1.579667	-40.404099
00115	1951474	-0.248718	9.813770	0.320986				-0.001524	0.003145	0.000317				87.732121	1.578834	-40.403426
00116	1951524	-0.260567	9.810898	0.313632				-0.002119	0.002612	-0.001735				87.731538	1.579362	-40.402701
00117	1951574	-0.232484	9.813065	0.318810				-0.005576	-0.000352	0.001078				87.732009	1.578272	-40.403065
00118	1951624	-0.232834	9.816135	0.319053				-0.005855	0.000118	-0.002000				87.730322	1.578843	-40.403056
00119	1951674	-0.229538	9.809103	0.301054				-0.005721	0.001802	-0.003628				87.730786	1.579141	-40.402858
00120	1951724	-0.251136	9.828266	0.333462				-0.003923	-0.000138	-0.001939				87.729654	1.579696	-40.402914
00121	1951774	-0.238659	9.812169	0.310191				-0.005826	0.002222	-0.002179				87.730075	1.579565	-40.402584
00122	1951824	-0.231038	9.808518	0.291376				-0.003743	-0.000709	0.000653				87.729007	1.579368	-40.402784
00123	1951874	-0.227753	9.814864	0.298316				-0.002326	0.000726	-0.005217				87.730413	1.580095	-40.402917
00124	1951924	-0.235127	9.813096	0.314520				-0.006001	-0.000173	-0.000073				87.728692	1.580116	-40.402966
00125	1951974	-0.242221	9.811128	0.313335				-0.005727	0.000993	-0.004015				87.729136	1.580506	-40.403029
00126	1952024	-0.245838	9.810697	0.323163				-0.005326	0.000645	-0.000904				87.727601	1.580770	-40.402850
00127	1952074	-0.258402	9.811975	0.306880				-0.003735	0.001000	-0.001387				87.728623	1.580406	-40.402862
00128	1952124	-0.252504	9.809721	0.319559				-0.002897	0.001759	-0.001738				87.727813	1.580920	-40.402385
00129	1952174	-0.229532	9.816648	0.319269				-0.004732	-0.000156	-0.003637				87.728522	1.581190	-40.402737
00130	1952224	-0.239749	9.800998	0.310830				-0.002409	0.001505	-0.002870				87.727837	1.582030	-40.402338
00131	1952274	-0.251521	9.816477	0.297026				-0.001018	0.004081	-0.004457				87.729663	1.582582	-40.401495
00132	1952324	-0.259237	9.809181	0.302863				-0.005142	-0.003288	-0.000025				87.728164	1.582555	-40.402430
00133	1952374	-0.246348	9.812840	0.322153				-0.001861	-0.001749	-0.002018				87.729677	1.582330	-40.403235
00134	1952424	-0.249704	9.818953	0.307574				-0.004273	-0.002538	-0.003714				87.728426	1.583366	-40.404001
00135	1952474	-0.247395	9.826446	0.300124				-0.002351	-0.001369	-0.002143				87.729825	1.583195	-40.404703
00136	1952524	-0.248749	9.817769	0.308146				-0.006943	-0.000029	-0.001483				87.727843	1.583622	-40.404735
00137	1952574	-0.241839	9.803058	0.344731				-0.005484	0.001551	-0.001158				87.728353	1.583192	-40.404574
00138	1952624	-0.254689	9.815831	0.337075				-0.004765	0.003545	0.001544				87.727020	1.582792	-40.403545
00139	1952674	-0.243480	9.819053	0.321128				-0.000728	0.001349	0.002003				87.728893	1.581458	-40.403392
00140	1952724	-0.225882	9.797130	0.311296				-0.005334	0.003877	-0.002459				87.727402	1.582209	-40.402316
00141	1952774	-0.253003	9.826466	0.325627				-0.005494	0.000609	-0.003500				87.727897	1.582437	-40.402455
00142	1952824	-0.230015	9.818992	0.321594				-0.003843	-0.002045	-0.003811				87.726774	1.583502	-40.403081
00143	1952874	-0.246014	9.831472	0.314057				-0.003321	0.004309	0.000362				87.727933	1.582668	-40.402118
00144	1952924	-0.233500	9.807349	0.303715				-0.005243	0.000201	0.001206				87.726440	1.582326	-40.402051
00145	1952974	-0.228631	9.810602	0.311998				-0.003411	0.000811	-0.000849				87.727514	1.581807	-40.402095
00146	1953024	-0.242927	9.809546	0.307419				-0.006115	0.000214	-0.001290				87.725770	1.582178	-40.402054
00147	1953074	-0.247312	9.813519	0.323340				-0.000907	0.002898	-0.000327				87.727603	1.581525	-40.401510
00148	1953124	-0.228557	9.787184	0.307769				-0.006823	-0.000864	-0.001231				87.725648	1.581868	-40.401765
00149	1953174	-0.232087	9.812426	0.329496				-0.002972	-0.000861	-0.001559				87.726866	1.581527	-40.402318
00150	1953224	-0.247974	9.803824	0.321031				-0.006039	0.002602	-0.003939				87.725154	1.582685	-40.401622
00151	1953274	-0.257602	9.807780	0.302108				-0.003778	0.000287	-0.000879				87.726167	1.582166	-40.401840
00152	1953324	-0.250676	9.824041	0.315404				-0.000181	-0.000872	-0.000251				87.726106	1.582232	-40.402087
00153	1953374	-0.244688	9.813581	0.306194				-0.005537	0.002060	-0.003401				87.726594	1.582450	-40.401797
00154	1953424	-0.263150	9.822386	0.304824				-0.005838	-0.000162	0.001819				87.724924	1.581924	-40.401826
00155	1953474	-0.267615	9.819050	0.317205				-0.001818	0.002237	-0.000583				87.726484	1.581343	-40.401474
00156	1953524	-0.246239	9.809443	0.311773				-0.001316	0.001495	-0.001554				87.726123	1.581807	-40.401069
00157	1953574	-0.237695	9.810488	0.312258				-0.002740	0.000986	-0.001107				87.727402	1.581357	-40.401064
00158	1953624	-0.247650	9.824918	0.322403				-0.002872	0.001212	0.000919				87.726600	1.581113	-40.400714
00159	1953674	-0.240335	9.811778	0.318945				-0.000826	0.001378	0.000814				87.728441	1.580111	-40.400560
00160	1953724	-0.221676	9.792103	0.302351				0.000075	0.004202	-0.000099				87.728501	1.580186	-40.399360
00161	1953774	-0.230406	9.804332	0.317253				-0.001199	-0.002083	0.001892				87.730205	1.578847	-40.400220
00162	1953824	-0.232964	9.828203	0.321004				-0.006092	-0.000626	-0.001714				87.728458	1.579329	-40.400426
00163	1953874	-0.232712	9.810055	0.329120				-0.003948	0.000744	0.000403				87.729418	1.578452	-40.400506
00164	1953924	-0.227421	9.793722	0.331364				-0.001279	0.000165	-0.002778				87.729057	1.579251	-40.400492
00165	1953974	-0.242368	9.809111	0.305574				-0.000388	-0.001592	-0.001026				87.731001	1.578739	-40.401226
00166	1954024	-0.238535	9.829178	0.315127				-0.002265	0.000761	-0.004990				87.730362	1.580175	-40.401067
00167	1954074	-0.230272	9.810262	0.333396				-0.004809	0.000168	-0.004791				87.731053	1.580776	-40.401354
00168	1954124	-0.238032	9.820608	0.317550				-0.003250	0.003987	-0.000990				87.730144	1.581099	-40.400221
00169	1954174	-0.240279	9.804643	0.320426				-0.001719	0.000134	0.000015				87.731723	1.580321	-40.400444
00170	1954224	-0.239623	9.796474	0.312105				-0.004841	0.001501	-0.000996				87.730341	1.580624	-40.400024
00171	1954274	-0.234560	9.808577	0.315649				-0.003447	0.001041	0.000538				87.731439	1.579710	-40.399993
00172	1954324	-0.245886	9.823998	0.306410				-0.003507	-0.000125	-0.000016				87.730432	1.579711	-40.400030
00173	1954374	-0.257420	9.802543	0.303609				-0.005666	0.001688	0.003369				87.730912	1.577992	-40.399786
00174	1954424	-0.256859	9.823740	0.313969				-0.008547	0.000174	-0.000323				87.728460	1.578085	-40.399741
00175	1954474	-0.240180	9.798327	0.299107				-0.001183	0.003042	-0.005459				87.730202	1.578900	-40.399218
00176	1954524	-0.219595	9.787599	0.319015				0.000477	0.001429	-0.002396				87.730347	1.579604	-40.398830
00177	1954574	-0.262470	9.830146	0.309772				-0.001332	0.000005	-0.000981				87.732076	1.579108	-40.399158
00178	1954624	-0.253877	9.812812	0.317888				-0.000049	0.002070	-0.000878				87.732077	1.579386	-40.398567
00179	1954674	-0.235951	9.808355	0.297946				-0.004435	0.000660	-0.001615				87.732881	1.579072	-40.398655
00180	1954724	-0.252255	9.809917	0.306434				-0.003731	0.001677	-0.003470				87.731823	1.580085	-40.398211
00181	1954774	-0.246473	9.802635	0.322401				-0.004587	0.001600	-0.001963				87.732578	1.579888	-40.398049
00182	1954824	-0.240984	9.789972	0.301506				-0.002158	0.000475	-0.002551				87.731973	1.580625	-40.397952
00183	1954874	-0.260228	9.815646	0.329395				-0.001778	0.000975	-0.000401				87.733540	1.579971	-40.397944
00184	1954924	-0.251195	9.814982	0.301816				-0.002281	-0.000294	0.001808				87.732885	1.579452	-40.398014
00185	1954974	-0.219555	9.792222	0.311250				-0.003612	0.000329	0.001908				87.733939	1.578132	-40.398176
00186	1955024	-0.236080	9.824367	0.290233				-0.003230	-0.002067	-0.002304				87.733004	1.578767	-40.398799
00187	1955074	-0.248946	9.821109	0.306631				-0.004710	-0.001465	0.001170				87.733709	1.577641	-40.399470
00188	1955124	-0.252664	9.804329	0.299914				-0.001166	-0.002118	0.001349				87.733360	1.577231	-40.400061
00189	1955174	-0.244143	9.811232	0.305131				-0.003672	0.000771	-0.002639				87.734396	1.577219	-40.400150
00190	1955224	-0.253426	9.833138	0.307428				-0.005390	-0.000321	-0.000718				87.732847	1.577421	-40.400257
00191	1955274	-0.239184	9.810536	0.323399				-0.006294	0.003996	-0.000951				87.733135	1.576966	-40.399372
00192	1955324	-0.245467	9.802248	0.317776				-0.001205	0.000817	-0.001783				87.732789	1.577489	-40.399160
00193	1955374	-0.255069	9.810362	0.321789				-0.004683	0.000662	0.000188				87.733556	1.576659	-40.399244
00194	1955424	-0.259754	9.803079	0.313639				-0.003293	0.002207	-0.000995				87.732637	1.576971	-40.398630
00195	1955474	-0.257970	9.812254	0.320279				-0.003884	0.001778	0.000060				87.733594	1.576192	-40.398403
00196	1955524	-0.259999	9.822084	0.311733				-0.003329	0.002396	-0.001734				87.732662	1.576719	-40.397740
00197	1955574	-0.237864	9.810586	0.305682				-0.005288	0.003757	0.000232				87.733242	1.575914	-40.396937
00198	1955624	-0.225789	9.792707	0.306011				-0.003275	0.002525	-0.002698				87.732323	1.576715	-40.396244
00199	1955674	-0.234842	9.800407	0.306795				-0.002107	-0.000650	0.001292				87.733793	1.575559	-40.396681
00200	1955724	-0.254981	9.814039	0.329916				-0.003265	0.000231	-0.001459				87.732849	1.575978	-40.396629
00201	1955774	-0.234743	9.800467	0.318564				-0.004591	0.001466	-0.003149				87.733636	1.576125	-40.396536
00202	1955824	-0.252762	9.803164	0.298250				-0.002382	0.000700	-0.001970				87.732965	1.576700	-40.396358
00203	1955874	-0.234052	9.813631	0.311515				-0.002094	0.003006	0.001214				87.734468	1.575606	-40.395751
00204	1955924	-0.232341	9.813196	0.325442				-0.003960	-0.000107	-0.000884				87.733333	1.575855	-40.395795
00205	1955974	-0.237209	9.798286	0.319464				-0.003578	0.001498	0.002976				87.734385	1.574241	-40.395601
00206	1956024	-0.218923	9.811269	0.307471				-0.005553	0.001578	-0.003628				87.732800	1.575295	-40.395187
00207	1956074	-0.233493	9.819922	0.303615				-0.001182	-0.000834	-0.001796				87.734548	1.575030	-40.395731
00208	1956124	-0.243601	9.824817	0.301000				-0.002500	0.003211	-0.005006				87.733860	1.576497	-40.394870
00209	1956174	-0.233496	9.815324	0.309677				-0.003550	0.000097	-0.002488				87.734915	1.576434	-40.395139
00210	1956224	-0.239389	9.816063	0.303323				-0.007603	-0.000462	-0.002768				87.732734	1.577220	-40.395303
00211	1956274	-0.238785	9.804891	0.305219				-0.009050	0.000808	-0.001568				87.732223	1.576900	-40.395403
00212	1956324	-0.246325	9.813983	0.325337				-0.003841	-0.000617	-0.000662				87.731111	1.577082	-40.395580
00213	1956374	-0.241806	9.791881	0.331495				-0.004575	0.003445	0.000937				87.731920	1.576079	-40.394869
00214	1956424	-0.229045	9.811839	0.323981				-0.002299	-0.000244	-0.005028				87.731260	1.577517	-40.394997
00215	1956474	-0.246130	9.805495	0.321586				-0.006814	-0.000387	-0.005850				87.731371	1.578408	-40.395440
00216	1956524	-0.241019	9.821098	0.329337				-0.003738	0.000998	-0.003219				87.730301	1.579339	-40.395185
00217	1956574	-0.258154	9.820621	0.331071				-0.004112	0.002867	-0.000160				87.731232	1.578646	-40.394639
00218	1956624	-0.247672	9.811049	0.314131				-0.007197	-0.002166	-0.000978				87.729159	1.578906	-40.395275
00219	1956674	-0.254770	9.823463	0.318336				-0.000670	0.002574	0.000346				87.731065	1.578056	-40.394809
00220	1956724	-0.249425	9.814410	0.325379				0.002474	-0.000766	-0.000100				87.731767	1.578074	-40.395025
00221	1956774	-0.246370	9.808418	0.285589				-0.005225	0.001328	-0.002569				87.732357	1.578051	-40.394954
00222	1956824	-0.243512	9.803448	0.302524				-0.004690	-0.002604	-0.001985				87.730995	1.578588	-40.395717
00223	1956874	-0.249190	9.816195	0.302339				-0.003370	-0.003783	-0.003500				87.732064	1.578766	-40.397125
00224	1956924	-0.238111	9.801312	0.322701				-0.005463	-0.000257	-0.001261				87.730493	1.579126	-40.397207
00225	1956974	-0.227069	9.810146	0.312290				-0.004637	0.001347	0.001787				87.731263	1.577851	-40.397096
00226	1957024	-0.230606	9.813845	0.315917				-0.005127	0.002427	-0.001831				87.729814	1.578399	-40.396428
00227	1957074	-0.243781	9.800664	0.313488				-0.000681	0.000503	-0.002843				87.731695	1.578447	-40.396563
00228	1957124	-0.247396	9.817441	0.314935				-0.001089	-0.000832	-0.002622				87.731371	1.579187	-40.396831
00229	1957174	-0.237054	9.800649	0.304574				-0.001815	0.001001	-0.001615				87.732948	1.578887	-40.396860
00230	1957224	-0.234068	9.815882	0.319340				0.000266	0.001811	-0.004061				87.733039	1.580071	-40.396386
00231	1957274	-0.249235	9.809429	0.310428				-0.004041	0.000580	0.000373				87.733972	1.579190	-40.396517
00232	1957324	-0.231824	9.819372	0.309947				-0.004629	0.002117	0.000159				87.732664	1.579170	-40.395904
00233	1957374	-0.237750	9.808187	0.307715				-0.001971	-0.000501	-0.005254				87.734169	1.579893	-40.396398
00234	1957424	-0.233747	9.821316	0.305837				-0.005163	-0.000678	-0.002999				87.732689	1.580744	-40.396628
00235	1957474	-0.261831	9.820498	0.336158				-0.003310	0.003687	-0.003298				87.733858	1.580957	-40.395867
00236	1957524	-0.241359	9.796391	0.315762				-0.006209	-0.004183	-0.002627				87.732058	1.581666	-40.397101
00237	1957574	-0.266605	9.817278	0.310575				-0.005145	0.001977	-0.001634				87.732668	1.581368	-40.396850
00238	1957624	-0.247208	9.806036	0.301581				-0.002998	0.000178	0.001974				87.731813	1.580806	-40.396780
00239	1957674	-0.254629	9.803138	0.329481				-0.005861	-0.000882	-0.001490				87.732206	1.580449	-40.397282
00240	1957724	-0.246641	9.818729	0.324593				-0.005058	0.000332	-0.000586				87.730757	1.580620	-40.397191
00241	1957774	-0.244908	9.819299	0.319718				-0.000574	-0.001720	0.001504				87.732660	1.579387	-40.397983
00242	1957824	-0.242719	9.827614	0.305602				-0.002288	0.001602	-0.004180				87.732025	1.580603	-40.397575
00243	1957874	-0.228235	9.799318	0.306267				-0.003184	0.001687	-0.001839				87.733225	1.580373	-40.397378
00244	1957924	-0.249394	9.809829	0.314809				-0.004315	-0.001143	-0.002459				87.731985	1.581067	-40.397734
00245	1957974	-0.237547	9.789851	0.296771				-0.003801	0.005104	-0.001080				87.733023	1.580653	-40.396560
00246	1958024	-0.243188	9.799631	0.304354				-0.000876	0.000700	0.000235				87.732780	1.580595	-40.396362
00247	1958074	-0.229210	9.797029	0.315206				-0.005289	0.001327	-0.001641				87.733361	1.580305	-40.396277
00248	1958124	-0.232707	9.816754	0.310089				-0.001869	0.003982	0.000034				87.732866	1.580345	-40.395137
00249	1958174	-0.237295	9.806195	0.298952				-0.006464	0.004315	-0.000498				87.733096	1.579749	-40.394168
00250	1958224	-0.240686	9.807977	0.303908				-0.004371	0.001796	-0.001191				87.731842	1.580107	-40.393661
00251	1958274	-0.224915	9.798777	0.313002				-0.004625	0.001892	0.000218				87.732634	1.579283	-40.393407
00252	1958324	-0.233641	9.825800	0.322837				-0.003207	-0.000408	0.000203				87.731716	1.579219	-40.393520
00253	1958374	-0.246848	9.816340	0.326045				-0.004133	0.001512	-0.000133				87.732647	1.578508	-40.393383
00254	1958424	-0.230736	9.806860	0.306899				0.000967	-0.000020	-0.003332				87.732915	1.579458	-40.393429
00255	1958474	-0.227849	9.788606	0.308865				-0.001828	0.001358	-0.001203				87.734495	1.579043	-40.393348
00256	1958524	-0.251293	9.808809	0.302483				-0.002309	0.000279	-0.003771				87.733829	1.580122	-40.393305
00257	1958574	-0.249172	9.796331	0.313558				-0.003347	0.000846	-0.001328				87.734976	1.579738	-40.393363
00258	1958624	-0.256963	9.825286	0.306552				-0.000828	0.000145	-0.003292				87.734736	1.580679	-40.393355
00259	1958674	-0.248824	9.803843	0.319120				-0.003433	0.000521	-0.001133				87.735853	1.580236	-40.393522
00260	1958724	-0.281524	9.810405	0.313252				-0.004892	-0.001057	-0.001589				87.734442	1.580676	-40.393839
00261	1958774	-0.245662	9.813919	0.314186				-0.000834	-0.003996	-0.004181				87.736260	1.581047	-40.395312
00262	1958824	-0.253136	9.826036	0.306910				-0.006197	0.001696	-0.003300				87.734492	1.582008	-40.394868
00263	1958874	-0.247314	9.804775	0.305675				-0.005599	-0.001972	0.000044				87.734989	1.581203	-40.395740
00264	1958924	-0.248355	9.795804	0.333430				-0.002652	0.002281	-0.001352				87.734247	1.581616	-40.395107
00265	1958974	-0.247516	9.822058	0.323382				-0.003482	-0.000100	-0.003416				87.735308	1.581817	-40.395415
00266	1959024	-0.254863	9.813433	0.307395				-0.004672	0.001211	-0.000808				87.733971	1.582062	-40.395068
00267	1959074	-0.223046	9.821257	0.318134				-0.001048	-0.000115	-0.001594				87.735777	1.581740	-40.395443
00268	1959124	-0.232533	9.815406	0.304733				-0.007314	-0.001786	-0.004698				87.733671	1.583065	-40.396008
00269	1959174	-0.233078	9.812953	0.325452				-0.003235	-0.003009	-0.004010				87.734815	1.583405	-40.397233
00270	1959224	-0.242928	9.804530	0.325506				-0.003558	0.000326	-0.001234				87.733791	1.583764	-40.397147
00271	1959274	-0.213975	9.805614	0.308863				-0.005358	-0.002192	0.002029				87.734332	1.582368	-40.398026
00272	1959324	-0.249289	9.832217	0.324584				-0.004445	-0.002153	-0.003521				87.733040	1.583353	-40.398684
00273	1959374	-0.230739	9.806162	0.290468				-0.003022	-0.002246	0.001865				87.734243	1.582019	-40.399595
00274	1959424	-0.236027	9.805537	0.296074				-0.005926	0.003617	0.000715				87.732585	1.581853	-40.398560
00275	1959474	-0.225301	9.808624	0.319989				-0.006560	-0.000695	-0.000077				87.732749	1.581082	-40.399030
00276	1959524	-0.251608	9.808727	0.292241				-0.003942	0.000253	-0.001808				87.731622	1.581599	-40.398982
00277	1959574	-0.233819	9.809842	0.311081				-0.003028	0.000820	-0.001137				87.732850	1.581161	-40.399044
00278	1959624	-0.227775	9.802231	0.317308				-0.004154	-0.000814	0.000753				87.731654	1.580939	-40.399273
00279	1959674	-0.255451	9.815948	0.313086				-0.002621	0.005417	-0.000757				87.733045	1.580435	-40.398013
00280	1959724	-0.240174	9.816369	0.313410				-0.008022	-0.000144	-0.000776				87.730746	1.580655	-40.398071
00281	1959774	-0.229285	9.804629	0.314193				-0.004601	-0.000080	-0.000943				87.731497	1.580136	-40.398383
00282	1959824	-0.277540	9.818290	0.312381				-0.007994	-0.002370	-0.000878				87.729195	1.580363	-40.399076
00283	1959874	-0.244864	9.802772	0.312756				-0.003618	0.003365	-0.001247				87.730285	1.579977	-40.398383
00284	1959924	-0.237951	9.817402	0.317074				-0.006664	0.004275	-0.003640				87.728407	1.581064	-40.397195
00285	1959974	-0.236089	9.803716	0.313924				-0.004330	0.003314	-0.003716				87.729278	1.581388	-40.396553
00286	1960024	-0.266018	9.820723	0.309325				-0.006651	-0.001121	-0.001617				87.727357	1.581833	-40.396889
00287	1960074	-0.257359	9.815598	0.310751				0.001001	0.002053	-0.001525				87.729746	1.581513	-40.396594
00288	1960124	-0.244777	9.813015	0.319050				-0.006568	-0.000860	-0.002225				87.727862	1.582140	-40.396874
00289	1960174	-0.239459	9.810017	0.317546				-0.005598	-0.001131	-0.001235				87.728339	1.581704	-40.397458
00290	1960224	-0.239128	9.812537	0.307894				-0.000664	-0.003175	0.000505				87.728127	1.581521	-40.398355
00291	1960274	-0.229806	9.807007	0.305191				-0.003513	-0.000090	0.000530				87.729216	1.580589	-40.398668
00292	1960324	-0.256772	9.820456	0.318928				-0.000432	-0.001366	-0.001381				87.729086	1.580972	-40.399081
00293	1960374	-0.247253	9.802316	0.302931				-0.004091	-0.000804	0.002677				87.729994	1.579417	-40.399570
00294	1960424	-0.251574	9.803439	0.303439				-0.004639	-0.002319	-0.005062				87.728656	1.580840	-40.400295
00295	1960474	-0.232987	9.824441	0.310474				-0.002269	0.000092	-0.001526				87.730098	1.580502	-40.400565
00296	1960524	-0.226719	9.808880	0.309347				-0.004815	0.001665	-0.000549				87.728732	1.580678	-40.400098
00297	1960574	-0.240125	9.800474	0.305053				-0.004426	-0.000925	-0.004895				87.729560	1.581283	-40.400710
00298	1960624	-0.262269	9.822215	0.323884				-0.006160	0.000602	-0.000965				87.727793	1.581565	-40.400544
00299	1960674	-0.243712	9.813564	0.299173				-0.005945	0.000963	-0.001257				87.728190	1.581157	-40.400566
00300	1960724	-0.250226	9.806022	0.321918				-0.006100	-0.001599	-0.004221				87.726436	1.582351	-40.401080
00301	1960774	-0.237412	9.814971	0.336458				-0.003846	0.000782	0.002813				87.727447	1.580777	-40.401095
00302	1960824	-0.248130	9.803831	0.311960				-0.002442	0.002646	-0.000840				87.726762	1.581049	-40.400340
00303	1960874	-0.261086	9.810553	0.327175				-0.001393	-0.000575	-0.004707				87.728444	1.581617	-40.400795
00304	1960924	-0.263947	9.828507	0.314073				-0.004327	0.000508	-0.000650				87.727204	1.581805	-40.400657
00305	1960974	-0.248743	9.818929	0.301465				-0.003236	-0.000798	-0.001434				87.728372	1.581424	-40.401191
00306	1961024	-0.262135	9.824390	0.320963				-0.004137	0.001246	-0.003277				87.727204	1.582379	-40.400878
00307	1961074	-0.248344	9.819263	0.311107				-0.004248	0.002966	-0.001857				87.728098	1.582163	-40.400327
00308	1961124	-0.247362	9.804475	0.332885				-0.003308	0.000525	-0.002423				87.727156	1.582865	-40.400208
00309	1961174	-0.238627	9.805713	0.305699				-0.002126	0.001646	-0.001393				87.728658	1.582497	-40.400016
00310	1961224	-0.234252	9.820739	0.319093				-0.000956	-0.003761	0.001851				87.728351	1.581927	-40.401078
00311	1961274	-0.235119	9.804234	0.311253				-0.001895	-0.003683	-0.000940				87.729883	1.581374	-40.402418
00312	1961324	-0.229386	9.805590	0.320347				-0.003513	-0.001225	-0.000086				87.728853	1.581383	-40.402765
00313	1961374	-0.231427	9.794511	0.298785				-0.004004	-0.003311	-0.006191				87.729798	1.582343	-40.404054
00314	1961424	-0.242659	9.813215	0.323062				-0.004164	-0.002048	-0.002785				87.728591	1.583118	-40.404671
00315	1961474	-0.239759	9.819204	0.305978				-0.003345	0.001721	-0.001132				87.729746	1.582676	-40.404481
00316	1961524	-0.220699	9.803250	0.325760				-0.001703	0.004364	-0.003914				87.729295	1.583849	-40.403277
00317	1961574	-0.254922	9.816890	0.305768				-0.001369	0.003210	-0.001640				87.731015	1.583570	-40.402651
00318	1961624	-0.239678	9.813855	0.299148				-0.005737	-0.002912	-0.001916				87.729344	1.584083	-40.403504
00319	1961674	-0.236198	9.810046	0.318699				-0.004400	0.001571	-0.002827				87.730197	1.584128	-40.403390
00320	1961724	-0.252353	9.814669	0.313249				-0.003507	0.001914	-0.000293				87.729212	1.584235	-40.402844
00321	1961774	-0.253614	9.808480	0.313527				-0.004829	-0.003052	0.000776				87.729906	1.583196	-40.403990
00322	1961824	-0.253180	9.819883	0.328551				-0.002524	0.002290	0.000315				87.729206	1.583133	-40.403339
00323	1961874	-0.238263	9.806540	0.297830				-0.002518	0.003096	0.000288				87.730608	1.582306	-40.402725
00324	1961924	-0.238772	9.806042	0.329876				-0.002163	-0.001235	-0.001185				87.729982	1.582633	-40.403096
00325	1961974	-0.265050	9.821972	0.306075				-0.000650	-0.003631	-0.001004				87.731868	1.582093	-40.404426
00326	1962024	-0.239925	9.804225	0.323967				-0.003509	0.002913	-0.000932				87.730878	1.582393	-40.403600
00327	1962074	-0.227878	9.801700	0.312622				-0.001579	0.004727	-0.000831				87.732566	1.581910	-40.402519
00328	1962124	-0.249575	9.823394	0.303453				-0.003560	-0.000875	-0.003614				87.731538	1.582935	-40.402811
00329	1962174	-0.241413	9.810572	0.311019				-0.003072	0.000975	-0.003381				87.732763	1.583129	-40.402826
00330	1962224	-0.221765	9.808369	0.315648				-0.008087	0.001896	0.000326				87.730468	1.583058	-40.402280
00331	1962274	-0.229590	9.809349	0.307639				-0.003662	-0.004654	-0.000330				87.731483	1.582317	-40.403917
00332	1962324	-0.223361	9.809553	0.298768				-0.006045	-0.001040	0.001007				87.729739	1.582017	-40.404203
00333	1962374	-0.246525	9.809950	0.315922				-0.006537	0.000542	0.002500				87.729973	1.580524	-40.404307
00334	1962424	-0.226370	9.805707	0.299978				-0.002930	-0.001013	0.002674				87.729122	1.579747	-40.404566
00335	1962474	-0.231398	9.816372	0.311908				-0.002902	0.001890	-0.001261				87.730399	1.579346	-40.404306
00336	1962524	-0.228731	9.806215	0.311178				-0.002914	0.001173	-0.002484				87.729574	1.580073	-40.403999
00337	1962574	-0.248102	9.814279	0.311130				-0.006557	0.000755	-0.003146				87.729823	1.580204	-40.404100
00338	1962624	-0.232502	9.822721	0.314764				-0.003414	0.001812	-0.001261				87.728864	1.580583	-40.403599
00339	1962674	-0.215987	9.804284	0.308779				-0.004770	0.000013	-0.002293				87.729589	1.580456	-40.403890
00340	1962724	-0.250589	9.818573	0.307543				-0.005713	-0.000554	-0.001935				87.727959	1.581006	-40.404079
00341	1962774	-0.246740	9.825768	0.305649				-0.007554	0.001097	-0.001251				87.727900	1.580593	-40.404070
00342	1962824	-0.238077	9.817538	0.308406				-0.004781	0.002666	-0.000318				87.726545	1.580712	-40.403311
00343	1962874	-0.239011	9.809265	0.320374				-0.003442	-0.001547	-0.001790				87.727656	1.580430	-40.404048
00344	1962924	-0.245274	9.801154	0.333572				-0.001153	0.000043	-0.003997				87.727329	1.581579	-40.404088
00345	1962974	-0.245642	9.809256	0.315848				-0.003473	0.000586	-0.002255				87.728416	1.581447	-40.404206
00346	1963024	-0.243244	9.819571	0.294565				-0.007264	0.000037	-0.001612				87.726327	1.581908	-40.404208
00347	1963074	-0.243374	9.809548	0.298829				-0.003260	0.004444	0.001034				87.727549	1.580878	-40.403225
00348	1963124	-0.259663	9.822152	0.330109				-0.006547	0.002795	-0.000986				87.725703	1.581192	-40.402438
00349	1963174	-0.247870	9.817485	0.319168				-0.001298	0.005120	-0.000702				87.727449	1.580664	-40.401241
00350	1963224	-0.237463	9.802689	0.317795				-0.006201	0.001028	0.000703				87.725685	1.580476	-40.400940
00351	1963274	-0.240629	9.823069	0.316536				-0.004315	0.003124	-0.002114				87.726595	1.580334	-40.400368
00352	1963324	-0.255777	9.814170	0.327876				-0.004561	-0.000501	-0.002386				87.725287	1.581009	-40.400545
00353	1963374	-0.245124	9.809649	0.306514				-0.004825	0.000886	-0.001673				87.725995	1.580717	-40.400592
00354	1963424	-0.218567	9.788607	0.307363				-0.003593	0.002061	-0.005778				87.724987	1.582397	-40.400073
00355	1963474	-0.225463	9.797522	0.308376				-0.005411	0.000035	-0.002707				87.725534	1.582388	-40.400358
00356	1963524	-0.234767	9.820544	0.315651				-0.006635	-0.000405	0.001112				87.723632	1.582065	-40.400459
00357	1963574	-0.233067	9.810303	0.319666				-0.005696	0.003035	-0.001533				87.724128	1.581754	-40.399900
00358	1963624	-0.234281	9.804222	0.343743				-0.008175	-0.002664	-0.000790				87.721766	1.581948	-40.400668
00359	1963674	-0.234005	9.815470	0.306991				-0.006517	-0.002344	-0.000408				87.721999	1.581262	-40.401647
00360	1963724	-0.220922	9.803743	0.308468				-0.002141	-0.000775	0.000583				87.721375	1.581089	-40.401853
00361	1963774	-0.244046	9.817881	0.311572				-0.004387	0.002220	-0.000355				87.722231	1.580427	-40.401485
00362	1963824	-0.256051	9.820000	0.318304				-0.004069	-0.001784	-0.000826				87.721055	1.580644	-40.402007
00363	1963874	-0.246989	9.812759	0.302887				-0.003926	-0.001264	-0.001497				87.722021	1.580271	-40.402673
00364	1963924	-0.256423	9.811978	0.315429				-0.004918	0.001623	-0.003597				87.720620	1.581320	-40.402244
00365	1963974	-0.240551	9.801768	0.313426				-0.003012	0.002404	-0.001864				87.721894	1.581102	-40.401881
00366	1964024	-0.226817	9.816103	0.333254				-0.002547	0.000728	-0.002261				87.721172	1.581760	-40.401699
00367	1964074	-0.236865	9.813513	0.323693				-0.001446	-0.000407	0.002225				87.722850	1.580331	-40.402080
00368	1964124	-0.240535	9.807652	0.316263				-0.003189	0.000146	0.002519				87.721940	1.579612	-40.402010
00369	1964174	-0.229587	9.811069	0.303256				-0.002201	-0.001039	-0.000249				87.723392	1.578892	-40.402589
00370	1964224	-0.250571	9.818290	0.295309				-0.004221	0.000062	0.000531				87.722177	1.578736	-40.402557
00371	1964274	-0.267047	9.831739	0.333185				-0.003592	-0.000775	-0.002971				87.723259	1.578798	-40.403126
00372	1964324	-0.225568	9.819629	0.320867				-0.006540	0.002372	-0.002497				87.721406	1.579540	-40.402476
00373	1964374	-0.226311	9.809422	0.320596				-0.005403	0.001142	0.001471				87.721984	1.578354	-40.402412
00374	1964424	-0.229482	9.806376	0.315786				-0.002907	-0.001188	-0.003104				87.721128	1.579227	-40.402783
00375	1964474	-0.235564	9.803679	0.316492				-0.003096	0.000985	-0.000301				87.722361	1.578546	-40.402777
00376	1964524	-0.233253	9.811808	0.314609				-0.003471	0.001755	-0.000296				87.721379	1.578652	-40.402278
00377	1964574	-0.242384	9.802554	0.306694				-0.001829	0.002491	0.000122				87.722999	1.577860	-40.401884
00378	1964624	-0.229350	9.812364	0.296660				-0.005253	0.002268	0.000130				87.721515	1.577849	-40.401232
00379	1964674	-0.232696	9.815597	0.315046				-0.003904	0.003161	-0.002763				87.722525	1.577892	-40.400669
00380	1964724	-0.234876	9.806715	0.305048				-0.004753	0.002695	-0.002792				87.721185	1.578721	-40.399928
00381	1964774	-0.240467	9.825453	0.316293				-0.003868	-0.001336	-0.004703				87.722180	1.579271	-40.400639
00382	1964824	-0.235551	9.814771	0.336035				-0.005721	-0.002038	-0.000086				87.720529	1.579272	-40.401220
00383	1964874	-0.221707	9.789848	0.316856				-0.000541	0.000859	-0.005087				87.722493	1.579953	-40.401309
00384	1964924	-0.231578	9.799281	0.312712				-0.004885	-0.002842	-0.006605				87.721061	1.581812	-40.402188
00385	1964974	-0.247719	9.819791	0.307979				-0.004812	0.000168	-0.004116				87.721801	1.582215	-40.402468
00386	1965024	-0.238396	9.815207	0.320663				-0.005049	-0.001380	-0.002522				87.720342	1.582920	-40.402889
00387	1965074	-0.252640	9.817735	0.314207				-0.002563	0.001283	-0.002063				87.721742	1.582752	-40.402819
00388	1965124	-0.256616	9.798273	0.311615				-0.003464	0.001591	-0.000069				87.720766	1.582790	-40.402369
00389	1965174	-0.243447	9.814339	0.326480				-0.006302	0.002990	-0.003456				87.721093	1.583031	-40.401811
00390	1965224	-0.246972	9.806084	0.304934				-0.007257	0.002945	-0.000854				87.719038	1.583312	-40.400974
00391	1965274	-0.233597	9.800882	0.314899				-0.005584	0.001619	-0.001382				87.719563	1.582948	-40.400811
00392	1965324	-0.247130	9.812717	0.320943				-0.004394	0.001509	-0.001031				87.718324	1.583261	-40.400396
00393	1965374	-0.241722	9.819244	0.317440				-0.001671	0.000490	-0.001110				87.719964	1.582798	-40.400586
00394	1965424	-0.237627	9.815392	0.308557				-0.003742	0.003101	-0.003721				87.718916	1.583903	-40.399737
00395	1965474	-0.242793	9.801596	0.322792				-0.002446	-0.000596	-0.003007				87.720288	1.583972	-40.400208
00396	1965524	-0.227930	9.799491	0.317218				-0.003577	-0.001263	-0.002398				87.719261	1.584646	-40.400603
00397	1965574	-0.239138	9.788515	0.312754				-0.006312	0.002413	-0.000124				87.719582	1.583921	-40.400197
00398	1965624	-0.233325	9.811637	0.325325				-0.003162	0.000079	0.000588				87.718676	1.583753	-40.400165
00399	1965674	-0.236576	9.802718	0.316806				-0.004982	0.001590	-0.003628				87.719374	1.584028	-40.400066
00400	1965724	-0.243437	9.813181	0.309051				-0.002248	0.000677	0.000688				87.718733	1.583837	-40.399859
00401	1965774	-0.235924	9.813658	0.300146				-0.001701	0.002100	-0.005078				87.720385	1.584539	-40.399606
00402	1965824	-0.232059	9.802067	0.316310				-0.004239	0.003280	-0.005609				87.719189	1.586178	-40.398730
00403	1965874	-0.241733	9.801160	0.321372				-0.005685	-0.001393	-0.001875				87.719668	1.585909	-40.399444
00404	1965924	-0.244657	9.809643	0.322374				-0.004715	0.001409	-0.001158				87.718339	1.586261	-40.399062
00405	1965974	-0.237190	9.818563	0.303456				-0.006545	0.000431	-0.002540				87.718570	1.586218	-40.399255
00406	1966024	-0.244436	9.832297	0.299289				-0.003053	-0.000603	-0.001559				87.717684	1.586655	-40.399436
00407	1966074	-0.246121	9.800824	0.324306				-0.006265	0.003897	-0.001686				87.718038	1.586405	-40.398618
00408	1966124	-0.269564	9.816503	0.319098				-0.005529	-0.001030	0.000114				87.716433	1.586360	-40.398912
00409	1966174	-0.241840	9.833729	0.316493				-0.002420	0.001162	0.002012				87.717888	1.585011	-40.398838
00410	1966224	-0.247213	9.806387	0.316029				-0.002637	0.000802	0.001302				87.717141	1.584648	-40.398588
00411	1966274	-0.233890	9.796478	0.323451				-0.003391	0.000038	-0.002455				87.718264	1.584566	-40.398895
00412	1966324	-0.240296	9.810748	0.300697				-0.004440	0.003091	-0.001281				87.717005	1.584963	-40.398020
00413	1966374	-0.223814	9.804795	0.299286				-0.006273	0.001054	-0.000101				87.717350	1.584223	-40.398021
00414	1966424	-0.217606	9.789904	0.316633				-0.000564	0.000765	-0.003229				87.717186	1.585151	-40.397833
00415	1966474	-0.232796	9.812711	0.302183				-0.005390	0.000155	-0.004888				87.717781	1.585776	-40.398133
00416	1966524	-0.229435	9.809087	0.309467				-0.000761	0.001056	-0.001911				87.717574	1.586336	-40.397856
00417	1966574	-0.233782	9.811402	0.324727				-0.007550	0.000095	-0.000164				87.717519	1.585600	-40.398122
00418	1966624	-0.240394	9.820684	0.317538				-0.004899	-0.002065	-0.003458				87.716098	1.586567	-40.398751
00419	1966674	-0.233963	9.796134	0.299200				-0.001962	-0.000583	-0.001051				87.717641	1.586073	-40.399231
00420	1966724	-0.230745	9.820894	0.311328				0.000039	0.003171	-0.001771				87.717679	1.586616	-40.398348
00421	1966774	-0.242003	9.818658	0.324548				-0.006584	0.004089	-0.000338				87.717933	1.585973	-40.397445
00422	1966824	-0.221767	9.799582	0.316424				-0.002734	-0.000538	-0.002042				87.717143	1.586548	-40.397623
00423	1966874	-0.241974	9.817090	0.318249				-0.004631	0.000889	-0.001420				87.717931	1.586184	-40.397671
00424	1966924	-0.230562	9.808575	0.326359				-0.004934	-0.000127	-0.005756				87.716513	1.587827	-40.397776
00425	1966974	-0.239635	9.806730	0.315328				-0.003108	-0.002830	-0.000382				87.717745	1.587128	-40.398881
00426	1967024	-0.240480	9.808991	0.306267				-0.002687	0.001641	0.002879				87.716986	1.586321	-40.398376
00427	1967074	-0.257100	9.818075	0.334855				-0.003814	0.000388	-0.001743				87.718019	1.586041	-40.398573
00428	1967124	-0.239034	9.815827	0.310635				-0.006021	0.003386	-0.000988				87.716323	1.586359	-40.397614
00429	1967174	-0.253398	9.813357	0.305016				-0.000322	0.003683	0.000319				87.718378	1.585535	-40.396852
00430	1967224	-0.255530	9.807817	0.324767				-0.004291	-0.002116	-0.003777				87.717125	1.586594	-40.397494
00431	1967274	-0.239079	9.790377	0.330255				-0.005359	0.000521	-0.001260				87.717708	1.586171	-40.397641
00432	1967324	-0.247569	9.820941	0.310330				-0.003797	-0.002225	0.001162				87.716605	1.585815	-40.398264
00433	1967374	-0.265037	9.817002	0.321179				-0.001018	0.002281	-0.001003				87.718456	1.585347	-40.397919
00434	1967424	-0.249139	9.808584	0.310432				-0.007042	0.001238	0.000993				87.716448	1.585073	-40.397554
00435	1967474	-0.228228	9.811990	0.337339				-0.005294	0.003394	-0.002719				87.717091	1.585117	-40.396913
00436	1967524	-0.245739	9.801558	0.307002				-0.005581	-0.000615	-0.002131				87.715488	1.585717	-40.397114
00437	1967574	-0.240586	9.801227	0.317788				-0.005199	-0.002584	-0.002176				87.716088	1.585530	-40.398149
00438	1967624	-0.230217	9.807517	0.302558				-0.003058	0.000022	0.001556				87.715211	1.585082	-40.398130
00439	1967674	-0.237906	9.805258	0.304288				-0.001682	-0.000348	-0.000667				87.716857	1.584489	-40.398531
00440	1967724	-0.225647	9.786954	0.316908				-0.003291	0.002945	-0.001931				87.715943	1.585075	-40.397715
00441	1967774	-0.233232	9.798386	0.292268				-0.002539	-0.001726	-0.001921				87.717317	1.584819	-40.398506
00442	1967824	-0.232232	9.806305	0.302413				-0.004476	0.002828	-0.003333				87.716056	1.585803	-40.397731
00443	1967874	-0.245052	9.820637	0.316602				-0.003545	-0.001188	-0.001017				87.717157	1.585298	-40.398395
00444	1967924	-0.232321	9.803427	0.319870				-0.004660	0.000592	-0.002190				87.715824	1.585929	-40.398254
00445	1967974	-0.250443	9.810361	0.317077				-0.003679	-0.000836	-0.000180				87.716888	1.585190	-40.398785
00446	1968024	-0.253832	9.809488	0.309678				-0.004058	-0.000402	-0.005149				87.715728	1.586658	-40.398962
00447	1968074	-0.245371	9.804287	0.315608				-0.002130	0.001740	-0.002930				87.717226	1.586731	-40.398793
00448	1968124	-0.261747	9.817329	0.317800				-0.004844	0.001433	-0.002249				87.715852	1.587391	-40.398412
00449	1968174	-0.249046	9.831557	0.297355				-0.002728	-0.000527	0.000529				87.717198	1.586460	-40.398837
00450	1968224	-0.225353	9.810611	0.305338				0.001376	0.001384	-0.000952				87.717606	1.586749	-40.398448
00451	1968274	-0.227583	9.811318	0.304577				-0.006715	0.001588	-0.005711				87.717830	1.587609	-40.398386
00452	1968324	-0.248941	9.809773	0.310535				-0.001593	-0.000061	-0.002427				87.717370	1.588305	-40.398431
00453	1968374	-0.256508	9.834616	0.324276				-0.004675	0.001079	-0.003310				87.718160	1.588483	-40.398455
00454	1968424	-0.216282	9.806637	0.324955				-0.000637	-0.000620	0.001835				87.717967	1.587952	-40.398604
00455	1968474	-0.235952	9.806941	0.304451				-0.000127	0.001457	-0.000304				87.720063	1.587270	-40.398504
00456	1968524	-0.230654	9.803272	0.331564				-0.002842	0.003021	-0.002120				87.719264	1.587911	-40.397658
00457	1968574	-0.220826	9.810539	0.314278				-0.002797	0.002997	0.001891				87.720633	1.586625	-40.397073
00458	1968624	-0.246992	9.818143	0.338629				-0.004295	-0.001360	0.002099				87.719396	1.586012	-40.397439
00459	1968674	-0.222074	9.796742	0.300168				-0.001687	0.000809	-0.001910				87.721044	1.585774	-40.397524
00460	1968724	-0.242217	9.800404	0.308583				-0.002082	-0.002952	-0.002889				87.720427	1.586565	-40.398405
00461	1968774	-0.229961	9.818753	0.312213				-0.003874	0.001162	-0.000715				87.721427	1.585999	-40.398366
00462	1968824	-0.245522	9.818696	0.303689				-0.005539	0.000127	-0.002349				87.719837	1.586672	-40.398359
00463	1968874	-0.245779	9.812748	0.304620				-0.003707	-0.000995	0.000747				87.720901	1.585661	-40.398911
00464	1968924	-0.226642	9.806217	0.328404				-0.002596	0.000182	-0.002008				87.720161	1.586236	-40.398887
00465	1968974	-0.242262	9.817087	0.302898				-0.003778	0.003426	-0.000157				87.721237	1.585535	-40.398213
00466	1969024	-0.242246	9.802818	0.321072				-0.002113	0.000454	0.000464				87.720639	1.585406	-40.398078
00467	1969074	-0.255637	9.835891	0.303711				-0.004310	0.000799	-0.000874				87.721543	1.584887	-40.398143
00468	1969124	-0.252199	9.821793	0.312807				-0.006180	0.000152	-0.001676				87.719782	1.585370	-40.398117
00469	1969174	-0.245466	9.808676	0.307453				-0.002647	0.001286	0.002781				87.721133	1.583796	-40.397980
00470	1969224	-0.249292	9.812312	0.299159				-0.006217	0.000545	0.001822				87.719351	1.583277	-40.397804
00471	1969274	-0.255715	9.822476	0.311860				-0.005702	-0.000611	0.000598				87.719851	1.582319	-40.398280
00472	1969324	-0.248947	9.827653	0.319742				-0.004595	-0.001073	0.002453				87.718532	1.581598	-40.398562
00473	1969374	-0.250573	9.812980	0.301468				-0.002418	0.000700	-0.001425				87.719975	1.581241	-40.398661
00474	1969424	-0.237812	9.820800	0.296881				-0.003949	0.002651	-0.000386				87.718871	1.581380	-40.397912
00475	1969474	-0.246374	9.820367	0.286853				-0.002846	0.001854	-0.004303				87.720183	1.581851	-40.397698
00476	1969524	-0.243633	9.822895	0.309911				-0.006209	-0.000047	-0.002123				87.718403	1.582454	-40.397736
00477	1969574	-0.251296	9.838532	0.304577				-0.004007	-0.001449	0.002644				87.719376	1.580896	-40.398418
00478	1969624	-0.237908	9.807082	0.293585				-0.006099	-0.003666	-0.002304				87.717600	1.581514	-40.399489
00479	1969674	-0.231324	9.810978	0.308137				-0.004027	-0.000004	-0.000916				87.718585	1.580991	-40.399800
00480	1969724	-0.235014	9.821942	0.316985				-0.003327	0.001372	0.000826				87.717636	1.580771	-40.399396
00481	1969774	-0.231866	9.820991	0.304504				-0.002868	-0.000110	0.000010				87.718959	1.579980	-40.399723
00482	1969824	-0.214397	9.789534	0.312374				-0.004061	-0.000137	-0.002073				87.717799	1.580573	-40.399787
00483	1969874	-0.241344	9.813375	0.316122				-0.004253	-0.000180	-0.002768				87.718711	1.580580	-40.400144
00484	1969924	-0.259452	9.836307	0.312679				-0.003042	0.003271	-0.002047				87.717865	1.581200	-40.399229
00485	1969974	-0.232386	9.802553	0.307924				-0.001539	-0.003080	-0.004167				87.719546	1.581576	-40.400462
00486	1970024	-0.244381	9.811249	0.319118				-0.004876	-0.000574	0.000282				87.718137	1.581487	-40.400623
00487	1970074	-0.228067	9.793265	0.314185				-0.005131	-0.000010	-0.005970				87.718784	1.582409	-40.400969
00488	1970124	-0.241896	9.824257	0.308464				-0.001933	0.001446	-0.002472				87.718233	1.583132	-40.400581
00489	1970174	-0.245000	9.825048	0.315694				-0.003783	0.000416	-0.000197				87.719296	1.582409	-40.400790
00490	1970224	-0.244287	9.820221	0.306346				-0.003753	0.001183	-0.003882				87.718233	1.583532	-40.400496
00491	1970274	-0.249212	9.830940	0.315225				-0.004641	0.000975	-0.003178				87.719036	1.583669	-40.400550
00492	1970324	-0.233090	9.791112	0.295537				-0.004933	0.004139	-0.003384				87.717669	1.584689	-40.399405
00493	1970374	-0.252181	9.824032	0.315027				-0.004029	0.000925	-0.002149				87.718644	1.584527	-40.399447
00494	1970424	-0.257616	9.825506	0.306847				-0.001971	0.001772	-0.001154				87.718090	1.584882	-40.398943
00495	1970474	-0.258502	9.807885	0.326008				0.000585	0.001946	-0.002348				87.720405	1.584788	-40.398702
00496	1970524	-0.234885	9.802162	0.300391				-0.008284	0.003956	-0.001740				87.718058	1.585330	-40.397585
00497	1970574	-0.216012	9.793694	0.311501				-0.004645	0.001239	-0.000162				87.718877	1.584607	-40.397501
00498	1970624	-0.240593	9.800048	0.325646				-0.000573	0.000782	-0.003865				87.718722	1.585720	-40.397329
00499	1970674	-0.247634	9.827400	0.299865				-0.003456	-0.001106	-0.003545				87.719876	1.585935	-40.397991
00500	1970724	-0.254017	9.832289	0.300471				-0.006644	0.001919	0.001267				87.717983	1.585592	-40.397423
00501	1970774	-0.242210	9.800616	0.302424				-0.000930	-0.000796	-0.000726				87.719845	1.585008	-40.397982
00502	1970824	-0.250172	9.816382	0.319839				-0.004660	0.001757	-0.000605				87.718524	1.585201	-40.397488
00503	1970874	-0.225806	9.806203	0.322814				-0.005006	-0.000611	-0.001776				87.719205	1.584918	-40.397909
00504	1970924	-0.229692	9.806066	0.313182				-0.002445	0.001865	0.000898				87.718516	1.584684	-40.397366
00505	1970974	-0.224184	9.821280	0.300056				-0.003785	0.001413	-0.002027				87.719585	1.584489	-40.397285
00506	1971024	-0.234649	9.833572	0.309865				-0.001846	0.001968	-0.001032				87.719086	1.584804	-40.396743
00507	1971074	-0.238789	9.802923	0.309647				-0.001504	-0.001137	-0.003866				87.720779	1.585117	-40.397393
00508	1971124	-0.249838	9.809680	0.308595				-0.005969	0.003574	-0.001171				87.719092	1.585491	-40.396381
00509	1971174	-0.233378	9.813293	0.302990				-0.004279	0.000761	-0.002088				87.720002	1.585315	-40.396469
00510	1971224	-0.232564	9.811203	0.331668				-0.003496	-0.001810	-0.001305				87.718978	1.585669	-40.396996
00511	1971274	-0.250007	9.817734	0.324951				-0.007404	0.001481	-0.000341				87.719007	1.584986	-40.396870
00512	1971324	-0.242736	9.819383	0.300548				-0.001720	0.005075	-0.001782				87.718562	1.585553	-40.395439
00513	1971374	-0.241426	9.819461	0.312264				-0.000849	0.001559	-0.003216				87.720453	1.585708	-40.395314
00514	1971424	-0.260653	9.812425	0.321963				-0.001826	-0.002046	-0.003392				87.719919	1.586657	-40.395941
00515	1971474	-0.237438	9.810075	0.308656				-0.001964	-0.000753	-0.003001				87.721492	1.586720	-40.396501
00516	1971524	-0.237197	9.810839	0.305117				-0.002628	-0.002899	-0.001377				87.720717	1.587083	-40.397351
00517	1971574	-0.244151	9.814633	0.299911				-0.004331	0.001340	-0.001667				87.721621	1.586789	-40.397272
00518	1971624	-0.235790	9.818686	0.305208				-0.005964	0.001377	-0.001179				87.719932	1.587141	-40.396903
00519	1971674	-0.235809	9.790164	0.308952				-0.004040	0.002051	-0.004458				87.720919	1.587651	-40.396635
00520	1971724	-0.235440	9.802619	0.316819				-0.003248	0.000717	0.000087				87.719992	1.587635	-40.396434
00521	1971774	-0.244479	9.815985	0.319625				0.000448	-0.000671	-0.001274				87.722255	1.587207	-40.396931
00522	1971824	-0.225487	9.789783	0.311075				-0.003008	-0.003029	-0.000832				87.721381	1.587414	-40.397810
00523	1971874	-0.238327	9.795448	0.317874				-0.005710	0.001908	0.004018				87.721883	1.585492	-40.397516
00524	1971924	-0.251184	9.824012	0.316645				-0.000792	0.001152	0.000153				87.721678	1.585463	-40.397195
00525	1971974	-0.233345	9.817948	0.309188				-0.003560	-0.000010	-0.003727				87.722781	1.585739	-40.397519
00526	1972024	-0.230823	9.797537	0.295944				-0.002695	-0.002192	-0.004131				87.721993	1.586893	-40.398191
00527	1972074	-0.231063	9.796544	0.298525				-0.001696	-0.000007	-0.003161				87.723653	1.587026	-40.398513
00528	1972124	-0.238709	9.816475	0.307739				-0.002816	0.004243	-0.001272				87.722883	1.587438	-40.397315
00529	1972174	-0.235050	9.810963	0.314266				-0.006634	0.001435	0.000810				87.723130	1.586436	-40.397178
00530	1972224	-0.245638	9.819409	0.311896				-0.005218	0.005303	-0.001065				87.721683	1.586805	-40.395668
00531	1972274	-0.230328	9.801346	0.326618				-0.003377	0.001748	-0.000676				87.722857	1.586228	-40.395468
00532	1972324	-0.247736	9.813113	0.303088				-0.003812	0.003091	-0.004613				87.721784	1.587583	-40.394632
00533	1972374	-0.238854	9.809314	0.310836				-0.003646	0.003033	-0.001533				87.722921	1.587266	-40.394041
00534	1972424	-0.227694	9.801678	0.307301				-0.005363	0.005178	0.002749				87.721417	1.586531	-40.392524
00535	1972474	-0.240644	9.800977	0.311353				-0.003439	0.002618	-0.002497				87.722612	1.586506	-40.392116
00536	1972524	-0.242711	9.800166	0.300405				-0.006205	-0.000017	0.000030				87.720827	1.586496	-40.392119
00537	1972574	-0.235744	9.801124	0.321170				-0.003040	-0.000997	-0.001593				87.722108	1.586150	-40.392710
00538	1972624	-0.249889	9.823062	0.317874				-0.002729	-0.000336	0.001463				87.721325	1.585732	-40.392795
00539	1972674	-0.255297	9.813411	0.339465				-0.004096	0.001987	-0.003267				87.722313	1.585909	-40.392528
00540	1972724	-0.249261	9.806094	0.310952				-0.003960	0.004099	0.000592				87.721205	1.585788	-40.391349
00541	1972774	-0.221777	9.802669	0.309376				-0.005083	0.002109	0.000808				87.721928	1.584791	-40.391062
00542	1972824	-0.249578	9.821614	0.288604				-0.002588	-0.000050	-0.001646				87.721192	1.585265	-40.391095
00543	1972874	-0.245271	9.804408	0.315924				-0.002205	-0.000080	-0.002228				87.722695	1.585110	-40.391404
00544	1972924	-0.233081	9.803314	0.319954				-0.004805	0.001269	-0.001892				87.721332	1.585668	-40.391062
00545	1972974	-0.252867	9.809407	0.308323				-0.002514	-0.000403	-0.002163				87.722744	1.585492	-40.391496
00546	1973024	-0.245804	9.815675	0.307678				0.000102	-0.000039	-0.001492				87.722777	1.585920	-40.391528
00547	1973074	-0.251946	9.813088	0.301532				-0.001951	0.003322	-0.001469				87.724376	1.585588	-40.390890
00548	1973124	-0.245874	9.824397	0.295564				-0.004590	-0.001641	-0.002742				87.723042	1.586356	-40.391379
00549	1973174	-0.246035	9.804086	0.320970				-0.002272	-0.000080	-0.003991				87.724526	1.586704	-40.391761
00550	1973224	-0.249578	9.823470	0.322467				-0.006036	0.000601	-0.001918				87.722807	1.587259	-40.391611
00551	1973274	-0.237965	9.810569	0.306837				-0.004773	-0.000194	-0.005268				87.723582	1.587977	-40.392025
00552	1973324	-0.230653	9.811072	0.310867				-0.005396	0.000247	-0.005905				87.722031	1.589668	-40.392025
00553	1973374	-0.254801	9.825913	0.313404				-0.005628	0.000930	-0.000513				87.722572	1.589039	-40.392054
00554	1973424	-0.252963	9.808078	0.302330				-0.004607	-0.002521	-0.006496				87.721228	1.590873	-40.392844
00555	1973474	-0.233168	9.813467	0.307760				-0.004020	-0.000369	-0.001454				87.722231	1.590495	-40.393292
00556	1973524	-0.245403	9.807734	0.315295				-0.005520	0.000115	-0.005873				87.720628	1.592177	-40.393314
00557	1973574	-0.234486	9.815535	0.310634				-0.004195	-0.001249	-0.004763				87.721593	1.592745	-40.394040
00558	1973624	-0.239485	9.788883	0.327653				-0.002758	-0.000964	-0.004604				87.720799	1.594052	-40.394372
00559	1973674	-0.252500	9.811716	0.313123				-0.004936	-0.001708	-0.000845				87.721520	1.593485	-40.395183
00560	1973724	-0.235724	9.802902	0.313084				-0.004457	0.000173	-0.001415				87.720251	1.593886	-40.395158
00561	1973774	-0.236363	9.818452	0.304222				-0.006302	0.000881	-0.003076				87.720582	1.593995	-40.395209
00562	1973824	-0.249338	9.821229	0.314040				-0.002810	0.001574	0.005548				87.719796	1.592422	-40.394694
00563	1973874	-0.239770	9.815678	0.312844				-0.005018	0.001448	-0.006285				87.720525	1.593453	-40.394640
00564	1973924	-0.236603	9.814844	0.307403				-0.000640	0.001078	-0.003380				87.720353	1.594433	-40.394368
00565	1973974	-0.248518	9.815719	0.303053				-0.003903	0.001696	-0.005034				87.721387	1.595113	-40.394239
00566	1974024	-0.237685	9.815426	0.330718				-0.000913	0.002661	-0.002537				87.721149	1.595865	-40.393508
00567	1974074	-0.229695	9.818524	0.320819				-0.001325	-0.000251	0.000946				87.722914	1.594809	-40.393863
00568	1974124	-0.240545	9.824220	0.296270				-0.002789	0.000466	-0.000006				87.722117	1.594818	-40.393727
00569	1974174	-0.239612	9.813372	0.308171				-0.002727	0.000266	-0.001165				87.723489	1.594363	-40.393976
00570	1974224	-0.241484	9.800711	0.296987				-0.003893	0.002906	0.000169				87.722393	1.594345	-40.393144
00571	1974274	-0.230380	9.829873	0.323005				-0.002464	-0.001250	-0.005021				87.723841	1.594981	-40.393871
00572	1974324	-0.221896	9.805300	0.323109				-0.006156	-0.002662	-0.000081				87.722050	1.594973	-40.394627
00573	1974374	-0.241166	9.811508	0.304921				-0.005852	0.001127	0.001927				87.722521	1.593646	-40.394545
00574	1974424	-0.225962	9.803181	0.319079				-0.006446	0.003633	-0.001489				87.720700	1.594112	-40.393523
00575	1974474	-0.256056	9.823975	0.315715				-0.002860	0.001296	-0.003660				87.722058	1.594386	-40.393474
00576	1974524	-0.246936	9.809998	0.321447				-0.002974	0.001743	-0.005905				87.721212	1.596098	-40.393039
00577	1974574	-0.240881	9.821319	0.314937				-0.003663	-0.000520	-0.001712				87.722314	1.595796	-40.393508
00578	1974624	-0.225659	9.800884	0.313792				-0.005665	0.001253	-0.000029				87.720702	1.595816	-40.393154
00579	1974674	-0.254151	9.813664	0.308567				-0.003234	0.000164	-0.001100				87.721920	1.595336	-40.393415
00580	1974724	-0.246501	9.831131	0.304973				-0.004886	0.001848	-0.001502				87.720538	1.595788	-40.392904
00581	1974774	-0.251605	9.819140	0.309267				-0.005093	0.001162	-0.002530				87.721243	1.595751	-40.392876
00582	1974824	-0.245586	9.814583	0.317388				-0.003150	-0.000121	0.001757				87.720340	1.595247	-40.392898
00583	1974874	-0.233897	9.805246	0.301108				-0.004815	-0.000283	0.001913				87.721102	1.593896	-40.393248
00584	1974924	-0.250109	9.817060	0.306610				-0.003311	-0.000583	-0.001677				87.720139	1.594367	-40.393433
00585	1974974	-0.237127	9.820383	0.316885				-0.004507	0.001015	-0.000163				87.721017	1.593641	-40.393444
00586	1975024	-0.253156	9.811430	0.315775				-0.005423	0.002684	-0.000916				87.719482	1.593931	-40.392692
00587	1975074	-0.239452	9.810919	0.313701				-0.001524	0.001576	-0.003599				87.721210	1.594200	-40.392547
00588	1975124	-0.249193	9.804281	0.305879				-0.002881	-0.000796	0.000342				87.720380	1.594092	-40.392768
00589	1975174	-0.236828	9.814548	0.326896				-0.002534	0.000276	-0.000229				87.721829	1.593372	-40.392998
00590	1975224	-0.239244	9.825769	0.335586				-0.004079	0.004607	-0.002676				87.720699	1.594190	-40.391712
00591	1975274	-0.232342	9.806325	0.325663				-0.001445	0.000126	-0.003961				87.722422	1.594536	-40.391984
00592	1975324	-0.240291	9.797486	0.307078				-0.003429	0.002622	0.001255				87.721469	1.594206	-40.391224
00593	1975374	-0.246689	9.829538	0.300360				-0.004680	0.001236	-0.002629				87.722279	1.594184	-40.391196
00594	1975424	-0.238468	9.819146	0.304174				-0.003714	0.001159	-0.001894				87.721238	1.594741	-40.390893
00595	1975474	-0.251209	9.804748	0.319813				-0.004921	0.001845	-0.001502				87.721977	1.594401	-40.390669
00596	1975524	-0.251349	9.802059	0.309421				-0.007889	0.001477	-0.001913				87.719727	1.594966	-40.390265
00597	1975574	-0.235342	9.812674	0.310563				-0.003411	-0.001559	-0.003321				87.720894	1.595108	-40.391068
00598	1975624	-0.264006	9.822438	0.316041				-0.003355	-0.000029	-0.000585				87.719925	1.595273	-40.391085
00599	1975674	-0.233910	9.809886	0.323797				-0.002712	-0.001088	-0.000308				87.721308	1.594560	-40.391717
00600	1975724	-0.235086	9.827424	0.308239				-0.005234	0.002386	-0.004416				87.719824	1.595848	-40.391085
00601	1975774	-0.262988	9.812088	0.326829				-0.003517	0.002134	0.000294				87.720986	1.595007	-40.390747
00602	1975824	-0.258047	9.810051	0.309054				-0.004079	-0.000233	0.000250				87.719817	1.594938	-40.390807
00603	1975874	-0.251714	9.800718	0.319606				-0.003848	0.001216	-0.002730				87.720872	1.594937	-40.390782
00604	1975924	-0.239898	9.801165	0.315211				-0.003756	0.001745	0.000896				87.719817	1.594701	-40.390268
00605	1975974	-0.244687	9.809083	0.320924				-0.002672	-0.001640	-0.003069				87.721198	1.594776	-40.391066
00606	1976024	-0.236783	9.814333	0.309833				-0.001504	0.002131	-0.002378				87.720785	1.595479	-40.390485
00607	1976074	-0.212333	9.791151	0.325316				-0.001502	0.000934	-0.002740				87.722523	1.595493	-40.390542
00608	1976124	-0.234897	9.800677	0.320201				-0.003311	0.002918	0.001095				87.721597	1.595205	-40.389700
00609	1976174	-0.227099	9.805782	0.303147				-0.004046	-0.001466	-0.000564				87.722583	1.594566	-40.390408
00610	1976224	-0.240241	9.816536	0.318101				-0.003929	0.000734	-0.002281				87.721464	1.595225	-40.390228
00611	1976274	-0.246416	9.814339	0.301827				-0.004137	0.001542	0.000098				87.722457	1.594431	-40.390094
00612	1976324	-0.262849	9.819407	0.313700				-0.005123	-0.001004	-0.001899				87.720983	1.594963	-40.390404
00613	1976374	-0.236228	9.802326	0.319346				-0.006837	-0.002614	-0.001267				87.721146	1.594501	-40.391467
00614	1976424	-0.251953	9.821693	0.327745				-0.004189	0.001284	0.000548				87.719957	1.594361	-40.391092
00615	1976474	-0.233455	9.807799	0.321229				-0.007324	-0.000300	-0.003821				87.720009	1.594661	-40.391519
00616	1976524	-0.235897	9.822378	0.342723				-0.001363	0.003885	-0.001661				87.719648	1.595180	-40.390426
00617	1976574	-0.242370	9.827915	0.301504				-0.002661	0.000338	-0.000495				87.721062	1.594537	-40.390641
00618	1976624	-0.255645	9.808125	0.297299				-0.002804	-0.002413	-0.000506				87.720249	1.594658	-40.391344
00619	1976674	-0.241745	9.804862	0.320269				-0.004020	-0.002567	-0.001946				87.721210	1.594390	-40.392360
00620	1976724	-0.253749	9.826521	0.305904				-0.003581	0.003201	-0.000919				87.720208	1.594689	-40.391461
00621	1976774	-0.230449	9.816842	0.321281				0.000226	0.001230	-0.000849				87.722434	1.594156	-40.391387
00622	1976824	-0.228968	9.791775	0.301948				-0.004296	0.001442	0.000741				87.721212	1.593962	-40.390960
00623	1976874	-0.236402	9.817462	0.322657				-0.005343	0.001164	-0.000478				87.721880	1.593324	-40.390924
00624	1976924	-0.247472	9.812923	0.316118				-0.002020	-0.000720	0.000080				87.721309	1.593292	-40.391136
00625	1976974	-0.240670	9.798052	0.316579				-0.000957	0.001141	-0.001390				87.723178	1.592915	-40.391099
00626	1977024	-0.234267	9.798099	0.287888				-0.003230	-0.001223	-0.001688				87.722248	1.593382	-40.391473
00627	1977074	-0.236474	9.804983	0.316829				-0.002977	0.002107	-0.001540				87.723575	1.593052	-40.391183
00628	1977124	-0.252291	9.823321	0.299234				-0.003695	0.001482	-0.002306				87.722523	1.593731	-40.390784
00629	1977174	-0.241091	9.798470	0.304367				-0.001042	0.002589	-0.002537				87.724409	1.593697	-40.390380
00630	1977224	-0.238108	9.809169	0.305163				-0.004664	0.001814	-0.001951				87.723088	1.594277	-40.389888
00631	1977274	-0.251052	9.817005	0.309488				-0.002730	-0.000609	-0.001813				87.724457	1.593997	-40.390366
00632	1977324	-0.254164	9.834164	0.317418				-0.002568	0.001504	0.000411				87.723747	1.593899	-40.389934
00633	1977374	-0.233784	9.802428	0.315180				-0.004064	0.001188	0.000544				87.724753	1.592964	-40.389903
00634	1977424	-0.240280	9.791087	0.306749				-0.002255	0.000539	-0.000907				87.724114	1.593229	-40.389756
00635	1977474	-0.250848	9.806232	0.300350				-0.002354	-0.000170	0.000535				87.725588	1.592281	-40.390082
00636	1977524	-0.241078	9.809049	0.310332				-0.007360	0.000197	0.002412				87.723480	1.591592	-40.389998
00637	1977574	-0.246437	9.824859	0.311830				-0.003837	-0.002241	-0.001364				87.724528	1.591170	-40.390954
00638	1977624	-0.243144	9.822372	0.321942				-0.004506	-0.000149	-0.002127				87.723228	1.591771	-40.391022
00639	1977674	-0.229909	9.814787	0.331739				-0.005856	-0.002883	0.001970				87.723674	1.590380	-40.392098
00640	1977724	-0.248040	9.805291	0.317892				-0.004841	-0.000440	0.001659				87.722289	1.589899	-40.392207
00641	1977774	-0.238917	9.803773	0.331442				-0.003346	0.000614	-0.000876				87.723503	1.589374	-40.392339
00642	1977824	-0.263193	9.824986	0.321067				-0.002635	-0.001569	-0.001495				87.722742	1.589787	-40.392811
00643	1977874	-0.258305	9.839422	0.311911				-0.002237	-0.002313	-0.003551				87.724246	1.589979	-40.393816
00644	1977924	-0.246155	9.823732	0.308300				-0.004188	-0.001147	-0.002095				87.723030	1.590563	-40.394161
00645	1977974	-0.244745	9.814595	0.302235				-0.002933	0.002149	0.001892				87.724374	1.589259	-40.393843
00646	1978024	-0.237919	9.802235	0.324273				-0.003109	0.001365	-0.000871				87.723494	1.589521	-40.393468
00647	1978074	-0.246413	9.820870	0.308654				0.000755	0.000489	-0.003479				87.725882	1.589731	-40.393645
00648	1978124	-0.245151	9.817019	0.313534				-0.003590	-0.000749	-0.001808				87.724844	1.590239	-40.393874
00649	1978174	-0.241955	9.826412	0.306524				-0.000654	0.002765	-0.000610				87.726846	1.589655	-40.393415
00650	1978224	-0.235039	9.828383	0.307474				-0.002355	-0.000698	-0.004666				87.726161	1.590980	-40.393662
00651	1978274	-0.227955	9.789896	0.317257				-0.003511	-0.002459	-0.002626				87.727312	1.590922	-40.394693
00652	1978324	-0.243666	9.801021	0.337229				-0.004181	0.000831	-0.000519				87.726122	1.591080	-40.394460
00653	1978374	-0.243077	9.818535	0.324548				-0.002119	0.001413	-0.002251				87.727699	1.590943	-40.394384
00654	1978424	-0.231491	9.783570	0.324955				-0.003740	-0.000071	-0.000525				87.726630	1.591089	-40.394413
00655	1978474	-0.254709	9.796729	0.314400				-0.005345	-0.001203	-0.002771				87.727259	1.591085	-40.395073
00656	1978524	-0.238178	9.816769	0.304566				-0.001874	0.000679	-0.000813				87.726727	1.591332	-40.394882
00657	1978574	-0.245174	9.806596	0.297059				-0.004216	-0.001467	-0.002133				87.727667	1.591125	-40.395619
00658	1978624	-0.244175	9.804783	0.322949				-0.007421	-0.000268	-0.002083				87.725533	1.591715	-40.395719
00659	1978674	-0.241939	9.808807	0.310433				-0.003884	-0.001591	-0.000564				87.726580	1.591065	-40.396473
00660	1978724	-0.255663	9.819745	0.297343				-0.005194	-0.001039	-0.003698				87.725086	1.592110	-40.396819
00661	1978774	-0.231055	9.811115	0.308099				-0.002266	-0.003381	-0.002664				87.726579	1.592045	-40.398104
00662	1978824	-0.231670	9.791294	0.315730				-0.006644	0.002891	0.001040				87.724692	1.591780	-40.397259
00663	1978874	-0.245986	9.813806	0.321443				-0.004693	0.001622	-0.003109				87.725535	1.591894	-40.397134
00664	1978924	-0.241495	9.803284	0.314997				-0.004794	-0.000320	-0.004244				87.724153	1.593102	-40.397274
00665	1978974	-0.230359	9.790742	0.322132				-0.005852	-0.001107	-0.000138				87.724622	1.592344	-40.397891
00666	1979024	-0.262095	9.814241	0.326328				-0.004905	0.000264	-0.002667				87.723229	1.593113	-40.397853
00667	1979074	-0.240243	9.805960	0.311377				-0.005453	-0.000521	-0.000165				87.723842	1.592362	-40.398293
00668	1979124	-0.255494	9.819637	0.289386				-0.002844	0.001013	-0.001221				87.723041	1.592725	-40.398015
00669	1979174	-0.238784	9.799500	0.316187				-0.003081	0.000396	-0.001456				87.724328	1.592353	-40.398239
00670	1979224	-0.242902	9.821286	0.299902				-0.003590	0.000388	0.001469				87.723304	1.591935	-40.398115
00671	1979274	-0.233418	9.827831	0.313960				-0.003842	0.001252	-0.001574				87.724379	1.591619	-40.398041
00672	1979324	-0.231762	9.815308	0.312222				-0.002775	-0.001152	-0.001010				87.723574	1.591896	-40.398382
00673	1979374	-0.252069	9.797933	0.299236				-0.006601	-0.000130	-0.005263				87.723844	1.592602	-40.398768
00674	1979424	-0.232306	9.816883	0.301804				-0.004908	0.000127	-0.003985				87.722452	1.593745	-40.398790
00675	1979474	-0.244892	9.795446	0.313058				-0.002267	0.000829	-0.002029				87.723970	1.593547	-40.398863
00676	1979524	-0.247136	9.803065	0.293510				-0.006560	0.001617	-0.005157				87.722100	1.595037	-40.398460
00677	1979574	-0.244545	9.811645	0.308760				-0.004537	-0.000048	0.000986				87.722986	1.593966	-40.398755
00678	1979624	-0.248643	9.819229	0.305846				-0.002458	0.000087	0.000631				87.722285	1.593784	-40.398723
00679	1979674	-0.239358	9.811837	0.315871				-0.000896	-0.001702	-0.000056				87.724195	1.592990	-40.399531
00680	1979724	-0.238576	9.804850	0.307982				-0.002275	0.001376	-0.000904				87.723561	1.593267	-40.399154
00681	1979774	-0.230661	9.786435	0.308633				-0.001795	-0.001070	-0.002134				87.725195	1.593071	-40.399773
00682	1979824	-0.246520	9.816572	0.310422				-0.001770	0.001615	-0.000773				87.724708	1.593311	-40.399322
00683	1979874	-0.235433	9.805361	0.308284				-0.006503	0.000202	-0.003467				87.725015	1.593507	-40.399598
00684	1979924	-0.259224	9.801095	0.304077				-0.005838	-0.000461	-0.003284				87.723346	1.594446	-40.399773
00685	1979974	-0.238265	9.813674	0.320723				-0.004347	0.002382	-0.000769				87.724261	1.593902	-40.399369
00686	1980024	-0.256523	9.815463	0.313086				-0.003168	0.000433	-0.001044				87.723362	1.594210	-40.399258
00687	1980074	-0.249008	9.806672	0.304704				-0.002483	0.002125	-0.001131				87.724848	1.593762	-40.398976
00688	1980124	-0.243417	9.825158	0.325814				-0.004035	-0.002497	-0.000156				87.723672	1.593778	-40.399689
00689	1980174	-0.250434	9.819651	0.323015				-0.007919	-0.004400	0.000680				87.723559	1.592743	-40.401243
00690	1980224	-0.235171	9.809693	0.319898				-0.002272	0.003251	-0.004335				87.722938	1.594023	-40.400365
00691	1980274	-0.251400	9.817415	0.313359				-0.005834	0.003647	-0.003359				87.723452	1.594232	-40.399626
00692	1980324	-0.237664	9.807050	0.320003				-0.002918	0.001829	0.001083				87.722623	1.593946	-40.399084
00693	1980374	-0.253481	9.810807	0.325277				-0.001398	0.001235	-0.000912				87.724414	1.593432	-40.399038
00694	1980424	-0.223556	9.800400	0.332171				-0.005800	0.000682	0.001468				87.722773	1.593022	-40.398829
00695	1980474	-0.247156	9.830440	0.303106				-0.006124	0.000963	0.000061				87.723189	1.592214	-40.398852
00696	1980524	-0.249790	9.819142	0.326067				-0.004848	-0.002382	-0.002299				87.721781	1.592845	-40.399559
00697	1980574	-0.270457	9.827992	0.304787				-0.001590	0.000204	-0.000275				87.723505	1.592146	-40.399780
00698	1980624	-0.252454	9.827023	0.304895				-0.002389	-0.001113	-0.002880				87.722805	1.592962	-40.400128
00699	1980674	-0.241989	9.828650	0.315800				-0.000469	0.001252	-0.002422				87.724848	1.592871	-40.400071
00700	1980724	-0.239931	9.801464	0.311159				-0.004370	0.003063	-0.001245				87.723627	1.593265	-40.399211
00701	1980774	-0.228850	9.796417	0.308886				-0.003089	0.000148	0.001332				87.724919	1.592085	-40.399456
00702	1980824	-0.241118	9.810855	0.300798				-0.004126	0.000320	0.000177				87.723742	1.592033	-40.399367
00703	1980874	-0.239555	9.804142	0.322211				-0.004015	0.003035	-0.000482				87.724786	1.591420	-40.398766
00704	1980924	-0.235831	9.805038	0.328904				-0.006121	-0.000463	-0.001549				87.723032	1.591860	-40.398921
00705	1980974	-0.241995	9.792494	0.321886				-0.002251	0.002971	0.000186				87.724592	1.591048	-40.398372
00706	1981024	-0.238962	9.811134	0.315566				-0.000532	0.000893	-0.003643				87.724452	1.592100	-40.398165
00707	1981074	-0.226393	9.786770	0.305557				-0.003747	0.000453	-0.000846				87.725553	1.591555	-40.398336
00708	1981124	-0.267920	9.822494	0.308818				-0.001470	0.002395	-0.002605				87.725152	1.592328	-40.397683
00709	1981174	-0.240430	9.809894	0.317699				-0.001665	-0.001648	-0.002724				87.726840	1.592305	-40.398480
00710	1981224	-0.251392	9.819505	0.316216				-0.003758	-0.000357	-0.000852				87.725753	1.592545	-40.398591
00711	1981274	-0.224171	9.816889	0.323498				-0.003088	-0.000019	0.000238				87.727038	1.591678	-40.398870
00712	1981324	-0.243322	9.819747	0.322428				-0.005469	-0.001033	-0.002134				87.725461	1.592277	-40.399190
00713	1981374	-0.246342	9.812556	0.309256				-0.003166	0.000235	-0.002451				87.726738	1.592188	-40.399456
00714	1981424	-0.233238	9.821106	0.304410				-0.004766	-0.000664	-0.000527				87.725355	1.592328	-40.399647
00715	1981474	-0.240778	9.821114	0.297444				-0.002781	-0.000595	-0.000245				87.726749	1.591602	-40.400128
00716	1981524	-0.232465	9.797915	0.301486				-0.003240	0.000589	-0.001203				87.725830	1.591954	-40.399973
00717	1981574	-0.233501	9.811646	0.317622				-0.005011	0.001754	-0.002823				87.726574	1.591984	-40.399782
00718	1981624	-0.246640	9.801559	0.315015				-0.005306	-0.000937	-0.002132				87.725047	1.592587	-40.400075
00719	1981674	-0.232151	9.812052	0.307504				-0.003640	0.001430	0.000247				87.726188	1.591737	-40.399938
00720	1981724	-0.234194	9.803345	0.332664				-0.003708	0.003067	-0.005036				87.725155	1.593219	-40.399111
00721	1981774	-0.244136	9.812151	0.306587				-0.002646	0.001182	-0.000811				87.726603	1.592666	-40.399117
00722	1981824	-0.254664	9.819026	0.314340				-0.003952	0.000869	-0.001102				87.725484	1.592993	-40.398886
00723	1981874	-0.236061	9.803499	0.305063				-0.002734	0.001024	0.001077				87.726873	1.591904	-40.398865
00724	1981924	-0.236114	9.820780	0.307848				0.002627	0.000693	-0.000448				87.727638	1.592043	-40.398676
00725	1981974	-0.235811	9.809561	0.312614				-0.007036	0.000135	-0.001068				87.727820	1.591556	-40.398950
00726	1982024	-0.239219	9.826444	0.306590				-0.005966	-0.000200	0.000089				87.726115	1.591527	-40.399016
00727	1982074	-0.265412	9.840967	0.297869				-0.006881	0.004435	-0.003187				87.726349	1.591702	-40.398089
00728	1982124	-0.249199	9.818526	0.304911				-0.002874	0.000075	-0.003222				87.725522	1.592622	-40.398107
00729	1982174	-0.244420	9.809376	0.317362				-0.002278	-0.000624	-0.003585				87.727052	1.592852	-40.398611
00730	1982224	-0.234333	9.813083	0.300376				-0.005875	0.000802	-0.001259				87.725376	1.593223	-40.398401
00731	1982274	-0.238509	9.811839	0.331967				-0.005142	0.001010	-0.001802				87.726084	1.592951	-40.398456
00732	1982324	-0.243892	9.811317	0.330788				-0.001791	-0.000349	0.001837				87.725561	1.592425	-40.398540
00733	1982374	-0.244679	9.827664	0.315686				-0.003800	0.002857	0.004975				87.726690	1.590243	-40.397964
00734	1982424	-0.236284	9.815497	0.311839				-0.003976	-0.004757	-0.001612				87.725504	1.590646	-40.399331
00735	1982474	-0.242696	9.816822	0.297145				-0.002218	-0.000431	-0.003550				87.727053	1.590864	-40.399808
00736	1982524	-0.261501	9.817800	0.310988				-0.003576	0.002435	0.000833				87.726045	1.590653	-40.399095
00737	1982574	-0.247216	9.812560	0.308364				-0.005744	0.001674	-0.002085				87.726593	1.590479	-40.398933
00738	1982624	-0.235023	9.820212	0.314309				-0.008071	-0.000597	-0.002316				87.724279	1.591140	-40.399129
00739	1982674	-0.233154	9.802680	0.314498				-0.004447	0.000082	-0.003606				87.725195	1.591375	-40.399447
00740	1982724	-0.231825	9.816818	0.306550				-0.005323	0.001454	-0.004494				87.723683	1.592681	-40.399081
00741	1982774	-0.244518	9.825641	0.308457				-0.001001	-0.000143	-0.000630				87.725579	1.592058	-40.399405
00742	1982824	-0.252751	9.816667	0.314721				0.000078	0.001171	-0.000434				87.725616	1.592193	-40.399076
00743	1982874	-0.237453	9.802404	0.298151				-0.003388	0.002531	0.000828				87.726822	1.591194	-40.398612
00744	1982924	-0.226380	9.814650	0.313204				-0.002355	0.000726	-0.004572				87.726152	1.592511	-40.398460
00745	1982974	-0.257673	9.820301	0.321500				-0.004629	-0.002089	-0.003071				87.727017	1.592575	-40.399391
00746	1983024	-0.261430	9.814655	0.299570				-0.006858	0.000726	0.000831				87.725059	1.592346	-40.399169
00747	1983074	-0.251107	9.819448	0.320271				-0.004099	-0.001294	0.001328				87.726041	1.591156	-40.399842
00748	1983124	-0.254338	9.812023	0.306688				-0.004733	-0.000887	-0.000883				87.724685	1.591399	-40.400105
00749	1983174	-0.253503	9.818051	0.316776				-0.006121	-0.002501	-0.000504				87.725084	1.590716	-40.401126
00750	1983224	-0.240847	9.792159	0.297765				-0.006399	-0.001656	0.002133				87.723233	1.590085	-40.401578
00751	1983274	-0.249438	9.806067	0.296809				-0.002995	0.000080	-0.001171				87.724564	1.589633	-40.401868
00752	1983324	-0.250114	9.808264	0.323439				-0.005320	-0.000449	-0.000977				87.723036	1.589906	-40.402008
00753	1983374	-0.235437	9.814607	0.323398				-0.006833	0.001983	-0.000960				87.723297	1.589410	-40.401750
00754	1983424	-0.234859	9.807622	0.316001				-0.007363	0.004329	-0.003223				87.721219	1.590380	-40.400545
00755	1983474	-0.222220	9.808612	0.323251				-0.005128	-0.000280	0.000598				87.721925	1.589420	-40.400924
00756	1983524	-0.235022	9.808137	0.313487				-0.003545	-0.001029	-0.000407				87.720900	1.589527	-40.401220
00757	1983574	-0.231227	9.810671	0.305765				-0.003400	0.000717	-0.000755				87.722141	1.588958	-40.401330
00758	1983624	-0.229725	9.802103	0.308688				-0.003009	0.001466	-0.002450				87.721293	1.589674	-40.400935
00759	1983674	-0.231543	9.798361	0.303247				-0.005434	0.001167	-0.000297				87.721926	1.588976	-40.400903
00760	1983724	-0.232895	9.816838	0.319531				-0.006624	0.002339	-0.002048				87.720045	1.589594	-40.400253
00761	1983774	-0.244440	9.818764	0.308805				-0.006624	0.000274	-0.001353				87.720341	1.589188	-40.400506
00762	1983824	-0.241989	9.822616	0.306864				-0.004937	0.000922	0.001085				87.718935	1.588884	-40.400238
00763	1983874	-0.250182	9.804111	0.315905				-0.000624	0.001189	-0.000724				87.720961	1.588319	-40.400197
00764	1983924	-0.245264	9.812608	0.307247				-0.002456	0.001547	0.001915				87.720270	1.587786	-40.399736
00765	1983974	-0.252243	9.820064	0.325455				0.001182	0.000472	-0.002626				87.722788	1.587740	-40.399936
00766	1984024	-0.232102	9.805221	0.320145				-0.002323	0.001260	0.001300				87.722131	1.587384	-40.399559
00767	1984074	-0.240339	9.803345	0.327255				-0.005079	0.001104	-0.002380				87.722881	1.587284	-40.399557
00768	1984124	-0.256278	9.811652	0.313876				-0.004598	0.001019	-0.002155				87.721566	1.587915	-40.399288
00769	1984174	-0.246893	9.798733	0.313576				-0.004284	-0.000853	-0.002009				87.722541	1.587684	-40.399881
00770	1984224	-0.252459	9.820652	0.318549				-0.003158	0.004142	-0.003939				87.721675	1.588863	-40.398743
00771	1984274	-0.252459	9.815275	0.297133				-0.004902	0.000497	-0.002738				87.722451	1.588850	-40.398929
00772	1984324	-0.236283	9.807302	0.319832				-0.006263	0.001118	-0.002027				87.720662	1.589439	-40.398632
00773	1984374	-0.242232	9.804910	0.317312				-0.001389	-0.000187	-0.002815				87.722460	1.589451	-40.399012
00774	1984424	-0.243244	9.815502	0.305129				-0.002781	0.003342	-0.002472				87.721696	1.590195	-40.398093
00775	1984474	-0.235188	9.814206	0.319314				-0.006417	0.001922	-0.001509				87.722063	1.589857	-40.397853
00776	1984524	-0.236010	9.820960	0.327382				-0.002740	-0.004186	-0.001483				87.721242	1.590232	-40.399070
00777	1984574	-0.250651	9.817244	0.325238				-0.002314	0.000998	0.000340				87.722782	1.589349	-40.399090
00778	1984624	-0.226833	9.805620	0.313553				-0.005865	0.000810	0.002107				87.721103	1.588755	-40.398831
00779	1984674	-0.253972	9.822735	0.305079				-0.007679	0.000256	-0.000545				87.721104	1.588122	-40.399072
00780	1984724	-0.234236	9.802697	0.312651				-0.007491	0.000294	-0.001096				87.718954	1.588437	-40.398998
00781	1984774	-0.252844	9.821401	0.315545				-0.003635	-0.000098	-0.002069				87.720117	1.588241	-40.399369
00782	1984824	-0.231874	9.806187	0.319025				-0.004335	-0.002041	0.001867				87.718854	1.587681	-40.399932
00783	1984874	-0.233408	9.807376	0.317501				-0.000992	-0.000533	-0.001246				87.720762	1.587236	-40.400370
00784	1984924	-0.240553	9.807661	0.308432				-0.001457	0.000745	-0.004986				87.720341	1.588671	-40.400210
00785	1984974	-0.249096	9.810547	0.314714				-0.003040	0.002732	0.000030				87.721697	1.587897	-40.399751
00786	1985024	-0.239946	9.825998	0.304857				-0.002103	-0.000975	-0.001466				87.721093	1.588302	-40.400046
00787	1985074	-0.236810	9.816169	0.313709				-0.004216	0.001154	-0.001613				87.722073	1.587982	-40.400009
00788	1985124	-0.255406	9.810563	0.324149				-0.003564	-0.000126	-0.001332				87.721051	1.588362	-40.400060
00789	1985174	-0.253627	9.806713	0.313207				-0.006164	0.000989	-0.001287				87.721498	1.587945	-40.400101
00790	1985224	-0.236156	9.819263	0.313771				-0.004755	0.000146	-0.000269				87.720126	1.588022	-40.400056
00791	1985274	-0.241200	9.816822	0.298252				-0.004753	-0.000017	0.000054				87.720988	1.587217	-40.400346
00792	1985324	-0.248709	9.812663	0.315839				-0.008067	0.003381	-0.002489				87.718701	1.587967	-40.399410
00793	1985374	-0.235304	9.808617	0.312595				-0.005620	0.000771	-0.003247				87.719298	1.588115	-40.399525
00794	1985424	-0.238359	9.816491	0.306959				-0.000980	0.000411	0.002162				87.719024	1.587501	-40.399382
00795	1985474	-0.256564	9.821514	0.304835				-0.005542	0.000650	0.001309				87.719631	1.586336	-40.399496
00796	1985524	-0.248080	9.817483	0.311848				-0.002574	0.002664	-0.004075				87.718925	1.587532	-40.398786
00797	1985574	-0.253940	9.797703	0.312639				-0.002415	0.003098	-0.000002				87.720442	1.586768	-40.398188
00798	1985624	-0.233045	9.799803	0.316618				-0.004500	0.002252	0.000126				87.719166	1.586756	-40.397539
00799	1985674	-0.244895	9.824528	0.319283				-0.003157	-0.002290	-0.003331				87.720444	1.586891	-40.398570
00800	1985724	-0.231642	9.801297	0.313244				-0.003593	-0.001450	-0.001180				87.719401	1.587207	-40.399004
00801	1985774	-0.238631	9.811749	0.306692				0.000408	0.000786	-0.001689				87.721711	1.586916	-40.399089
00802	1985824	-0.226582	9.808673	0.316116				-0.003067	-0.003600	0.002721				87.720812	1.586098	-40.400093
00803	1985874	-0.236596	9.813298	0.315898				-0.004476	0.001051	-0.001901				87.721748	1.585851	-40.400136
00804	1985924	-0.258462	9.819978	0.310988				-0.003288	0.002401	-0.000773				87.720814	1.586099	-40.399456
00805	1985974	-0.252251	9.828463	0.319524				-0.002756	0.001570	-0.000969				87.722227	1.585605	-40.399313
00806	1986024	-0.229316	9.789980	0.326488				-0.005789	-0.001614	0.001681				87.720560	1.585106	-40.399756
00807	1986074	-0.239954	9.818133	0.307077				-0.004976	-0.000381	-0.003733				87.721333	1.585376	-40.400206
00808	1986124	-0.252646	9.821246	0.310260				-0.006506	0.002467	-0.004100				87.719485	1.586576	-40.399549
00809	1986174	-0.248976	9.810841	0.341911				-0.005602	0.000554	0.001726				87.720080	1.585292	-40.399678
00810	1986224	-0.241816	9.809473	0.297928				-0.002929	0.006423	0.000981				87.719289	1.585083	-40.397835
00811	1986274	-0.235696	9.811091	0.305332				-0.003590	-0.001414	0.000908				87.720459	1.584015	-40.398513
00812	1986324	-0.237789	9.804966	0.300932				-0.001116	0.004437	-0.003014				87.720162	1.584926	-40.397275
00813	1986374	-0.256128	9.834896	0.314778				-0.002965	0.001013	-0.001581				87.721528	1.584595	-40.397312
00814	1986424	-0.252881	9.829417	0.303342				-0.004920	-0.000992	-0.001876				87.720111	1.585122	-40.397614
00815	1986474	-0.242584	9.806039	0.319949				-0.002750	0.001609	0.001433				87.721535	1.583929	-40.397433
00816	1986524	-0.251010	9.821786	0.337870				-0.006142	0.002647	0.002541				87.719799	1.583234	-40.396653
00817	1986574	-0.232301	9.819414	0.307211				-0.001626	0.001361	-0.001810				87.721544	1.582967	-40.396565
00818	1986624	-0.232103	9.782958	0.317375				-0.005233	0.001041	0.000992				87.720055	1.582696	-40.396253
00819	1986674	-0.238516	9.816766	0.319798				-0.006168	0.002222	-0.000028				87.720508	1.581935	-40.395921
00820	1986724	-0.243216	9.822955	0.299601				-0.002717	-0.000723	-0.001495				87.719717	1.582357	-40.396138
00821	1986774	-0.227179	9.795980	0.292327				-0.002159	0.001803	-0.002963				87.721329	1.582429	-40.395967
00822	1986824	-0.249646	9.815281	0.315212				-0.002997	-0.000185	-0.002425				87.720478	1.583123	-40.396052
00823	1986874	-0.252727	9.818223	0.306337				-0.002529	-0.000492	-0.000564				87.721948	1.582484	-40.396488
00824	1986924	-0.240295	9.829597	0.302039				-0.004251	0.000987	-0.004018				87.720742	1.583649	-40.396250
00825	1986974	-0.237910	9.806334	0.319975				-0.002152	0.001838	-0.001166				87.722326	1.583197	-40.396032
00826	1987024	-0.256521	9.817688	0.306975				-0.005877	0.002328	0.001320				87.720668	1.582853	-40.395349
00827	1987074	-0.228845	9.806603	0.309553				-0.001053	0.000307	-0.002271				87.722557	1.582708	-40.395596
00828	1987124	-0.234228	9.806075	0.308755				-0.004689	0.002090	0.000160				87.721235	1.582683	-40.394999
00829	1987174	-0.240037	9.814370	0.320477				-0.004517	0.000831	0.002592				87.722156	1.581152	-40.395016
00830	1987224	-0.255855	9.825666	0.328994				-0.004748	0.000723	-0.001641				87.720795	1.581632	-40.394823
00831	1987274	-0.255013	9.794518	0.334337				0.000528	-0.000053	-0.001435				87.723138	1.581246	-40.395162
00832	1987324	-0.246341	9.800439	0.311106				0.000541	-0.002573	-0.001965				87.723282	1.581782	-40.395928
00833	1987374	-0.257670	9.809711	0.315745				-0.003471	0.000947	0.000021				87.724506	1.580994	-40.395966
00834	1987424	-0.227171	9.809469	0.310146				-0.006083	0.004714	-0.000370				87.722801	1.581155	-40.394627
00835	1987474	-0.239386	9.800769	0.310177				-0.003394	0.001726	0.000569				87.724043	1.580204	-40.394413
00836	1987524	-0.226158	9.804784	0.306501				-0.003392	0.000427	-0.000659				87.723074	1.580399	-40.394293
00837	1987574	-0.250310	9.811250	0.314273				-0.001971	0.001197	-0.000529				87.724702	1.579767	-40.394267
00838	1987624	-0.235243	9.805449	0.302652				-0.001448	0.000386	-0.005315				87.724297	1.581292	-40.394225
00839	1987674	-0.251375	9.820890	0.303662				0.000335	0.000878	-0.003646				87.726612	1.581551	-40.394307
00840	1987724	-0.242445	9.816454	0.306597				-0.003423	0.002497	-0.000418				87.725654	1.581703	-40.393595
00841	1987774	-0.229938	9.807987	0.311335				-0.003652	0.001819	0.001791				87.726847	1.580420	-40.393369
00842	1987824	-0.247419	9.835534	0.310338				0.000593	0.000241	0.001416				87.727015	1.580017	-40.393279
00843	1987874	-0.239138	9.805361	0.320835				-0.000717	-0.002211	-0.000644				87.728997	1.579378	-40.394217
00844	1987924	-0.238307	9.805085	0.324060				-0.003898	0.004689	0.002448				87.727932	1.578733	-40.392854
00845	1987974	-0.237222	9.814891	0.304130				-0.002371	0.000571	-0.001045				87.729450	1.578236	-40.393005
00846	1988024	-0.254595	9.836437	0.308030				-0.002490	0.000349	-0.001074				87.728748	1.578550	-40.392922
00847	1988074	-0.214993	9.811655	0.301103				-0.003346	0.003204	-0.001770				87.730024	1.578291	-40.392322
00848	1988124	-0.237292	9.791894	0.318370				-0.006346	0.000367	-0.003953				87.728216	1.579428	-40.392264
00849	1988174	-0.236237	9.805527	0.311880				-0.004961	0.002334	-0.003336				87.729012	1.579609	-40.391923
00850	1988224	-0.250156	9.803920	0.328586				-0.000875	0.000662	-0.003517				87.728769	1.580623	-40.391773
00851	1988274	-0.246230	9.815188	0.292558				-0.007048	-0.000609	-0.001673				87.728946	1.580294	-40.392279
00852	1988324	-0.229680	9.812384	0.319224				-0.004729	0.001208	-0.001548				87.727594	1.580752	-40.391951
00853	1988374	-0.248158	9.826079	0.308100				-0.006131	0.003964	-0.002135				87.728072	1.580605	-40.391116
00854	1988424	-0.247819	9.814046	0.304206				-0.004850	0.002589	-0.006059				87.726696	1.582368	-40.390443
00855	1988474	-0.226460	9.826694	0.316610				-0.004523	0.003834	-0.000313				87.727643	1.581708	-40.389661
00856	1988524	-0.263320	9.821721	0.301665				-0.004380	0.000886	-0.005169				87.726393	1.583194	-40.389467
00857	1988574	-0.246157	9.817997	0.311168				-0.003991	0.001963	-0.003147				87.727478	1.583326	-40.389230
00858	1988624	-0.252178	9.808251	0.307118				-0.002582	0.003218	-0.002532				87.726757	1.584086	-40.388338
00859	1988674	-0.242230	9.816367	0.312032				0.001081	0.001996	0.000045				87.729300	1.583298	-40.388060
00860	1988724	-0.232967	9.805712	0.333365				-0.003506	0.002369	0.001858				87.728315	1.582795	-40.387360
00861	1988774	-0.241556	9.816019	0.304015				-0.005940	-0.000300	-0.003797				87.728826	1.583077	-40.387781
00862	1988824	-0.222816	9.813677	0.317561				-0.006533	0.000238	-0.002672				87.726959	1.583843	-40.387750
00863	1988874	-0.231908	9.812636	0.300771				-0.003282	0.001979	-0.001225				87.728243	1.583423	-40.387494
00864	1988924	-0.219973	9.802918	0.310256				-0.001524	0.002040	-0.002898				87.727823	1.584277	-40.386942
00865	1988974	-0.235603	9.817727	0.305860				-0.005358	-0.002459	-0.003619				87.728471	1.584487	-40.388006
00866	1989024	-0.229945	9.822714	0.325576				-0.009047	0.000609	-0.005419				87.725886	1.586044	-40.387896
00867	1989074	-0.250421	9.807673	0.331105				-0.004882	0.005054	-0.002550				87.726724	1.586029	-40.386789
00868	1989124	-0.242589	9.824853	0.299885				-0.004265	-0.000529	-0.002297				87.725499	1.586678	-40.386966
00869	1989174	-0.246871	9.802057	0.313262				-0.001166	0.004184	-0.000158				87.727402	1.585980	-40.386068
00870	1989224	-0.256366	9.822893	0.323673				-0.005092	-0.000143	0.003518				87.725946	1.584973	-40.386067
00871	1989274	-0.237429	9.812571	0.315716				-0.004528	0.002325	0.002789				87.726898	1.583398	-40.385653
00872	1989324	-0.257850	9.829859	0.332333				-0.006042	-0.001141	-0.002928				87.725150	1.584217	-40.386008
00873	1989374	-0.240464	9.806778	0.304176				-0.003590	-0.001647	-0.002268				87.726336	1.584059	-40.386813
00874	1989424	-0.241386	9.822919	0.303032				-0.005886	-0.000945	-0.003188				87.724650	1.584961	-40.387124
00875	1989474	-0.252964	9.824732	0.299472				-0.004446	0.002542	-0.000446				87.725587	1.584316	-40.386685
00876	1989524	-0.251188	9.828279	0.301658				-0.005943	0.003164	-0.001337				87.723900	1.584733	-40.385792
00877	1989574	-0.245016	9.819672	0.326522				-0.005629	0.003461	-0.000408				87.724540	1.584095	-40.385105
00878	1989624	-0.243319	9.825360	0.312161				-0.004034	0.001448	-0.001449				87.723394	1.584526	-40.384708
00879	1989674	-0.243819	9.829142	0.297502				-0.006343	0.001439	-0.002437				87.723822	1.584453	-40.384618
00880	1989724	-0.258591	9.816478	0.322484				-0.003303	-0.001415	-0.001916				87.722876	1.584988	-40.385049
00881	1989774	-0.238469	9.816435	0.325984				-0.004862	-0.000464	0.001783				87.723660	1.583670	-40.385461
00882	1989824	-0.246043	9.814504	0.322197				-0.003367	-0.000986	0.002131				87.722696	1.583054	-40.385717
00883	1989874	-0.250990	9.808024	0.322883				-0.001897	-0.000515	0.000760				87.724357	1.582022	-40.386154
00884	1989924	-0.237141	9.802782	0.304903				-0.003586	-0.002298	-0.003604				87.723311	1.583034	-40.386849
00885	1989974	-0.231736	9.821390	0.302677				-0.003177	0.001628	0.001069				87.724642	1.581941	-40.386686
00886	1990024	-0.252649	9.823335	0.313303				-0.001710	0.001648	-0.002016				87.724172	1.582539	-40.386243
00887	1990074	-0.242828	9.807673	0.306060				-0.001343	0.002106	-0.002300				87.726003	1.582423	-40.385970
00888	1990124	-0.238697	9.833368	0.320267				-0.007436	0.002655	0.000605				87.723893	1.582281	-40.385204
00889	1990174	-0.232463	9.821690	0.297483				-0.006086	0.002614	0.002206				87.724398	1.580878	-40.384755
00890	1990224	-0.218455	9.804145	0.293001				-0.002322	-0.000397	-0.001574				87.723728	1.581324	-40.384886
00891	1990274	-0.234510	9.821823	0.318018				-0.003325	-0.001869	-0.000649				87.724970	1.580697	-40.385727
00892	1990324	-0.250283	9.805211	0.306174				-0.004088	-0.000498	-0.003684				87.723788	1.581741	-40.385917
00893	1990374	-0.236089	9.819302	0.311378				-0.005814	0.001770	-0.001520				87.724353	1.581409	-40.385723
00894	1990424	-0.244282	9.802309	0.314741				-0.003692	0.001517	-0.000888				87.723301	1.581681	-40.385294
00895	1990474	-0.242336	9.804047	0.310645				-0.002456	-0.002342	-0.002258				87.724810	1.581496	-40.386317
00896	1990524	-0.243304	9.817660	0.319760				-0.003744	0.003199	-0.001452				87.723751	1.581945	-40.385413
00897	1990574	-0.252491	9.836249	0.306578				-0.002316	0.000834	-0.000346				87.725318	1.581259	-40.385497
00898	1990624	-0.238941	9.814911	0.316903				-0.003444	-0.001453	-0.000840				87.724324	1.581482	-40.385924
00899	1990674	-0.239748	9.802166	0.311693				-0.005335	0.001645	-0.003706				87.725022	1.581772	-40.385778
00900	1990724	-0.244338	9.801868	0.312025				-0.008090	-0.001538	-0.004097				87.722696	1.582927	-40.386271
00901	1990774	-0.259347	9.814062	0.309088				-0.004947	0.001690	-0.002004				87.723504	1.582722	-40.386117
00902	1990824	-0.245326	9.798547	0.311401				-0.003664	-0.001225	0.000896				87.722442	1.582449	-40.386451
00903	1990874	-0.228612	9.810580	0.298345				-0.003289	0.002649	-0.004699				87.723728	1.583029	-40.386074
00904	1990924	-0.244986	9.819350	0.316202				-0.002433	-0.000723	-0.000003				87.723013	1.583019	-40.386277
00905	1990974	-0.232451	9.819642	0.307248				-0.003824	0.001875	0.002003				87.724170	1.581671	-40.386025
00906	1991024	-0.223570	9.810822	0.301753				-0.006936	0.001915	-0.000458				87.722194	1.581824	-40.385482
00907	1991074	-0.240230	9.806436	0.311677				-0.005162	0.002332	-0.001585				87.722973	1.581517	-40.385125
00908	1991124	-0.249615	9.805671	0.322953				-0.005186	0.001975	-0.002901				87.721510	1.582371	-40.384595
00909	1991174	-0.247021	9.820792	0.298123				0.000703	-0.000735	-0.001708				87.723922	1.582054	-40.385148
00910	1991224	-0.245122	9.808586	0.291029				-0.005604	-0.001875	-0.000192				87.722296	1.582089	-40.385682
00911	1991274	-0.244809	9.814206	0.296275				-0.003018	0.000234	-0.003590				87.723632	1.582312	-40.385950
00912	1991324	-0.243411	9.814090	0.304940				-0.003771	0.000969	-0.000505				87.722553	1.582467	-40.385674
00913	1991374	-0.234920	9.800344	0.311063				-0.000839	0.002508	-0.002202				87.724572	1.582334	-40.385264
00914	1991424	-0.236954	9.805412	0.319244				-0.004076	0.001478	-0.001077				87.723429	1.582661	-40.384860
00915	1991474	-0.235617	9.808655	0.324989				-0.001491	-0.000481	-0.002956				87.725199	1.582695	-40.385346
00916	1991524	-0.240328	9.808651	0.321802				0.000883	0.002794	-0.001531				87.725476	1.583165	-40.384564
00917	1991574	-0.236850	9.799618	0.310140				-0.003191	0.001977	-0.002167				87.726798	1.583013	-40.384321
00918	1991624	-0.252898	9.812529	0.305739				-0.005803	-0.001688	-0.000639				87.725121	1.583180	-40.384808
00919	1991674	-0.264441	9.827800	0.321980				-0.001767	0.001419	-0.002402				87.726851	1.583081	-40.384730
00920	1991724	-0.246981	9.807766	0.327365				0.000220	-0.003581	0.000775				87.726885	1.582818	-40.385745
00921	1991774	-0.242394	9.809584	0.305636				-0.004163	0.001287	-0.000886				87.727936	1.582279	-40.385697
00922	1991824	-0.242099	9.799928	0.332405				-0.001395	0.002313	0.002190				87.727558	1.581680	-40.385008
00923	1991874	-0.223923	9.803404	0.306036				-0.004833	-0.000858	-0.000098				87.728375	1.580893	-40.385575
00924	1991924	-0.247165	9.827604	0.317816				-0.001384	-0.000410	-0.000260				87.727976	1.580965	-40.385695
00925	1991974	-0.237329	9.809626	0.307301				-0.004123	-0.000034	0.000803				87.729022	1.579932	-40.385972
00926	1992024	-0.255780	9.820319	0.306178				-0.004366	-0.000236	0.001483				87.727766	1.579504	-40.386019
00927	1992074	-0.240416	9.825929	0.324204				-0.000653	-0.001706	-0.004920				87.729780	1.580094	-40.386883
00928	1992124	-0.254868	9.823867	0.322957				-0.003507	0.003652	-0.004241				87.728808	1.581350	-40.385889
00929	1992174	-0.242286	9.815449	0.310360				-0.002459	0.003960	-0.003665				87.730350	1.581642	-40.385081
00930	1992224	-0.242934	9.832808	0.306651				-0.006302	-0.000019	-0.001017				87.728549	1.581930	-40.385109
00931	1992274	-0.231986	9.813191	0.310714				-0.006115	0.005423	-0.000665				87.729061	1.581384	-40.383857
00932	1992324	-0.237476	9.812475	0.306875				0.001279	0.002246	-0.003145				87.729442	1.582307	-40.383249
00933	1992374	-0.233450	9.800408	0.307748				-0.002866	-0.001372	-0.000842				87.730852	1.581736	-40.383930
00934	1992424	-0.237070	9.812496	0.321041				-0.007447	0.000642	-0.002839				87.728730	1.582559	-40.383775
00935	1992474	-0.251899	9.815867	0.305495				-0.006326	-0.002016	0.002855				87.729116	1.580917	-40.384647
00936	1992524	-0.241900	9.830417	0.293194				-0.004482	0.001050	-0.002492				87.727831	1.581644	-40.384365
00937	1992574	-0.240563	9.809376	0.321010				-0.004970	0.002599	0.000759				87.728671	1.580657	-40.383933
00938	1992624	-0.239988	9.806240	0.309175				-0.003286	0.000814	-0.001180				87.727738	1.581004	-40.383711
00939	1992674	-0.234515	9.820192	0.316415				-0.004750	0.002564	-0.001648				87.728621	1.580698	-40.383276
00940	1992724	-0.246998	9.807837	0.322920				-0.005666	0.001099	-0.000691				87.727020	1.580912	-40.382974
00941	1992774	-0.259733	9.828238	0.296779				-0.001761	-0.000576	0.000573				87.728719	1.579936	-40.383422
00942	1992824	-0.241151	9.831985	0.299766				-0.000580	0.001509	-0.000255				87.728562	1.580028	-40.382988
00943	1992874	-0.228222	9.811047	0.314511				-0.006858	0.003333	-0.001510				87.728842	1.579692	-40.382336
00944	1992924	-0.241547	9.809649	0.317543				-0.001343	0.002208	-0.002462				87.728480	1.580420	-40.381731
00945	1992974	-0.228944	9.794674	0.314189				-0.002585	-0.000175	-0.001639				87.729971	1.580096	-40.382102
00946	1993024	-0.241553	9.809725	0.312351				-0.004119	0.001667	-0.004286				87.728800	1.581340	-40.381672
00947	1993074	-0.242542	9.819400	0.299595				-0.003524	-0.000071	-0.004261				87.730019	1.581758	-40.382044
00948	1993124	-0.242987	9.809693	0.313951				0.000071	-0.002297	-0.003614				87.730018	1.582767	-40.382742
00949	1993174	-0.243265	9.811552	0.331124				-0.007381	-0.000487	-0.002363				87.730138	1.582635	-40.383203
00950	1993224	-0.249252	9.821321	0.323720				-0.005921	0.001156	-0.000815				87.728448	1.582881	-40.382881
00951	1993274	-0.261298	9.811458	0.307395				-0.003391	-0.002132	-0.002865				87.729697	1.582880	-40.383822
00952	1993324	-0.224676	9.803271	0.313719				-0.003619	0.002594	0.000626				87.728690	1.582731	-40.383076
00953	1993374	-0.233908	9.798723	0.309210				-0.005423	-0.001320	0.001028				87.729328	1.581615	-40.383749
00954	1993424	-0.249786	9.811100	0.309221				-0.003725	-0.000389	0.000225				87.728247	1.581544	-40.383856
00955	1993474	-0.241868	9.815572	0.301971				-0.001436	0.001271	0.000617				87.730101	1.580584	-40.383796
00956	1993524	-0.255867	9.831790	0.300627				-0.002136	0.001296	0.002705				87.729485	1.579821	-40.383384
00957	1993574	-0.244034	9.814108	0.287582				-0.001142	0.001818	-0.002337				87.731404	1.579717	-40.383201
00958	1993624	-0.241764	9.803516	0.299461				-0.004975	0.000753	0.001358				87.729981	1.579333	-40.382967
00959	1993674	-0.239791	9.798141	0.327183				-0.004547	-0.000150	-0.003425				87.730927	1.579510	-40.383371
00960	1993724	-0.236433	9.819622	0.321015				-0.007386	-0.002494	-0.002950				87.728785	1.580326	-40.384123
00961	1993774	-0.244908	9.803348	0.292533				-0.005069	-0.001709	-0.002122				87.729545	1.580110	-40.384948
00962	1993824	-0.239640	9.802497	0.321023				-0.006332	-0.000846	0.003023				87.727720	1.579234	-40.385145
00963	1993874	-0.237615	9.798739	0.320656				-0.003086	0.000425	-0.002177				87.729060	1.579059	-40.385360
00964	1993924	-0.244603	9.812112	0.308926				-0.001111	0.001980	-0.001595				87.728743	1.579532	-40.384804
00965	1993974	-0.239424	9.822619	0.308592				-0.006120	-0.000557	0.000904				87.729211	1.578470	-40.385219
00966	1994024	-0.248963	9.819203	0.307119				-0.004335	0.000469	-0.002494				87.727968	1.579186	-40.385111
00967	1994074	-0.243832	9.824506	0.306162				-0.005488	0.001615	-0.001165				87.728659	1.578739	-40.384964
00968	1994124	-0.232775	9.819468	0.303029				-0.006759	-0.003031	-0.002958				87.726689	1.579551	-40.385861
00969	1994174	-0.246836	9.830892	0.320230				-0.002551	0.000791	-0.003589				87.728200	1.579785	-40.385993
00970	1994224	-0.245327	9.810279	0.319807				-0.004928	-0.002024	-0.000454				87.726769	1.579893	-40.386578
00971	1994274	-0.255089	9.825361	0.318069				-0.000575	-0.002921	-0.001495				87.728822	1.579485	-40.387757
00972	1994324	-0.233366	9.808022	0.306335				-0.005626	0.000706	-0.002622				87.727214	1.580243	-40.387580
00973	1994374	-0.245850	9.817787	0.309016				-0.004540	0.000987	-0.001402				87.728143	1.579858	-40.387602
00974	1994424	-0.237479	9.812615	0.313236				-0.003343	0.000520	-0.001730				87.727178	1.580360	-40.387474
00975	1994474	-0.229454	9.811772	0.312748				-0.002669	0.000042	-0.005420				87.728651	1.581115	-40.387803
00976	1994524	-0.235996	9.800632	0.306506				-0.001851	-0.001872	0.002072				87.728107	1.580503	-40.388316
00977	1994574	-0.226630	9.803827	0.306763				-0.005746	-0.000358	-0.000571				87.728687	1.579856	-40.388714
00978	1994624	-0.248084	9.808794	0.321698				-0.002169	0.001635	-0.005411				87.728066	1.581420	-40.388302
00979	1994674	-0.239921	9.821305	0.316362				-0.002391	-0.000136	-0.000580				87.729629	1.580783	-40.388663
00980	1994724	-0.253216	9.830896	0.314621				-0.007141	0.000162	-0.001143				87.727585	1.581110	-40.388630
00981	1994774	-0.251388	9.805540	0.314358				-0.008629	-0.003543	-0.000418				87.727333	1.580385	-40.389950
00982	1994824	-0.249799	9.820091	0.325656				-0.007872	0.000960	-0.000817				87.725095	1.580632	-40.389692
00983	1994874	-0.232565	9.802268	0.310993				0.001615	-0.000265	-0.001553				87.727766	1.580271	-40.390066
00984	1994924	-0.249300	9.819932	0.320863				-0.007591	0.000254	-0.000755				87.725597	1.580492	-40.390002
00985	1994974	-0.234976	9.811837	0.288393				-0.005927	0.002158	-0.001647				87.726122	1.580182	-40.389705
00986	1995024	-0.239293	9.814219	0.330665				-0.000016	-0.003462	-0.002271				87.726074	1.580789	-40.390725
00987	1995074	-0.241958	9.812655	0.306752				-0.002753	0.002380	-0.000852				87.727564	1.580268	-40.390370
00988	1995124	-0.230482	9.795361	0.329973				-0.001492	-0.001353	-0.001358				87.727126	1.580641	-40.390776
00989	1995174	-0.234168	9.805840	0.324440				-0.000247	0.001962	-0.002825				87.729299	1.580666	-40.390541
00990	1995224	-0.259665	9.811785	0.318520				-0.006251	0.002347	-0.001640				87.727537	1.581165	-40.389893
00991	1995274	-0.244446	9.797476	0.304630				-0.002420	-0.003601	-0.002711				87.729041	1.581099	-40.391253
00992	1995324	-0.253637	9.814554	0.313087				-0.003470	0.000720	0.000745				87.728046	1.580893	-40.391032
00993	1995374	-0.231659	9.795218	0.292139				-0.003535	0.000618	-0.001118				87.729285	1.580421	-40.391158
00994	1995424	-0.247285	9.827735	0.324465				0.000885	0.001697	-0.001446				87.729546	1.580856	-40.390682
00995	1995474	-0.242795	9.806227	0.307345				-0.004721	0.001727	-0.000851				87.730441	1.580312	-40.390502
00996	1995524	-0.233786	9.797642	0.317783				-0.002787	0.001143	-0.002593				87.729653	1.581069	-40.390206
00997	1995574	-0.249043	9.809269	0.304757				-0.005421	-0.001648	-0.000837				87.730338	1.580492	-40.390991
00998	1995624	-0.242018	9.820370	0.313860				-0.006668	0.001667	0.001433				87.728437	1.580100	-40.390494
00999	1995674	-0.252857	9.817826	0.316694				-0.004658	0.000592	-0.002881				87.729342	1.580133	-40.390681
01000	1995724	-0.250433	9.829287	0.298245				-0.002688	0.003443	-0.000495				87.728594	1.580310	-40.389704
01001	1995774	-0.246822	9.798266	0.312858				-0.004666	0.000791	-0.001115				87.729500	1.579834	-40.389802
01002	1995824	-0.242338	9.821440	0.306053				-0.002977	-0.001027	-0.002570				87.728646	1.580558	-40.390133
01003	1995874	-0.217272	9.804501	0.301939				-0.005583	0.003684	-0.001513				87.729290	1.580228	-40.389364
01004	1995924	-0.248673	9.814642	0.295594				-0.005209	0.001713	-0.003833				87.727807	1.581347	-40.388920
01005	1995974	-0.243347	9.835068	0.313523				-0.002722	0.003211	-0.004152				87.729304	1.581763	-40.388359
01006	1996024	-0.227796	9.802773	0.312687				-0.002708	0.000857	-0.000671				87.728528	1.581962	-40.388123
01007	1996074	-0.239201	9.796729	0.310937				-0.006562	0.006183	-0.002073				87.728951	1.581828	-40.386675
01008	1996124	-0.258208	9.822091	0.296864				-0.002610	-0.000498	-0.002440				87.728201	1.582523	-40.386850
01009	1996174	-0.252923	9.793838	0.302919				-0.006810	-0.001481	-0.002624				87.728463	1.582451	-40.387606
01010	1996224	-0.233693	9.799883	0.311034				-0.000683	-0.002563	-0.000660				87.728255	1.582611	-40.388353
01011	1996274	-0.233341	9.811705	0.298795				-0.001858	-0.001942	-0.001969				87.729927	1.582348	-40.389205
01012	1996324	-0.227148	9.813896	0.299686				0.000783	-0.003316	-0.000059				87.730133	1.582328	-40.390163
01013	1996374	-0.230835	9.810470	0.319003				-0.004347	-0.000145	-0.001986				87.731139	1.582091	-40.390523
01014	1996424	-0.237357	9.822009	0.319096				-0.005844	0.002808	0.000250				87.729479	1.582048	-40.389710
01015	1996474	-0.244865	9.803411	0.303706				-0.004427	0.003839	0.002369				87.730464	1.580605	-40.388862
01016	1996524	-0.239575	9.820667	0.296684				-0.001500	-0.000736	0.000831				87.730027	1.580360	-40.389068
01017	1996574	-0.249037	9.822104	0.319089				-0.005174	0.004049	-0.001155				87.730818	1.579933	-40.388218
01018	1996624	-0.246005	9.808357	0.305432				-0.004103	0.001120	-0.004033				87.729639	1.581098	-40.387936
01019	1996674	-0.230214	9.811733	0.298906				-0.004527	0.000370	-0.001249				87.730608	1.580659	-40.388161
01020	1996724	-0.240430	9.828821	0.306050				-0.001936	0.001846	0.000235				87.730081	1.580614	-40.387641
01021	1996774	-0.244206	9.808181	0.318448				-0.007485	0.000571	-0.004409				87.730144	1.581077	-40.387815
01022	1996824	-0.227971	9.813896	0.314971				-0.006781	-0.000254	-0.002655				87.728198	1.581835	-40.387908
01023	1996874	-0.233806	9.813738	0.304506				0.001225	0.001321	0.002016				87.730824	1.580468	-40.387828
01024	1996924	-0.252349	9.816447	0.298199				-0.001729	0.001329	-0.000218				87.730348	1.580543	-40.387456
01025	1996974	-0.249043	9.806944	0.317660				-0.004400	-0.001237	0.001764				87.731282	1.579220	-40.388075
01026	1997024	-0.241155	9.799357	0.292403				-0.003061	0.001149	0.002285				87.730410	1.578579	-40.387724
01027	1997074	-0.236843	9.804783	0.313968				-0.004654	0.002900	0.002235				87.731354	1.577171	-40.387162
01028	1997124	-0.235505	9.807639	0.298852				-0.004414	0.000788	-0.003680				87.730103	1.578234	-40.386977
01029	1997174	-0.250377	9.817980	0.308325				-0.003263	-0.001060	-0.001673				87.731394	1.577895	-40.387611
01030	1997224	-0.252838	9.827289	0.318416				-0.005797	0.001618	0.002648				87.729747	1.577155	-40.387125
01031	1997274	-0.227789	9.798634	0.319893				-0.002950	-0.001893	-0.000688				87.731113	1.576519	-40.387952
01032	1997324	-0.241143	9.805943	0.296198				-0.001577	-0.000647	-0.002283				87.730651	1.577163	-40.388160
01033	1997374	-0.244440	9.811416	0.323660				-0.006003	-0.001529	-0.002273				87.731168	1.576999	-40.388941
01034	1997424	-0.253143	9.804204	0.307618				-0.004131	-0.001243	-0.004621				87.729967	1.578306	-40.389349
01035	1997474	-0.245335	9.823611	0.332175				-0.001483	0.000523	-0.001279				87.731804	1.577877	-40.389533
01036	1997524	-0.263922	9.828852	0.315459				-0.001366	0.000750	-0.002593				87.731423	1.578628	-40.389354
01037	1997574	-0.244247	9.823480	0.310377				-0.003266	0.001168	-0.002269				87.732717	1.578485	-40.389355
01038	1997624	-0.230588	9.809601	0.298464				-0.005698	0.000291	0.001677				87.731088	1.578011	-40.389251
01039	1997674	-0.250737	9.814747	0.302124				-0.008297	0.000245	0.000276				87.730978	1.577130	-40.389489
01040	1997724	-0.244706	9.809114	0.303333				-0.006010	0.000930	-0.000178				87.729261	1.577189	-40.389229
01041	1997774	-0.236440	9.802192	0.312863				-0.005152	-0.000963	-0.001920				87.729995	1.576925	-40.389811
01042	1997824	-0.252395	9.819445	0.288762				-0.007143	0.000200	-0.000624				87.727951	1.577107	-40.389759
01043	1997874	-0.242501	9.803680	0.335109				-0.003966	0.000931	-0.001276				87.729070	1.576672	-40.389838
01044	1997924	-0.239042	9.820003	0.325119				-0.008876	0.001395	-0.001068				87.726531	1.576996	-40.389440
01045	1997974	-0.231095	9.816631	0.319275				-0.006469	0.000539	0.002421				87.726945	1.575512	-40.389589
01046	1998024	-0.248990	9.804935	0.309040				-0.004720	-0.002375	0.001117				87.725571	1.575163	-40.390255
01047	1998074	-0.222113	9.815072	0.335507				-0.003930	-0.000875	0.001506				87.726677	1.573919	-40.390791
01048	1998124	-0.232912	9.799394	0.328129				-0.003807	-0.002176	-0.003218				87.725564	1.574818	-40.391445
01049	1998174	-0.235024	9.811642	0.301249				-0.001319	-0.000801	-0.002798				87.727427	1.574805	-40.392011
01050	1998224	-0.249878	9.820438	0.287887				-0.000722	0.002637	-0.003451				87.727249	1.575825	-40.391300
01051	1998274	-0.243381	9.824663	0.311418				-0.004525	0.001340	-0.002647				87.728203	1.575793	-40.391266
01052	1998324	-0.242613	9.813175	0.302951				-0.002843	-0.000048	-0.000509				87.727390	1.575938	-40.391279
01053	1998374	-0.227825	9.807276	0.297856				-0.003492	-0.001878	-0.001450				87.728619	1.575531	-40.392131
01054	1998424	-0.249491	9.811847	0.291282				-0.005038	-0.000672	-0.002532				87.727156	1.576244	-40.392342
01055	1998474	-0.252060	9.821829	0.303248				-0.003386	0.003138	-0.000819				87.728475	1.575719	-40.391753
01056	1998524	-0.231868	9.793265	0.326484				-0.006945	-0.002161	-0.002218				87.726475	1.576329	-40.392398
01057	1998574	-0.236610	9.808935	0.337201				-0.003446	0.002911	-0.001425				87.727750	1.575965	-40.391902
01058	1998624	-0.232033	9.804881	0.326726				-0.006439	-0.001024	-0.003621				87.725893	1.576986	-40.392236
01059	1998674	-0.248458	9.817962	0.311229				-0.006527	-0.000047	-0.000310				87.726270	1.576278	-40.392567
01060	1998724	-0.251027	9.820540	0.326944				-0.002026	0.002383	-0.003485				87.725715	1.577302	-40.391933
01061	1998774	-0.225532	9.792870	0.295789				-0.004976	0.002428	-0.003255				87.726547	1.577452	-40.391585
01062	1998824	-0.245616	9.814457	0.310278				-0.006580	0.003564	-0.003497				87.724696	1.578498	-40.390612
01063	1998874	-0.241668	9.805633	0.300847				-0.005931	0.003383	-0.002345				87.725276	1.578404	-40.389970
01064	1998924	-0.238203	9.795283	0.313291				-0.006554	-0.000049	0.000042				87.723402	1.578397	-40.389985
01065	1998974	-0.237253	9.824907	0.316182				-0.004759	0.002495	-0.003669				87.724284	1.578661	-40.389611
01066	1999024	-0.244023	9.821716	0.317431				-0.005545	0.000388	-0.001146				87.722704	1.578991	-40.389511
01067	1999074	-0.245571	9.815132	0.312602				-0.004729	0.000854	-0.000922				87.723595	1.578466	-40.389585
01068	1999124	-0.253369	9.809785	0.314556				-0.004620	0.000665	0.000813				87.722276	1.578241	-40.389384
01069	1999174	-0.237815	9.815639	0.300636				-0.005588	0.002074	0.001530				87.722945	1.577020	-40.389081
01070	1999224	-0.247527	9.813644	0.314803				-0.005009	0.003657	-0.002283				87.721537	1.577715	-40.388060
01071	1999274	-0.226505	9.814044	0.321402				-0.005086	0.004409	0.000960				87.722358	1.576689	-40.387065
01072	1999324	-0.234029	9.800344	0.311815				-0.003796	0.000508	-0.002787				87.721272	1.577491	-40.386955
01073	1999374	-0.246648	9.806700	0.304910				-0.002398	-0.002015	-0.000718				87.722841	1.576864	-40.387887
01074	1999424	-0.244181	9.815555	0.316875				-0.003055	0.003828	-0.000940				87.722000	1.577177	-40.386801
01075	1999474	-0.224452	9.791330	0.319317				-0.007720	0.001088	-0.003287				87.722040	1.577328	-40.386816
01076	1999524	-0.242214	9.809931	0.314086				-0.006440	-0.003056	-0.002123				87.720173	1.577901	-40.387713
01077	1999574	-0.239315	9.826598	0.312130				-0.004550	0.001113	-0.002810				87.721143	1.577913	-40.387737
01078	1999624	-0.242758	9.802756	0.301736				-0.003343	0.001751	-0.000568				87.720195	1.578094	-40.387235
01079	1999674	-0.243107	9.793958	0.302782				-0.004470	-0.000144	0.000038				87.721139	1.577277	-40.387586
01080	1999724	-0.232253	9.815490	0.315663				-0.004452	0.002315	-0.001233				87.719875	1.577651	-40.386930
01081	1999774	-0.251696	9.799521	0.320061				-0.006092	-0.000922	-0.002494				87.720378	1.577552	-40.387527
01082	1999824	-0.239713	9.802011	0.306768				-0.003006	0.002013	-0.002007				87.719543	1.578149	-40.386977
01083	1999874	-0.233638	9.794532	0.304357				-0.003281	0.001584	-0.002597				87.720851	1.578103	-40.386857
01084	1999924	-0.236610	9.808140	0.296308				-0.005028	0.001292	-0.001828				87.719418	1.578636	-40.386506
01085	1999974	-0.251040	9.815835	0.309023				-0.004338	-0.003380	-0.000155				87.720395	1.577840	-40.387788
01086	2000024	-0.246844	9.822011	0.296138				-0.007360	0.001554	0.003570				87.718305	1.576834	-40.387301
01087	2000074	-0.244078	9.810691	0.309053				-0.004859	-0.000128	-0.001064				87.719161	1.576327	-40.387664
01088	2000124	-0.250083	9.838598	0.309758				-0.005139	0.003105	0.001361				87.717709	1.575971	-40.386763
01089	2000174	-0.223358	9.807786	0.298797				-0.001027	0.004299	-0.004196				87.719704	1.576418	-40.385877
01090	2000224	-0.240509	9.796091	0.305326				-0.002019	0.001414	-0.000615				87.719122	1.576607	-40.385472
01091	2000274	-0.244964	9.828334	0.333929				-0.004795	-0.001003	-0.001130				87.719984	1.576111	-40.386068
01092	2000324	-0.261685	9.819739	0.323625				-0.000598	0.000177	-0.000337				87.719818	1.576212	-40.386020
01093	2000374	-0.247041	9.816203	0.303143				-0.000884	-0.000317	-0.002937				87.721823	1.576239	-40.386450
01094	2000424	-0.247670	9.807442	0.316995				-0.006007	0.001959	-0.000122				87.720121	1.576298	-40.385888
01095	2000474	-0.256352	9.806372	0.333736				-0.004937	0.001357	-0.002018				87.720951	1.576073	-40.385826
01096	2000524	-0.236655	9.801660	0.316684				-0.006033	0.000627	-0.001664				87.719223	1.576553	-40.385663
01097	2000574	-0.221271	9.810736	0.324956				-0.003689	-0.000391	0.000660				87.720434	1.575559	-40.386074
01098	2000624	-0.239128	9.824187	0.299372				-0.002368	0.001571	0.001827				87.719776	1.575053	-40.385610
01099	2000674	-0.251398	9.823214	0.306665				-0.005051	0.003169	-0.001240				87.720604	1.574643	-40.384989
01100	2000724	-0.238491	9.808457	0.304926				-0.003987	0.003159	0.000618				87.719481	1.574500	-40.384078
01101	2000774	-0.244761	9.812428	0.303734				-0.006025	0.001632	0.000744				87.720006	1.573492	-40.383904
01102	2000824	-0.252202	9.801482	0.299942				-0.005413	0.002650	0.001393				87.718479	1.573122	-40.383126
01103	2000874	-0.232666	9.797654	0.302438				-0.005038	0.001456	-0.002211				87.719287	1.572963	-40.383027
01104	2000924	-0.242799	9.813854	0.320751				-0.004307	0.002757	-0.002399				87.718061	1.573679	-40.382262
01105	2000974	-0.230698	9.812250	0.295744				-0.003707	-0.002239	-0.002074				87.719272	1.573440	-40.383246
01106	2001024	-0.235333	9.802991	0.308341				0.000292	0.001458	0.001335				87.719362	1.573076	-40.382809
01107	2001074	-0.230463	9.819798	0.314440				-0.003742	0.001086	-0.001990				87.720559	1.572853	-40.382826
01108	2001124	-0.255547	9.815205	0.331175				-0.006405	0.004304	-0.003439				87.718757	1.573883	-40.381635
01109	2001174	-0.233409	9.804967	0.319782				-0.006066	-0.000737	-0.004914				87.719262	1.574477	-40.382217
01110	2001224	-0.258947	9.818268	0.314180				-0.005999	0.002964	0.000625				87.717556	1.574330	-40.381358
01111	2001274	-0.242192	9.829481	0.307557				-0.005574	0.002382	-0.000407				87.718238	1.573659	-40.380969
01112	2001324	-0.254688	9.810822	0.292279				-0.004147	0.000853	0.000191				87.717047	1.573614	-40.380717
01113	2001374	-0.251560	9.800617	0.310531				-0.006077	0.004217	-0.000877				87.717619	1.573109	-40.379838
01114	2001424	-0.251139	9.811900	0.302320				-0.005413	0.001923	-0.007053				87.716071	1.575143	-40.379365
