// General information: 
//  MT Manager version: 2022.0.0 
//  XDA version: 2022.0.0 build 7085 rev 119802 built on 2022-11-08
// Device information: 
//  DeviceId: 037004D1
//  ProductCode: MTi-300-2A5G4
//  Firmware Version: 1.4.1
//  Hardware Version: 2.1.0
// Device settings: 
//  Filter Profile: general(39.16)
//  Option Flags: Orientation Smoother Disabled, Position/Velocity Smoother Disabled, Continuous Zero Rotation Update Disabled, AHS Disabled, ICC Disabled
// Coordinate system: ENU
PacketCounter	SampleTimeFine	Acc_X	Acc_Y	Acc_Z	AccHR_X	AccHR_Y	AccHR_Z	Gyr_X	Gyr_Y	Gyr_Z	GyrHR_X	GyrHR_Y	GyrHR_Z	Roll	Pitch	Yaw
00001	311674	0.126741	0.120687	-9.861094				-0.001229	-0.001972	-0.000461				178.969876	-0.746560	-39.357994
00002	311724	0.151514	0.128227	-9.847329				-0.005235	0.006066	-0.003325				178.968363	-0.748280	-39.357002
00003	311774	0.148457	0.120324	-9.817841				-0.002631	0.000653	-0.001694				178.969931	-0.748191	-39.356845
00004	311824	0.143150	0.127649	-9.817330				-0.004105	0.003927	-0.000580				178.968753	-0.749313	-39.356656
00005	311874	0.183316	0.112734	-9.817529				-0.005599	0.001312	-0.002006				178.969471	-0.749410	-39.356395
00006	311924	0.156839	0.130719	-9.822428				-0.003455	0.006846	-0.001341				178.968476	-0.751364	-39.355966
00007	311974	0.139001	0.124938	-9.813233				-0.005437	0.007584	-0.002259				178.969238	-0.753258	-39.355588
00008	312024	0.156076	0.112959	-9.820746				-0.006656	0.006393	-0.004572				178.967314	-0.755065	-39.354237
00009	312074	0.133878	0.124743	-9.815602				-0.007039	0.002417	-0.001514				178.967623	-0.755483	-39.354104
00010	312124	0.123284	0.121572	-9.823215				-0.003050	0.003813	-0.001993				178.966742	-0.756565	-39.353518
00011	312174	0.111678	0.122386	-9.808067				-0.004846	-0.000297	-0.004227				178.967669	-0.756191	-39.352613
00012	312224	0.095523	0.109085	-9.783291				-0.000352	0.001600	-0.002141				178.967561	-0.756638	-39.351995
00013	312274	0.085677	0.134888	-9.799070				-0.002225	-0.000726	0.000296				178.969257	-0.756165	-39.352393
00014	312324	0.092971	0.125826	-9.812280				-0.006972	-0.004917	-0.001098				178.967256	-0.754751	-39.352103
00015	312374	0.081201	0.129277	-9.825881				-0.008234	-0.001846	-0.006112				178.967209	-0.753923	-39.350687
00016	312424	0.096309	0.105650	-9.831225				-0.003237	-0.001752	-0.004748				178.966264	-0.753396	-39.349340
00017	312474	0.087892	0.124793	-9.796914				-0.005331	-0.002974	0.000515				178.967074	-0.752280	-39.349797
00018	312524	0.116240	0.120717	-9.833004				-0.006191	-0.003485	-0.002569				178.965291	-0.751268	-39.349081
00019	312574	0.106045	0.119254	-9.828645				-0.002536	-0.003214	0.001464				178.966906	-0.750087	-39.349825
00020	312624	0.113617	0.119657	-9.846411				-0.004492	-0.000149	-0.000602				178.965617	-0.750042	-39.349659
00021	312674	0.131495	0.111076	-9.835238				-0.001629	-0.001722	-0.002320				178.967480	-0.749269	-39.349298
00022	312724	0.137792	0.107403	-9.818734				-0.002174	0.004867	0.001055				178.966861	-0.750668	-39.349573
00023	312774	0.143213	0.124761	-9.828825				-0.003924	0.000249	0.001288				178.968082	-0.750479	-39.350240
00024	312824	0.146404	0.130162	-9.855208				-0.003854	0.009394	-0.000940				178.966973	-0.753165	-39.349923
00025	312874	0.160817	0.131561	-9.845701				-0.003188	0.008333	-0.003096				178.968390	-0.755268	-39.349301
00026	312924	0.158127	0.121928	-9.815480				-0.005177	0.008594	-0.001198				178.966902	-0.757724	-39.348919
00027	312974	0.154336	0.120992	-9.810192				-0.004440	0.010739	-0.000355				178.967969	-0.760531	-39.349043
00028	313024	0.152358	0.123933	-9.820725				-0.001132	0.004077	-0.001461				178.967639	-0.761691	-39.348591
00029	313074	0.136226	0.128657	-9.813466				-0.005534	0.004381	-0.002499				178.968386	-0.762666	-39.348159
00030	313124	0.131244	0.119956	-9.803371				-0.005198	0.001772	-0.002258				178.966889	-0.763162	-39.347502
00031	313174	0.124305	0.099796	-9.796853				-0.003818	0.002126	0.001717				178.968145	-0.763513	-39.348300
00032	313224	0.132336	0.110590	-9.797859				-0.003005	0.002819	0.001525				178.967290	-0.764328	-39.348718
00033	313274	0.112610	0.123354	-9.804466				0.000753	0.000299	0.000511				178.969854	-0.764150	-39.349176
00034	313324	0.093720	0.117578	-9.824026				-0.000230	0.000667	-0.001857				178.969780	-0.764331	-39.348635
00035	313374	0.101921	0.104470	-9.824305				-0.004686	-0.001322	-0.001696				178.970778	-0.763676	-39.348466
00036	313424	0.103230	0.118445	-9.809699				-0.002959	-0.007208	-0.000447				178.969930	-0.761609	-39.348378
00037	313474	0.089571	0.106337	-9.802667				-0.003749	-0.004834	-0.004312				178.971189	-0.759935	-39.347481
00038	313524	0.102215	0.119665	-9.827184				-0.006178	-0.002440	0.000421				178.969421	-0.759238	-39.347614
00039	313574	0.093531	0.139896	-9.841761				-0.001591	-0.001878	-0.001192				178.971311	-0.758427	-39.347587
00040	313624	0.106941	0.122408	-9.827687				-0.003461	-0.003239	0.000758				178.970323	-0.757503	-39.347827
00041	313674	0.101028	0.126054	-9.822628				-0.005699	0.000767	0.000437				178.971044	-0.757457	-39.348256
00042	313724	0.123382	0.120716	-9.822262				-0.000553	-0.003548	-0.003549				178.970872	-0.756423	-39.347257
00043	313774	0.157676	0.126555	-9.840412				-0.004565	0.004338	-0.000484				178.971916	-0.757395	-39.347409
00044	313824	0.182712	0.110431	-9.842932				-0.003519	0.006483	-0.003269				178.970895	-0.759235	-39.346437
00045	313874	0.149234	0.118062	-9.809932				-0.001892	0.004839	-0.000390				178.972705	-0.760352	-39.346585
00046	313924	0.162196	0.117724	-9.824370				-0.003359	0.003520	-0.000782				178.971739	-0.761357	-39.346337
00047	313974	0.164346	0.134946	-9.830617				-0.003410	0.002062	-0.001525				178.973112	-0.761672	-39.346206
00048	314024	0.181552	0.106098	-9.814641				-0.006499	0.004296	-0.004136				178.971234	-0.762882	-39.345000
00049	314074	0.149624	0.116634	-9.824072				-0.002808	0.005467	-0.001798				178.972779	-0.764172	-39.344756
00050	314124	0.143684	0.117746	-9.795040				-0.002666	0.004145	0.000409				178.972016	-0.765361	-39.344848
00051	314174	0.123734	0.121113	-9.814596				-0.001550	0.005296	0.000221				178.973929	-0.766612	-39.345195
00052	314224	0.129819	0.134646	-9.821100				-0.005350	0.003638	-0.003307				178.972384	-0.767638	-39.344227
00053	314274	0.128156	0.114591	-9.814135				-0.004558	0.006278	-0.001208				178.973427	-0.769164	-39.344160
00054	314324	0.087421	0.143241	-9.812975				-0.004768	0.002754	0.001182				178.972066	-0.769959	-39.344485
00055	314374	0.096453	0.123670	-9.813740				-0.005719	0.000279	-0.000882				178.972782	-0.769769	-39.344538
00056	314424	0.098578	0.131631	-9.794819				-0.002588	0.000033	-0.004869				178.972022	-0.769753	-39.343146
00057	314474	0.086600	0.116790	-9.833815				-0.004355	-0.002573	-0.000291				178.973135	-0.768748	-39.343376
00058	314524	0.092956	0.125581	-9.804130				-0.003177	-0.002196	0.000799				178.972228	-0.768123	-39.343614
00059	314574	0.090075	0.122345	-9.822813				-0.005406	-0.000623	-0.000311				178.973038	-0.767677	-39.343822
00060	314624	0.102935	0.118132	-9.814719				-0.005178	-0.000849	-0.003299				178.971543	-0.767416	-39.342891
00061	314674	0.105176	0.135774	-9.818096				-0.007898	0.001145	-0.000712				178.971639	-0.767474	-39.342978
00062	314724	0.132502	0.126784	-9.840759				-0.007967	-0.001027	-0.003131				178.969344	-0.767163	-39.342089
00063	314774	0.137390	0.122816	-9.843893				-0.006378	0.000254	-0.005661				178.969859	-0.766940	-39.340789
00064	314824	0.145799	0.140244	-9.841314				-0.007152	0.004034	-0.000508				178.967808	-0.768093	-39.340618
00065	314874	0.142913	0.131065	-9.824278				-0.003918	0.001760	-0.003967				178.969034	-0.768309	-39.339802
00066	314924	0.153025	0.121196	-9.822412				-0.003722	0.004899	-0.001604				178.967962	-0.769704	-39.339317
00067	314974	0.175325	0.122441	-9.826352				-0.004012	0.007224	-0.000215				178.969178	-0.771506	-39.339521
00068	315024	0.170759	0.124364	-9.836877				-0.009391	0.004731	-0.003836				178.966472	-0.772842	-39.338392
00069	315074	0.138967	0.121418	-9.817301				-0.005051	0.004688	0.000484				178.967393	-0.773921	-39.338819
00070	315124	0.168849	0.112728	-9.813617				-0.003397	0.004743	-0.000935				178.966416	-0.775274	-39.338521
00071	315174	0.147565	0.121390	-9.808004				-0.003926	0.006648	0.000812				178.967662	-0.776916	-39.339029
00072	315224	0.141100	0.117307	-9.802938				-0.008199	0.004658	-0.002813				178.965302	-0.778236	-39.338195
00073	315274	0.127194	0.107766	-9.814368				-0.007236	0.002544	-0.002022				178.965592	-0.778688	-39.337918
00074	315324	0.106819	0.126226	-9.804683				-0.002461	-0.000637	-0.001857				178.964880	-0.778496	-39.337393
00075	315374	0.088835	0.127495	-9.796203				-0.001168	-0.002167	-0.002251				178.966908	-0.777598	-39.337074
00076	315424	0.088539	0.132499	-9.805789				-0.003828	0.002118	-0.002738				178.965801	-0.778190	-39.336277
00077	315474	0.097231	0.143972	-9.828126				-0.001813	-0.000686	-0.000640				178.967651	-0.777724	-39.336414
00078	315524	0.080744	0.133962	-9.823008				-0.000408	-0.004095	-0.003611				178.967520	-0.776533	-39.335393
00079	315574	0.100669	0.100602	-9.801044				0.001643	-0.003023	-0.002878				178.970352	-0.775386	-39.334899
00080	315624	0.109537	0.115793	-9.815955				-0.004011	-0.005515	-0.002299				178.969194	-0.773794	-39.334276
00081	315674	0.101353	0.132202	-9.835811				-0.005823	-0.004801	-0.001518				178.969894	-0.772145	-39.334167
00082	315724	0.108567	0.108914	-9.836559				-0.002265	-0.004930	-0.001178				178.969242	-0.770726	-39.333866
00083	315774	0.113690	0.106616	-9.848568				-0.003035	-0.001810	-0.001351				178.970742	-0.769934	-39.333789
00084	315824	0.129627	0.121150	-9.826362				-0.001432	-0.000843	-0.001864				178.970325	-0.769683	-39.333262
00085	315874	0.126527	0.134282	-9.846960				-0.004388	-0.001284	-0.000577				178.971442	-0.769046	-39.333417
00086	315924	0.164932	0.121822	-9.836848				-0.004533	0.000873	-0.003740				178.970129	-0.769277	-39.332339
00087	315974	0.145413	0.123937	-9.816378				-0.006835	0.005301	0.001229				178.970553	-0.770534	-39.332977
00088	316024	0.157562	0.137112	-9.833464				-0.006270	0.006501	-0.002328				178.968748	-0.772384	-39.332283
00089	316074	0.170460	0.102445	-9.813867				-0.001892	0.007134	0.000324				178.970587	-0.774163	-39.332655
00090	316124	0.151453	0.126492	-9.830791				-0.004061	0.008579	-0.002804				178.969412	-0.776606	-39.331805
00091	316174	0.150403	0.118371	-9.830302				-0.001592	0.007522	-0.001983				178.971329	-0.778484	-39.331509
00092	316224	0.148952	0.122525	-9.818317				-0.004929	0.002424	-0.001518				178.969910	-0.779170	-39.331063
00093	316274	0.131950	0.111851	-9.829494				-0.006553	0.000136	0.000237				178.970418	-0.778945	-39.331452
00094	316324	0.135976	0.112165	-9.795715				-0.000141	0.007453	-0.000960				178.970373	-0.781074	-39.331134
00095	316374	0.123749	0.106952	-9.837116				-0.008813	0.001607	-0.003756				178.970218	-0.781249	-39.330367
00096	316424	0.108655	0.125147	-9.824343				-0.002218	-0.000148	-0.001186				178.969578	-0.781201	-39.330033
00097	316474	0.096976	0.127189	-9.789536				-0.006888	-0.000391	-0.001171				178.969985	-0.780817	-39.330018
00098	316524	0.104155	0.109422	-9.802753				-0.006517	-0.000027	-0.001618				178.968112	-0.780801	-39.329554
00099	316574	0.104091	0.132732	-9.809225				-0.003967	-0.003637	-0.001518				178.969356	-0.779485	-39.329436
00100	316624	0.081807	0.128253	-9.818934				-0.001214	-0.001489	-0.000580				178.969006	-0.779056	-39.329275
00101	316674	0.081811	0.141617	-9.819898				-0.004375	-0.006001	-0.001493				178.970136	-0.777062	-39.329201
00102	316724	0.097106	0.125979	-9.823087				-0.002635	-0.003389	-0.001746				178.969375	-0.776083	-39.328718
00103	316774	0.106172	0.125347	-9.823610				-0.003816	-0.001373	-0.002114				178.970662	-0.775412	-39.328437
00104	316824	0.131312	0.119680	-9.832128				-0.006592	-0.001648	-0.000637				178.968771	-0.774936	-39.328264
00105	316874	0.138888	0.139499	-9.850861				-0.004788	0.000233	0.000812				178.969792	-0.774741	-39.328801
00106	316924	0.143372	0.146935	-9.852328				-0.004516	0.001620	-0.001781				178.968492	-0.775196	-39.328284
00107	316974	0.149498	0.119282	-9.828860				-0.002903	0.001971	-0.003128				178.970037	-0.775478	-39.327677
00108	317024	0.135454	0.117035	-9.822553				-0.005870	0.000688	-0.002458				178.968346	-0.775662	-39.326976
00109	317074	0.183279	0.106463	-9.829744				-0.003152	0.002871	-0.003415				178.969819	-0.776201	-39.326279
00110	317124	0.171490	0.118858	-9.825136				-0.004921	0.006530	-0.001433				178.968403	-0.778064	-39.325837
00111	317174	0.145987	0.116704	-9.813986				-0.004484	0.006694	-0.001851				178.969504	-0.779705	-39.325569
00112	317224	0.138732	0.132847	-9.826895				-0.001673	0.007103	-0.001406				178.969018	-0.781733	-39.325130
00113	317274	0.135295	0.115207	-9.819924				-0.002830	0.003275	0.001273				178.970606	-0.782411	-39.325816
00114	317324	0.135647	0.120339	-9.814417				-0.003205	0.005813	-0.001602				178.969681	-0.784068	-39.325329
00115	317374	0.113797	0.120437	-9.801359				-0.004245	-0.000697	0.001574				178.970866	-0.783611	-39.326104
00116	317424	0.128938	0.126412	-9.800243				-0.001133	0.000839	-0.002466				178.970532	-0.783838	-39.325386
00117	317474	0.105889	0.122458	-9.803722				-0.004829	-0.000904	-0.003424				178.971532	-0.783296	-39.324707
00118	317524	0.090499	0.124154	-9.788062				-0.002638	-0.003293	-0.002638				178.970766	-0.782339	-39.323967
00119	317574	0.119298	0.123202	-9.821042				0.001667	-0.001698	-0.003419				178.973628	-0.781569	-39.323303
00120	317624	0.111422	0.128462	-9.832986				-0.004571	-0.002068	-0.004202				178.972303	-0.780955	-39.322119
00121	317674	0.087502	0.125920	-9.815128				-0.002392	-0.005192	-0.003292				178.974003	-0.779185	-39.321537
00122	317724	0.105086	0.125707	-9.802998				-0.000226	-0.003238	0.002103				178.973947	-0.778268	-39.322160
00123	317774	0.097339	0.125416	-9.816133				-0.006605	-0.002228	-0.000635				178.974452	-0.777360	-39.322302
00124	317824	0.119924	0.113552	-9.831583				-0.001802	-0.002272	-0.000845				178.973933	-0.776705	-39.322075
00125	317874	0.139901	0.120823	-9.838399				-0.004277	-0.003157	-0.001772				178.975102	-0.775525	-39.321885
00126	317924	0.126967	0.124229	-9.823479				-0.004962	-0.003623	-0.001583				178.973675	-0.774479	-39.321452
00127	317974	0.155145	0.141165	-9.836329				-0.006580	-0.000868	0.000488				178.974194	-0.773967	-39.321901
00128	318024	0.173576	0.116685	-9.820117				-0.005698	0.003374	-0.004274				178.972545	-0.774911	-39.320655
00129	318074	0.186699	0.126026	-9.851818				-0.002217	-0.000081	0.000349				178.974314	-0.774624	-39.321046
00130	318124	0.156858	0.139250	-9.827230				-0.001425	0.002962	-0.004666				178.973887	-0.775448	-39.319693
00131	318174	0.147496	0.147495	-9.820464				-0.005741	0.004124	-0.000897				178.974644	-0.776359	-39.319734
00132	318224	0.157236	0.130385	-9.824831				-0.007496	0.003536	-0.004204				178.972480	-0.777351	-39.318508
00133	318274	0.145997	0.149403	-9.811839				-0.002173	0.003735	-0.000459				178.974261	-0.778153	-39.318682
00134	318324	0.117041	0.132871	-9.811928				-0.002704	0.000978	-0.001301				178.973481	-0.778426	-39.318304
00135	318374	0.151030	0.116042	-9.803944				-0.008327	0.000553	-0.000911				178.973498	-0.778314	-39.318359
00136	318424	0.125001	0.105690	-9.804287				-0.005048	0.001228	-0.000209				178.972051	-0.778665	-39.318288
00137	318474	0.118300	0.109721	-9.812165				-0.005344	-0.000492	-0.001274				178.972922	-0.778252	-39.318244
00138	318524	0.117029	0.101942	-9.806170				-0.002322	-0.004061	-0.000916				178.972254	-0.777084	-39.318003
00139	318574	0.110241	0.120552	-9.818835				-0.001173	-0.002971	-0.001908				178.974320	-0.775958	-39.317767
00140	318624	0.091504	0.126564	-9.811314				-0.000642	-0.005352	0.000775				178.974140	-0.774429	-39.318013
00141	318674	0.093836	0.135310	-9.809414				-0.006306	-0.002477	-0.000063				178.974742	-0.773453	-39.318316
00142	318724	0.094723	0.123495	-9.821400				-0.003368	-0.004433	-0.001072				178.973773	-0.772178	-39.318032
00143	318774	0.109328	0.117100	-9.826017				-0.001445	-0.005464	-0.000125				178.975770	-0.770347	-39.318336
00144	318824	0.094080	0.130854	-9.848474				-0.005329	-0.004406	-0.003088				178.974232	-0.769069	-39.317474
00145	318874	0.117496	0.115315	-9.814798				0.000112	-0.000785	0.000218				178.976677	-0.768579	-39.317846
00146	318924	0.125337	0.131419	-9.832578				-0.003929	-0.006732	0.002410				178.975561	-0.766663	-39.318567
00147	318974	0.135100	0.113452	-9.812737				-0.003724	-0.002275	-0.002348				178.976898	-0.765733	-39.318224
00148	319024	0.136485	0.114640	-9.844372				-0.002781	-0.001706	-0.000871				178.976099	-0.765240	-39.317986
00149	319074	0.139804	0.137891	-9.838163				-0.003573	0.003157	-0.001616				178.977482	-0.765870	-39.317813
00150	319124	0.146899	0.128633	-9.837004				-0.001633	0.003741	-0.000943				178.977010	-0.766937	-39.317516
00151	319174	0.151484	0.123420	-9.805623				-0.009862	0.002730	-0.000221				178.976600	-0.767452	-39.317766
00152	319224	0.174133	0.111657	-9.818442				-0.003336	0.004909	-0.001192				178.975639	-0.768852	-39.317393
00153	319274	0.164239	0.126406	-9.832295				-0.001451	0.002906	-0.001878				178.977633	-0.769410	-39.317151
00154	319324	0.153853	0.126093	-9.816664				-0.004817	0.003135	-0.001707				178.976246	-0.770299	-39.316644
00155	319374	0.139663	0.111836	-9.796932				-0.003099	0.001555	0.000042				178.977776	-0.770479	-39.316964
00156	319424	0.117403	0.124223	-9.821269				-0.001691	0.001217	-0.003228				178.977279	-0.770811	-39.316029
00157	319474	0.119190	0.114406	-9.811209				-0.002445	-0.000119	-0.000385				178.978997	-0.770510	-39.316236
00158	319524	0.105690	0.125590	-9.810667				-0.002350	0.000051	0.001381				178.978329	-0.770531	-39.316638
00159	319574	0.115412	0.122121	-9.798732				-0.005762	0.000470	-0.001232				178.979095	-0.770394	-39.316586
00160	319624	0.105206	0.115907	-9.796762				-0.003637	-0.002978	-0.000393				178.978052	-0.769540	-39.316492
00161	319674	0.089805	0.136875	-9.814429				-0.002852	-0.003424	-0.001388				178.979652	-0.768286	-39.316430
00162	319724	0.106099	0.133505	-9.813787				-0.003785	0.000795	-0.001749				178.978560	-0.768505	-39.315924
00163	319774	0.093589	0.126676	-9.811086				-0.003814	-0.006571	-0.001210				178.979886	-0.766351	-39.315918
00164	319824	0.098341	0.121186	-9.822853				-0.002530	-0.004978	-0.005344				178.979141	-0.764898	-39.314416
00165	319874	0.100979	0.133901	-9.810166				-0.005182	-0.003728	-0.001349				178.980077	-0.763558	-39.314362
00166	319924	0.123669	0.112170	-9.818424				-0.000451	-0.003681	-0.002545				178.979938	-0.762491	-39.313661
00167	319974	0.094435	0.136329	-9.834097				-0.005041	-0.002918	0.000457				178.980922	-0.761392	-39.314102
00168	320024	0.128563	0.125002	-9.852235				0.000099	-0.001438	0.001218				178.980955	-0.760986	-39.314464
00169	320074	0.136595	0.134646	-9.831440				-0.003372	-0.001469	-0.002338				178.982406	-0.760288	-39.314100
00170	320124	0.145382	0.113694	-9.837950				-0.002087	0.003757	-0.002248				178.981799	-0.761352	-39.313439
00171	320174	0.153728	0.115079	-9.839664				-0.004262	0.002554	-0.002730				178.982994	-0.761804	-39.312971
00172	320224	0.168958	0.123442	-9.832557				-0.004362	0.000776	-0.000592				178.981742	-0.762023	-39.312800
00173	320274	0.158714	0.126750	-9.816215				-0.000898	0.005783	-0.001665				178.983906	-0.763406	-39.312615
00174	320324	0.160893	0.123184	-9.822691				-0.004712	0.004844	-0.000954				178.982553	-0.764789	-39.312319
00175	320374	0.143189	0.121876	-9.790002				-0.007211	0.006126	0.000537				178.982918	-0.766281	-39.312729
00176	320424	0.142518	0.122270	-9.810371				-0.003843	0.004629	-0.003039				178.981805	-0.767592	-39.311832
00177	320474	0.128052	0.117237	-9.819644				-0.003842	0.003564	-0.001954				178.983128	-0.768337	-39.311569
00178	320524	0.136881	0.120599	-9.792138				-0.008698	0.001153	-0.000733				178.980633	-0.768664	-39.311350
00179	320574	0.127988	0.120490	-9.782020				-0.004330	0.002142	0.001313				178.981831	-0.769019	-39.312045
00180	320624	0.101122	0.130467	-9.804177				-0.004756	0.003558	0.001872				178.980476	-0.770048	-39.312556
00181	320674	0.123598	0.119823	-9.807401				-0.001348	-0.000429	-0.001210				178.982517	-0.769653	-39.312527
00182	320724	0.099458	0.123641	-9.811357				-0.001856	-0.001765	-0.004397				178.981969	-0.769126	-39.311274
00183	320774	0.095797	0.130966	-9.810376				-0.002630	-0.003389	0.000574				178.983652	-0.767893	-39.311773
00184	320824	0.086828	0.125230	-9.822555				-0.000129	-0.003842	-0.004276				178.983599	-0.766771	-39.310576
00185	320874	0.105198	0.119315	-9.818569				-0.003707	-0.004572	0.001503				178.984977	-0.765204	-39.311326
00186	320924	0.095353	0.132683	-9.826198				-0.005416	-0.003544	-0.002885				178.983415	-0.764174	-39.310530
00187	320974	0.139604	0.111440	-9.849892				-0.002235	-0.004774	0.001045				178.985215	-0.762546	-39.311166
00188	321024	0.137350	0.114058	-9.825686				-0.008888	-0.003149	-0.001144				178.982665	-0.761639	-39.310856
00189	321074	0.144287	0.134306	-9.822605				-0.002763	0.002807	-0.002060				178.984303	-0.762167	-39.310552
00190	321124	0.126019	0.132572	-9.834264				-0.009881	0.001135	-0.000153				178.981472	-0.762492	-39.310498
00191	321174	0.146311	0.134566	-9.837956				-0.002939	0.002515	-0.001035				178.983065	-0.762942	-39.310478
00192	321224	0.146817	0.140390	-9.817108				-0.001691	0.003672	0.000414				178.982582	-0.763996	-39.310567
00193	321274	0.155836	0.140630	-9.807573				-0.002127	0.005276	-0.001248				178.984407	-0.765236	-39.310487
00194	321324	0.135805	0.128207	-9.812983				-0.004771	0.004711	-0.000791				178.983037	-0.766581	-39.310227
00195	321374	0.149968	0.120901	-9.815684				-0.005665	0.005633	-0.001586				178.983847	-0.767922	-39.310069
00196	321424	0.139335	0.137680	-9.825463				-0.003676	0.005540	-0.002072				178.982785	-0.769498	-39.309448
00197	321474	0.153943	0.124065	-9.810435				-0.002736	0.004165	-0.000543				178.984440	-0.770424	-39.309563
00198	321524	0.119270	0.124175	-9.798995				-0.004466	0.003135	-0.002820				178.983150	-0.771308	-39.308734
00199	321574	0.116834	0.136536	-9.786523				-0.001541	0.002257	0.003295				178.985164	-0.771706	-39.309970
00200	321624	0.112083	0.132929	-9.812623				-0.006921	0.000469	-0.004081				178.983165	-0.771820	-39.308808
00201	321674	0.121684	0.124228	-9.818418				-0.001021	-0.001787	-0.004072				178.985300	-0.771023	-39.307955
00202	321724	0.103546	0.137641	-9.807544				-0.003321	-0.001789	-0.001565				178.984343	-0.770502	-39.307522
00203	321774	0.074546	0.125810	-9.797090				-0.005017	-0.002818	-0.000148				178.985349	-0.769430	-39.307791
00204	321824	0.104311	0.118192	-9.824799				-0.002437	-0.003720	-0.003055				178.984639	-0.768349	-39.306937
00205	321874	0.113989	0.123697	-9.813110				-0.005937	-0.002192	-0.002298				178.985375	-0.767444	-39.306596
00206	321924	0.113593	0.127309	-9.822447				-0.003770	-0.000835	-0.003067				178.984283	-0.767189	-39.305728
00207	321974	0.105672	0.122372	-9.815937				-0.003616	-0.003664	0.000416				178.985696	-0.765877	-39.306191
00208	322024	0.121739	0.112658	-9.837582				-0.001848	-0.000731	-0.001884				178.985159	-0.765658	-39.305659
00209	322074	0.118341	0.135164	-9.830868				-0.004432	0.000065	-0.000332				178.986335	-0.765410	-39.305869
00210	322124	0.119742	0.126420	-9.833743				-0.004137	0.001978	0.000638				178.985152	-0.765979	-39.306041
00211	322174	0.135086	0.132253	-9.833103				-0.003896	0.003306	-0.001344				178.986478	-0.766655	-39.305944
00212	322224	0.138657	0.138351	-9.842239				-0.002474	0.002643	-0.004657				178.985751	-0.767388	-39.304597
00213	322274	0.157290	0.121256	-9.821958				-0.003800	0.002311	0.000346				178.987113	-0.767787	-39.304991
00214	322324	0.156802	0.114848	-9.826738				-0.004551	0.005780	-0.001527				178.985803	-0.769435	-39.304530
00215	322374	0.147797	0.135987	-9.835807				-0.004165	0.005987	-0.000723				178.987057	-0.770882	-39.304614
00216	322424	0.148823	0.137865	-9.824547				-0.007615	0.004027	0.005113				178.984895	-0.772061	-39.306059
00217	322474	0.154901	0.116656	-9.804687				-0.003949	0.003181	0.000671				178.986217	-0.772711	-39.306535
00218	322524	0.142000	0.134944	-9.814204				-0.004571	0.007627	-0.001321				178.984902	-0.774889	-39.306124
00219	322574	0.132136	0.132464	-9.811047				-0.006284	0.005207	0.000469				178.985556	-0.776119	-39.306536
00220	322624	0.138398	0.128759	-9.822102				-0.002692	0.004846	-0.000538				178.984782	-0.777504	-39.306355
00221	322674	0.113114	0.139243	-9.811908				-0.001951	-0.001474	-0.001888				178.986669	-0.776808	-39.306142
00222	322724	0.090295	0.123605	-9.781353				-0.002727	0.000875	-0.000267				178.985886	-0.777057	-39.306057
00223	322774	0.108797	0.112892	-9.809962				-0.005659	0.003275	-0.002431				178.986710	-0.777718	-39.305666
00224	322824	0.090087	0.126730	-9.831197				-0.003586	-0.001204	0.001582				178.985689	-0.777381	-39.306125
00225	322874	0.099383	0.123831	-9.821657				-0.004695	0.001127	-0.001835				178.986791	-0.777430	-39.305907
00226	322924	0.101028	0.131861	-9.814717				-0.007844	-0.001580	-0.000779				178.984541	-0.776974	-39.305699
00227	322974	0.109650	0.126914	-9.808291				-0.005359	-0.003215	-0.000861				178.985459	-0.775784	-39.305764
00228	323024	0.100554	0.136859	-9.822145				-0.003113	-0.002372	-0.002370				178.984558	-0.775092	-39.305092
00229	323074	0.126537	0.123095	-9.840490				-0.005402	-0.003532	0.003052				178.985479	-0.773831	-39.306269
00230	323124	0.135150	0.120194	-9.838133				-0.002149	-0.003350	-0.000104				178.984863	-0.772871	-39.306257
00231	323174	0.134753	0.131303	-9.814888				-0.002462	0.001394	-0.002546				178.986606	-0.772993	-39.305835
00232	323224	0.154565	0.134800	-9.824339				-0.005424	0.005121	-0.000307				178.985051	-0.774458	-39.305716
00233	323274	0.128386	0.136055	-9.840502				-0.002300	0.000329	-0.000884				178.986847	-0.774283	-39.305785
00234	323324	0.154633	0.135980	-9.845186				-0.002027	0.001010	-0.000597				178.986264	-0.774569	-39.305603
00235	323374	0.152094	0.140328	-9.832001				-0.003552	0.002373	-0.002792				178.987695	-0.774970	-39.305104
00236	323424	0.151557	0.125715	-9.792204				-0.005067	0.008868	-0.005484				178.986222	-0.777483	-39.303491
00237	323474	0.161583	0.126312	-9.821254				-0.006377	0.003649	-0.002302				178.986847	-0.778252	-39.303111
00238	323524	0.146978	0.135561	-9.823098				-0.002565	0.004850	-0.000542				178.986110	-0.779638	-39.302929
00239	323574	0.121553	0.119534	-9.811942				-0.007287	0.002412	0.000200				178.986485	-0.780066	-39.303276
00240	323624	0.125044	0.132374	-9.827783				-0.007885	0.003144	0.001105				178.984231	-0.780972	-39.303576
00241	323674	0.122556	0.135080	-9.815316				-0.000826	0.001186	-0.004734				178.986438	-0.781023	-39.302526
00242	323724	0.114970	0.123238	-9.806158				-0.001410	0.000274	-0.004220				178.986018	-0.781080	-39.301313
00243	323774	0.112064	0.139115	-9.811910				-0.007337	0.003862	-0.001683				178.986373	-0.781914	-39.301099
00244	323824	0.102594	0.118361	-9.802987				-0.002407	-0.000862	0.003414				178.985697	-0.781684	-39.302078
00245	323874	0.119142	0.129050	-9.803306				-0.005187	-0.002366	0.001133				178.986681	-0.780749	-39.302739
00246	323924	0.100487	0.139272	-9.823586				-0.002991	-0.004508	-0.004401				178.985807	-0.779435	-39.301512
00247	323974	0.122562	0.108086	-9.826806				-0.004415	-0.003714	-0.000449				178.987007	-0.778104	-39.301721
00248	324024	0.107456	0.118443	-9.831046				-0.006127	-0.003097	0.001128				178.985256	-0.777223	-39.302066
00249	324074	0.131257	0.121103	-9.833563				-0.005077	-0.004017	0.000445				178.986269	-0.775810	-39.302514
00250	324124	0.112848	0.136476	-9.835627				-0.002111	0.000458	-0.002131				178.985656	-0.775930	-39.301905
00251	324174	0.130967	0.134933	-9.839792				-0.003698	-0.001052	-0.001274				178.987059	-0.775358	-39.301857
00252	324224	0.121396	0.144014	-9.815067				-0.005647	-0.001022	0.000434				178.985443	-0.775067	-39.301990
00253	324274	0.138382	0.133427	-9.831445				-0.002450	0.001969	-0.001904				178.987201	-0.775357	-39.301713
00254	324324	0.151432	0.138213	-9.832953				-0.006082	0.001191	-0.004977				178.985439	-0.775673	-39.300278
00255	324374	0.145617	0.125648	-9.825969				-0.004187	0.002460	-0.001736				178.986704	-0.776104	-39.300070
00256	324424	0.154593	0.124165	-9.800374				-0.003041	0.005713	-0.000858				178.985829	-0.777736	-39.299789
00257	324474	0.149608	0.142880	-9.816166				-0.005072	0.002763	-0.004522				178.986828	-0.778240	-39.298796
00258	324524	0.157556	0.134563	-9.804942				-0.004997	0.002771	-0.000643				178.985394	-0.779031	-39.298600
00259	324574	0.136188	0.133609	-9.811308				-0.002814	0.005081	0.003439				178.987072	-0.780240	-39.299875
00260	324624	0.135025	0.126444	-9.811052				-0.003974	0.000684	-0.000850				178.985930	-0.780431	-39.299625
00261	324674	0.125834	0.134212	-9.811727				-0.002468	0.001810	-0.000233				178.987693	-0.780685	-39.299874
00262	324724	0.130095	0.133922	-9.806963				-0.002709	0.000486	0.001109				178.986921	-0.780830	-39.300188
00263	324774	0.109679	0.128555	-9.813328				-0.004298	-0.001227	-0.000984				178.988159	-0.780209	-39.300230
00264	324824	0.114118	0.105375	-9.795135				-0.004978	-0.002147	-0.002335				178.986725	-0.779582	-39.299572
00265	324874	0.085910	0.133498	-9.797868				-0.003823	-0.003090	-0.000347				178.988103	-0.778431	-39.299814
00266	324924	0.098772	0.136424	-9.805841				-0.004077	-0.003223	0.000387				178.986937	-0.777510	-39.299941
00267	324974	0.126397	0.108799	-9.826344				-0.004904	-0.003433	-0.000612				178.988004	-0.776259	-39.300079
00268	325024	0.121455	0.127651	-9.830640				-0.007368	-0.001575	-0.002068				178.985885	-0.775798	-39.299501
00269	325074	0.126626	0.110414	-9.819402				-0.003192	-0.002752	0.001766				178.987455	-0.774754	-39.300321
00270	325124	0.108399	0.119491	-9.821232				-0.005655	-0.002061	-0.002846				178.985824	-0.774149	-39.299521
00271	325174	0.107456	0.137115	-9.814758				-0.005054	-0.001662	-0.001657				178.986847	-0.773400	-39.299340
00272	325224	0.123405	0.132583	-9.843830				-0.005697	-0.002675	-0.001305				178.985210	-0.772627	-39.298981
00273	325274	0.112307	0.136230	-9.844978				-0.005790	0.004402	-0.002038				178.986020	-0.773614	-39.298693
00274	325324	0.152053	0.113329	-9.824086				-0.002325	-0.002003	-0.002536				178.985345	-0.773027	-39.297980
00275	325374	0.148783	0.139233	-9.818078				-0.000238	0.004274	-0.001898				178.987748	-0.773978	-39.297717
00276	325424	0.159563	0.136072	-9.830591				-0.002022	0.001729	-0.000109				178.987168	-0.774472	-39.297677
00277	325474	0.137900	0.139170	-9.827368				-0.006339	0.005551	-0.004438				178.987814	-0.775776	-39.296689
00278	325524	0.161090	0.119988	-9.818853				-0.001185	0.001541	-0.001334				178.987469	-0.776210	-39.296292
00279	325574	0.144290	0.117991	-9.819968				-0.004075	0.003619	-0.005226				178.988761	-0.776958	-39.295103
00280	325624	0.146765	0.116320	-9.801769				-0.004514	0.002254	-0.004783				178.987450	-0.777579	-39.293715
00281	325674	0.149641	0.142396	-9.831507				-0.004395	-0.000191	0.000179				178.988675	-0.777261	-39.294073
00282	325724	0.133957	0.121992	-9.813926				-0.003174	0.002801	-0.000585				178.987763	-0.778061	-39.293893
00283	325774	0.125753	0.112982	-9.835211				-0.003244	0.000696	-0.002547				178.989306	-0.777984	-39.293469
00284	325824	0.109554	0.135868	-9.814043				-0.002631	-0.002459	-0.002696				178.988542	-0.777266	-39.292711
00285	325874	0.095325	0.128984	-9.797196				-0.001426	-0.000081	-0.003358				178.990606	-0.776962	-39.292065
00286	325924	0.126093	0.132666	-9.822033				-0.000957	-0.001656	-0.002725				178.990321	-0.776474	-39.291296
00287	325974	0.094658	0.138837	-9.801270				-0.002282	-0.002520	-0.004234				178.992136	-0.775467	-39.290402
00288	326024	0.116497	0.111067	-9.812155				-0.004433	-0.002033	0.000490				178.990869	-0.774887	-39.290554
00289	326074	0.101443	0.128482	-9.826470				-0.005073	-0.000139	-0.001357				178.991897	-0.774576	-39.290467
00290	326124	0.101894	0.122755	-9.811847				-0.002955	0.001130	0.000858				178.991053	-0.774904	-39.290702
00291	326174	0.106942	0.131067	-9.838955				-0.003792	-0.002283	-0.002044				178.992447	-0.773976	-39.290458
00292	326224	0.121385	0.131079	-9.831352				-0.001361	-0.004280	-0.003575				178.992043	-0.772732	-39.289456
00293	326274	0.114970	0.133054	-9.821987				-0.003470	-0.000112	-0.002582				178.993527	-0.772423	-39.289021
00294	326324	0.122853	0.124413	-9.802363				-0.006739	0.000390	0.003201				178.991609	-0.772550	-39.289937
00295	326374	0.144359	0.125017	-9.830756				-0.003953	-0.000224	-0.003323				178.992951	-0.772205	-39.289291
00296	326424	0.165123	0.127790	-9.824629				-0.004147	0.001942	-0.003024				178.991751	-0.772746	-39.288413
00297	326474	0.136004	0.142946	-9.841743				-0.006340	0.003882	0.000012				178.992424	-0.773594	-39.288715
00298	326524	0.138025	0.137886	-9.821384				-0.004901	0.001377	-0.004208				178.991004	-0.773968	-39.287507
00299	326574	0.157221	0.123491	-9.813087				-0.004897	0.001442	-0.002187				178.992082	-0.774106	-39.287173
00300	326624	0.152277	0.137005	-9.816900				-0.005195	0.002025	0.000447				178.990595	-0.774688	-39.287285
00301	326674	0.151874	0.116535	-9.827197				-0.003307	0.001023	0.000338				178.992140	-0.774719	-39.287716
00302	326724	0.145530	0.118974	-9.807513				-0.003795	-0.000024	-0.003487				178.991040	-0.774695	-39.286714
00303	326774	0.123258	0.120352	-9.797816				-0.001911	-0.000601	0.000012				178.992984	-0.774259	-39.287032
00304	326824	0.128644	0.116197	-9.813179				-0.002263	-0.000540	0.000364				178.992338	-0.774107	-39.287137
00305	326874	0.102584	0.140509	-9.806347				-0.006359	-0.000942	-0.001743				178.993001	-0.773565	-39.286946
00306	326924	0.122033	0.115003	-9.818413				0.000136	-0.000796	-0.002824				178.993029	-0.773323	-39.286142
00307	326974	0.104581	0.120086	-9.826954				-0.002723	-0.004792	-0.003535				178.994730	-0.771669	-39.285451
00308	327024	0.094121	0.113166	-9.808443				-0.004059	-0.001674	-0.000440				178.993566	-0.771187	-39.285331
00309	327074	0.107170	0.133767	-9.819545				-0.001418	-0.005179	0.000692				178.995657	-0.769444	-39.285892
00310	327124	0.110780	0.117871	-9.823153				-0.004426	-0.004325	0.000637				178.994392	-0.768208	-39.286102
00311	327174	0.112678	0.124967	-9.844255				-0.009836	-0.003486	-0.000305				178.994068	-0.766945	-39.286317
00312	327224	0.119477	0.124393	-9.810262				-0.004809	-0.001496	-0.002491				178.992681	-0.766504	-39.285613
00313	327274	0.123175	0.126897	-9.834005				-0.002741	-0.003243	-0.005296				178.994373	-0.765284	-39.284441
00314	327324	0.129207	0.115606	-9.822285				-0.001183	-0.000756	-0.002978				178.994023	-0.765052	-39.283587
00315	327374	0.117758	0.133019	-9.822474				-0.000860	-0.001983	-0.005583				178.996253	-0.764193	-39.282301
00316	327424	0.150180	0.114122	-9.814727				-0.002879	0.000148	-0.005378				178.995408	-0.764208	-39.280754
00317	327474	0.121962	0.147734	-9.824657				0.000748	0.000952	-0.005475				178.998102	-0.764190	-39.279507
00318	327524	0.153501	0.117505	-9.825761				-0.003821	0.000150	0.002515				178.997017	-0.764245	-39.280231
00319	327574	0.145345	0.128989	-9.824051				-0.005905	0.001843	-0.002535				178.997816	-0.764497	-39.279801
00320	327624	0.137932	0.143617	-9.807966				-0.007500	0.003690	-0.004283				178.995650	-0.765532	-39.278545
00321	327674	0.143495	0.128011	-9.810374				-0.006039	0.007506	-0.001031				178.996417	-0.767413	-39.278536
00322	327724	0.139030	0.129456	-9.800055				-0.004067	0.003526	-0.003012				178.995241	-0.768408	-39.277657
00323	327774	0.120253	0.133953	-9.819139				-0.001793	0.003602	-0.002053				178.997219	-0.769166	-39.277363
00324	327824	0.117478	0.150144	-9.827034				-0.002751	0.003614	-0.002212				178.996422	-0.770190	-39.276714
00325	327874	0.135376	0.118174	-9.816568				0.000329	0.001112	-0.004418				178.999002	-0.770223	-39.275747
00326	327924	0.136929	0.107016	-9.811056				-0.003235	0.001540	-0.002288				178.998066	-0.770653	-39.275079
00327	327974	0.114923	0.117674	-9.786987				-0.007537	-0.001223	-0.002676				178.998400	-0.770026	-39.274625
00328	328024	0.119370	0.119375	-9.809539				-0.004065	0.001329	-0.003695				178.997222	-0.770388	-39.273560
00329	328074	0.109186	0.109388	-9.814754				-0.001986	-0.004674	-0.001297				178.999152	-0.768779	-39.273548
00330	328124	0.121052	0.122643	-9.831597				-0.006856	-0.002302	0.000940				178.997192	-0.768124	-39.273835
00331	328174	0.129829	0.115704	-9.819655				-0.007352	-0.002994	-0.001372				178.997587	-0.766996	-39.273755
00332	328224	0.119041	0.123365	-9.807620				-0.006329	-0.001109	-0.004635				178.995756	-0.766655	-39.272432
00333	328274	0.134334	0.108361	-9.828538				-0.000375	-0.001001	-0.004617				178.998136	-0.766082	-39.271435
00334	328324	0.119463	0.120883	-9.830393				-0.002901	-0.000910	-0.001787				178.997299	-0.765813	-39.270929
00335	328374	0.137890	0.114195	-9.825449				-0.005112	0.001180	-0.001838				178.998336	-0.765878	-39.270704
00336	328424	0.136913	0.122642	-9.822330				-0.005442	-0.001207	0.002069				178.996784	-0.765543	-39.271298
00337	328474	0.126356	0.130110	-9.822756				-0.002077	-0.001769	-0.001955				178.998691	-0.764764	-39.271069
00338	328524	0.154480	0.116269	-9.825535				-0.004212	-0.000127	-0.001939				178.997477	-0.764718	-39.270519
00339	328574	0.159566	0.127871	-9.835153				-0.003834	-0.001436	0.002798				178.998900	-0.764057	-39.271645
00340	328624	0.167926	0.121490	-9.841175				-0.008246	0.003134	-0.000792				178.996535	-0.764951	-39.271396
00341	328674	0.136668	0.132772	-9.818017				-0.002599	0.003745	-0.002952				178.998290	-0.765746	-39.270846
00342	328724	0.149567	0.124257	-9.821198				-0.004926	-0.000525	0.000206				178.996880	-0.765597	-39.270901
00343	328774	0.147010	0.120229	-9.806562				-0.005235	0.003087	-0.001314				178.997887	-0.766212	-39.270807
00344	328824	0.140741	0.138731	-9.831223				-0.004110	0.002946	-0.002118				178.996701	-0.767045	-39.270189
00345	328874	0.142814	0.130067	-9.810136				-0.002544	0.001104	0.000305				178.998487	-0.767101	-39.270590
00346	328924	0.113908	0.159036	-9.827971				-0.005402	0.000370	-0.000361				178.996938	-0.767205	-39.270483
00347	328974	0.110039	0.123650	-9.787926				-0.001533	-0.001893	-0.004395				178.998997	-0.766378	-39.269537
00348	329024	0.115722	0.145934	-9.814566				-0.001484	0.001826	-0.004661				178.998553	-0.766877	-39.268190
00349	329074	0.106537	0.136529	-9.826011				-0.002781	-0.002649	-0.000354				179.000270	-0.765854	-39.268425
00350	329124	0.107304	0.125920	-9.824339				-0.006112	-0.002909	-0.002366				178.998510	-0.765009	-39.267757
00351	329174	0.104839	0.113811	-9.828392				-0.003981	-0.005356	-0.001196				178.999880	-0.763207	-39.267762
00352	329224	0.122765	0.128355	-9.816505				-0.006329	-0.004241	-0.004105				178.998052	-0.761971	-39.266613
00353	329274	0.107238	0.131104	-9.824585				-0.004067	-0.002579	-0.002015				178.999395	-0.760960	-39.266344
00354	329324	0.124410	0.103552	-9.837841				-0.005423	-0.001277	-0.001876				178.997835	-0.760585	-39.265810
00355	329374	0.123967	0.122636	-9.833531				-0.003643	-0.000660	0.000942				178.999311	-0.760138	-39.266396
00356	329424	0.124961	0.131508	-9.821792				-0.004377	-0.000770	0.000046				178.998057	-0.759918	-39.266420
00357	329474	0.121832	0.133050	-9.817220				-0.004385	-0.000548	-0.001653				178.999311	-0.759490	-39.266262
00358	329524	0.123963	0.131940	-9.830896				-0.006872	0.003353	0.001067				178.997346	-0.760456	-39.266546
00359	329574	0.125755	0.152023	-9.829233				-0.003505	0.001180	-0.000556				178.998856	-0.760528	-39.266688
00360	329624	0.124638	0.126094	-9.825144				-0.004976	0.003193	0.001770				178.997437	-0.761452	-39.267181
00361	329674	0.134953	0.121767	-9.814413				-0.004221	0.004527	-0.001852				178.998739	-0.762477	-39.266949
00362	329724	0.147892	0.129696	-9.819274				-0.007258	0.002443	-0.000316				178.996659	-0.763175	-39.266843
00363	329774	0.144498	0.127440	-9.836743				-0.003763	0.004078	-0.002117				178.998092	-0.764070	-39.266548
00364	329824	0.138286	0.117587	-9.816584				-0.003878	0.000789	-0.000463				178.996979	-0.764294	-39.266408
00365	329874	0.148191	0.117263	-9.804648				-0.001577	0.003915	-0.001229				178.999043	-0.765147	-39.266354
00366	329924	0.117073	0.135713	-9.806414				-0.004081	0.004175	-0.000998				178.997870	-0.766338	-39.266046
00367	329974	0.118805	0.116925	-9.823675				-0.001430	0.002283	0.000041				178.999982	-0.766730	-39.266355
00368	330024	0.132906	0.127948	-9.820153				-0.001875	0.002078	-0.000442				178.999443	-0.767323	-39.266219
00369	330074	0.104327	0.130701	-9.804430				-0.001343	-0.002831	-0.002839				179.001570	-0.766236	-39.265740
00370	330124	0.099284	0.135540	-9.825259				-0.004878	-0.000302	-0.002141				179.000165	-0.766139	-39.265130
00371	330174	0.107133	0.126220	-9.820019				-0.008323	-0.002593	0.000163				179.000304	-0.765135	-39.265491
00372	330224	0.120346	0.121930	-9.824162				-0.002187	0.000877	-0.000124				178.999677	-0.765386	-39.265453
00373	330274	0.126178	0.117026	-9.838807				-0.002618	-0.000814	-0.000197				179.001451	-0.764889	-39.265711
00374	330324	0.109470	0.109031	-9.823150				-0.003046	-0.002797	-0.003219				179.000567	-0.764072	-39.264803
00375	330374	0.126432	0.124010	-9.812449				-0.003425	-0.001439	0.001245				179.002116	-0.763403	-39.265484
00376	330424	0.124843	0.128542	-9.830419				-0.002412	0.001642	-0.003485				179.001412	-0.763856	-39.264477
00377	330474	0.107123	0.126972	-9.850220				-0.003739	0.000105	-0.001986				179.002857	-0.763614	-39.264228
00378	330524	0.138512	0.128363	-9.841754				-0.002865	0.002027	-0.001208				179.002031	-0.764189	-39.263867
00379	330574	0.133827	0.123740	-9.816085				-0.004372	-0.001103	-0.001255				179.003300	-0.763604	-39.263825
00380	330624	0.142511	0.140532	-9.821648				-0.004398	0.001805	-0.001848				179.002033	-0.764112	-39.263281
00381	330674	0.134468	0.113834	-9.807693				-0.002760	0.002708	-0.002104				179.003762	-0.764614	-39.262965
00382	330724	0.139235	0.139036	-9.839365				-0.003513	0.007378	-0.001759				179.002748	-0.766719	-39.262425
00383	330774	0.152872	0.116889	-9.831754				-0.006065	0.002003	0.000977				179.003542	-0.767035	-39.263018
00384	330824	0.154878	0.124390	-9.813794				-0.002709	0.003930	-0.004795				179.002748	-0.768137	-39.261623
00385	330874	0.135979	0.121742	-9.831431				-0.001452	0.005455	0.002911				179.004873	-0.769452	-39.262754
00386	330924	0.152668	0.115049	-9.824555				-0.003937	0.002230	-0.003680				179.003731	-0.770073	-39.261689
00387	330974	0.126071	0.117099	-9.808851				-0.002657	0.002418	-0.001397				179.005494	-0.770497	-39.261582
00388	331024	0.135827	0.134236	-9.799562				-0.007009	0.002372	-0.002028				179.003479	-0.771166	-39.260988
00389	331074	0.113274	0.141348	-9.820538				-0.006092	0.003877	-0.000483				179.004262	-0.772013	-39.261130
00390	331124	0.101535	0.130502	-9.818319				-0.005822	-0.001971	-0.001729				179.002588	-0.771440	-39.260654
00391	331174	0.091987	0.142367	-9.826422				-0.005262	-0.001049	0.000549				179.003614	-0.770880	-39.261133
00392	331224	0.115169	0.134024	-9.814315				-0.001291	0.000659	-0.003400				179.003231	-0.771052	-39.260157
00393	331274	0.109524	0.120758	-9.815717				-0.002311	-0.002619	-0.001908				179.005093	-0.770030	-39.259930
00394	331324	0.110906	0.131260	-9.811657				-0.007668	0.000808	-0.002579				179.002887	-0.770249	-39.259185
00395	331374	0.117247	0.136045	-9.820313				-0.000590	-0.001197	-0.001103				179.005246	-0.769638	-39.259201
00396	331424	0.116352	0.129907	-9.821266				-0.002162	-0.003168	-0.002105				179.004618	-0.768721	-39.258615
00397	331474	0.101586	0.129933	-9.817835				-0.003276	-0.002373	-0.001229				179.006208	-0.767773	-39.258592
00398	331524	0.118145	0.137683	-9.830865				-0.002258	0.002170	0.000206				179.005562	-0.768395	-39.258639
00399	331574	0.116785	0.149432	-9.837094				-0.002488	0.001254	-0.002626				179.007373	-0.768479	-39.258186
00400	331624	0.138459	0.123667	-9.830248				-0.004269	0.000672	-0.002561				179.006140	-0.768659	-39.257446
00401	331674	0.139137	0.114900	-9.824499				-0.003419	0.004344	-0.001387				179.007690	-0.769633	-39.257362
00402	331724	0.160302	0.118317	-9.830832				-0.003079	0.002669	-0.001628				179.006802	-0.770390	-39.256881
00403	331774	0.145661	0.127342	-9.825732				-0.004616	0.004773	-0.001511				179.008006	-0.771488	-39.256728
00404	331824	0.149128	0.123420	-9.808729				-0.000494	0.003808	-0.004447				179.007848	-0.772556	-39.255433
00405	331874	0.133148	0.127350	-9.821352				-0.004096	0.002424	-0.002390				179.009201	-0.772978	-39.255009
00406	331924	0.151582	0.120347	-9.816649				-0.002760	0.003908	0.000113				179.008411	-0.774097	-39.255010
00407	331974	0.118733	0.138235	-9.834941				-0.003025	0.006928	-0.005093				179.010062	-0.775795	-39.253866
00408	332024	0.119205	0.141487	-9.819367				-0.007243	0.002724	-0.002541				179.007977	-0.776563	-39.253123
00409	332074	0.117907	0.117417	-9.808096				-0.003002	-0.000558	0.000740				179.009658	-0.776145	-39.253673
00410	332124	0.133178	0.122680	-9.823512				-0.005143	0.001375	0.000557				179.008186	-0.776541	-39.253829
00411	332174	0.107035	0.111904	-9.821458				-0.008375	0.006196	-0.001138				179.008320	-0.778049	-39.253772
00412	332224	0.099931	0.144334	-9.807285				-0.006158	-0.000425	-0.002974				179.006544	-0.777912	-39.252924
00413	332274	0.110025	0.125295	-9.796311				-0.004310	-0.001874	-0.000101				179.007849	-0.777113	-39.253230
00414	332324	0.127557	0.125557	-9.820599				-0.002910	-0.003732	-0.001431				179.007010	-0.776037	-39.252838
00415	332374	0.110558	0.135856	-9.818360				-0.006390	-0.002303	-0.002407				179.007709	-0.775104	-39.252467
00416	332424	0.117169	0.112055	-9.830606				-0.003933	-0.001741	-0.000775				179.006579	-0.774601	-39.252256
00417	332474	0.105249	0.123725	-9.815934				-0.000824	-0.002083	-0.004472				179.008865	-0.773720	-39.251295
00418	332524	0.124949	0.134151	-9.838805				-0.004780	0.003801	-0.002509				179.007486	-0.774796	-39.250559
00419	332574	0.141925	0.114757	-9.830732				-0.002269	-0.000973	-0.004309				179.009360	-0.774235	-39.249649
00420	332624	0.133815	0.132592	-9.819680				-0.005457	0.000049	0.001931				179.007805	-0.774259	-39.250202
00421	332674	0.129135	0.127268	-9.826365				-0.000722	0.000196	0.001792				179.010147	-0.774062	-39.251030
00422	332724	0.147038	0.117185	-9.813508				-0.004531	0.001965	-0.002490				179.008839	-0.774612	-39.250304
00423	332774	0.142751	0.122424	-9.826429				-0.007670	0.001810	-0.001647				179.009179	-0.774861	-39.250129
00424	332824	0.153510	0.110768	-9.836312				-0.004959	0.001243	-0.002591				179.007749	-0.775204	-39.249387
00425	332874	0.147194	0.123385	-9.826695				-0.007240	0.006729	-0.001974				179.008211	-0.776860	-39.249095
00426	332924	0.142924	0.138046	-9.817096				-0.004974	-0.000337	-0.001986				179.006778	-0.776754	-39.248525
00427	332974	0.142496	0.123600	-9.817087				-0.004537	0.002291	0.000016				179.008022	-0.777149	-39.248825
00428	333024	0.134612	0.128033	-9.818005				-0.004900	0.002705	0.001013				179.006622	-0.777929	-39.249098
00429	333074	0.121344	0.132940	-9.805717				-0.006846	0.003181	-0.003082				179.007194	-0.778564	-39.248510
00430	333124	0.123362	0.143222	-9.798061				-0.004436	0.003163	-0.001520				179.005917	-0.779462	-39.248058
00431	333174	0.111521	0.129423	-9.823406				-0.002424	0.005527	0.000093				179.007768	-0.780784	-39.248357
00432	333224	0.120625	0.130632	-9.804751				-0.000872	0.000637	-0.002342				179.007509	-0.780955	-39.247681
00433	333274	0.118033	0.125649	-9.816243				-0.003866	-0.003064	-0.001648				179.008940	-0.779808	-39.247550
00434	333324	0.101243	0.135815	-9.812081				-0.003482	-0.000761	-0.000127				179.007942	-0.779589	-39.247521
00435	333374	0.135993	0.129410	-9.799321				-0.003635	-0.002028	-0.000042				179.009447	-0.778747	-39.247827
00436	333424	0.114914	0.129880	-9.815034				-0.005379	-0.002801	-0.001997				179.007898	-0.777935	-39.247278
00437	333474	0.124164	0.119317	-9.821304				-0.002082	-0.000382	0.000028				179.009849	-0.777564	-39.247584
00438	333524	0.123571	0.124125	-9.825135				-0.003143	-0.003703	-0.002422				179.008940	-0.776491	-39.246902
00439	333574	0.100028	0.143732	-9.827894				-0.007831	-0.002136	-0.002466				179.009236	-0.775606	-39.246504
00440	333624	0.119371	0.142132	-9.825602				-0.001830	-0.002515	-0.002231				179.008703	-0.774874	-39.245883
00441	333674	0.132546	0.132253	-9.821356				-0.002905	0.000048	-0.003142				179.010407	-0.774611	-39.245289
00442	333724	0.136486	0.127702	-9.820651				-0.006834	0.000594	-0.003422				179.008436	-0.774764	-39.244307
00443	333774	0.145432	0.146150	-9.839394				-0.000786	0.003258	-0.001114				179.010756	-0.775430	-39.244289
00444	333824	0.143468	0.124544	-9.821168				-0.002076	0.002529	0.000521				179.010163	-0.776157	-39.244427
00445	333874	0.123115	0.138658	-9.823702				-0.005067	0.002857	-0.001679				179.011255	-0.776705	-39.244260
00446	333924	0.134024	0.116945	-9.805538				-0.005247	0.005375	-0.002083				179.009743	-0.778234	-39.243631
00447	333974	0.145546	0.132169	-9.808475				-0.008328	0.006610	-0.003287				179.009894	-0.779849	-39.242988
00448	334024	0.136374	0.131234	-9.813217				-0.004312	0.002129	-0.002232				179.008650	-0.780448	-39.242339
00449	334074	0.148722	0.119795	-9.813770				-0.004165	0.003620	-0.002033				179.010000	-0.781214	-39.242022
00450	334124	0.128721	0.131165	-9.821567				-0.007050	-0.002676	-0.003149				179.007968	-0.780432	-39.241141
00451	334174	0.112764	0.128786	-9.811663				-0.002826	-0.000301	-0.001120				179.009704	-0.780079	-39.241127
00452	334224	0.127789	0.128812	-9.814608				-0.002578	-0.001169	-0.002316				179.008957	-0.779732	-39.240474
00453	334274	0.118638	0.120540	-9.821288				-0.005116	0.000210	-0.001626				179.010038	-0.779523	-39.240313
00454	334324	0.117847	0.127789	-9.817441				-0.004033	-0.000806	-0.002918				179.008872	-0.779278	-39.239476
00455	334374	0.121430	0.139128	-9.807632				-0.005337	-0.000928	-0.001636				179.009891	-0.778743	-39.239338
00456	334424	0.113305	0.122143	-9.809023				-0.003275	-0.002410	-0.001745				179.008946	-0.778044	-39.238849
00457	334474	0.120024	0.120817	-9.823683				-0.003920	-0.004032	0.001491				179.010383	-0.776635	-39.239612
00458	334524	0.118145	0.136234	-9.840205				-0.004084	-0.000068	-0.003046				179.009201	-0.776600	-39.238741
00459	334574	0.130497	0.117152	-9.845778				-0.001453	-0.002150	0.000115				179.011339	-0.775723	-39.239082
00460	334624	0.101602	0.150738	-9.824553				-0.004246	-0.001037	-0.002246				179.010114	-0.775415	-39.238445
00461	334674	0.114252	0.142648	-9.831566				-0.003493	0.001563	-0.001145				179.011664	-0.775596	-39.238405
00462	334724	0.117295	0.128817	-9.836852				-0.004015	0.002270	0.002201				179.010522	-0.776257	-39.239024
00463	334774	0.149374	0.111301	-9.844674				-0.004774	-0.002025	-0.005266				179.011689	-0.775389	-39.237836
00464	334824	0.119152	0.123776	-9.832067				-0.003631	-0.000353	-0.003626				179.010635	-0.775270	-39.236800
00465	334874	0.131945	0.144491	-9.816315				-0.002874	0.002118	-0.004479				179.012350	-0.775593	-39.235811
00466	334924	0.150022	0.137769	-9.827432				-0.003184	0.004126	0.000691				179.011440	-0.776778	-39.235987
00467	334974	0.133962	0.138992	-9.825911				-0.003037	-0.000761	-0.001226				179.013120	-0.776293	-39.235961
00468	335024	0.139086	0.128522	-9.818750				-0.003654	0.001528	-0.000728				179.012071	-0.776727	-39.235743
00469	335074	0.123400	0.122924	-9.812675				-0.006686	0.002052	-0.003185				179.012699	-0.777037	-39.235124
00470	335124	0.135419	0.131990	-9.821362				-0.000227	-0.000548	-0.002322				179.012625	-0.776869	-39.234465
00471	335174	0.129674	0.117431	-9.823007				-0.007601	0.000548	-0.003993				179.012989	-0.776746	-39.233621
00472	335224	0.130754	0.121454	-9.806479				-0.008262	0.002775	0.001218				179.010626	-0.777547	-39.233948
00473	335274	0.123430	0.129783	-9.819621				-0.002370	0.002778	-0.000051				179.012505	-0.778080	-39.234244
00474	335324	0.125316	0.134780	-9.810528				-0.007703	-0.001162	-0.002017				179.010291	-0.777738	-39.233673
00475	335374	0.112401	0.130253	-9.830352				-0.001539	-0.000502	-0.001162				179.012405	-0.777326	-39.233676
00476	335424	0.111610	0.129926	-9.817885				-0.006481	-0.000365	-0.001658				179.010542	-0.777214	-39.233199
00477	335474	0.130901	0.099636	-9.805513				-0.007515	-0.003230	-0.002507				179.010939	-0.776014	-39.232814
00478	335524	0.109255	0.127009	-9.805899				-0.003101	-0.004762	0.000104				179.010051	-0.774651	-39.232868
00479	335574	0.114130	0.130595	-9.814544				-0.004002	-0.002612	0.000149				179.011466	-0.773642	-39.233243
00480	335624	0.114448	0.128456	-9.815749				-0.004460	-0.002264	-0.000070				179.010188	-0.772993	-39.233240
00481	335674	0.114517	0.122233	-9.813111				-0.005253	-0.001475	-0.000738				179.011242	-0.772305	-39.233341
00482	335724	0.119648	0.124500	-9.834221				-0.003394	-0.001472	0.000537				179.010272	-0.771886	-39.233507
00483	335774	0.129221	0.134305	-9.831645				-0.004237	-0.002429	-0.002673				179.011609	-0.770916	-39.233064
00484	335824	0.126484	0.130744	-9.826111				-0.006729	0.000235	-0.006502				179.009656	-0.770952	-39.231202
00485	335874	0.139482	0.127789	-9.813956				-0.005004	-0.000307	-0.001570				179.010778	-0.770595	-39.231058
00486	335924	0.145954	0.119066	-9.828126				-0.004634	0.002056	-0.003227				179.009438	-0.771168	-39.230125
00487	335974	0.141779	0.127962	-9.830265				-0.002153	0.001645	-0.003492				179.011370	-0.771360	-39.229432
00488	336024	0.130314	0.126529	-9.808157				0.000510	0.003897	-0.000402				179.011514	-0.772475	-39.229292
00489	336074	0.145275	0.122898	-9.800323				-0.003625	0.001626	-0.000989				179.013035	-0.772674	-39.229297
00490	336124	0.121126	0.130899	-9.799726				-0.006010	0.002427	0.000759				179.011317	-0.773373	-39.229499
00491	336174	0.123420	0.124497	-9.816747				-0.000943	0.001929	-0.002561				179.013599	-0.773652	-39.229100
00492	336224	0.119864	0.119889	-9.829192				-0.002036	0.005206	-0.002797				179.013005	-0.775129	-39.228271
00493	336274	0.127131	0.128651	-9.820131				-0.003828	0.001203	-0.000919				179.014469	-0.775208	-39.228326
00494	336324	0.115329	0.127287	-9.799938				-0.005239	0.000340	0.000908				179.012972	-0.775310	-39.228586
00495	336374	0.118051	0.119604	-9.809772				-0.003135	-0.003894	-0.002906				179.014627	-0.773918	-39.228091
00496	336424	0.113142	0.137507	-9.817900				-0.004802	-0.002791	-0.001677				179.013245	-0.773110	-39.227623
00497	336474	0.115971	0.104044	-9.818861				-0.002436	-0.001384	0.001725				179.015119	-0.772461	-39.228423
00498	336524	0.117257	0.104749	-9.830852				-0.004569	-0.001175	-0.003272				179.013798	-0.772108	-39.227496
00499	336574	0.109469	0.125567	-9.822909				-0.000432	-0.003103	-0.000954				179.016236	-0.770953	-39.227552
00500	336624	0.106349	0.128605	-9.850934				-0.001698	-0.003477	0.001169				179.015755	-0.769963	-39.227909
00501	336674	0.122841	0.127996	-9.829207				-0.004210	-0.001200	-0.001892				179.017110	-0.769348	-39.227683
00502	336724	0.101147	0.117584	-9.821190				-0.000127	0.001492	-0.001922				179.017066	-0.769766	-39.227121
00503	336774	0.130868	0.106864	-9.836437				-0.003015	0.001404	-0.003875				179.018757	-0.769888	-39.226337
00504	336824	0.140237	0.116806	-9.827861				-0.004279	0.000034	-0.000992				179.017528	-0.769892	-39.226054
00505	336874	0.117160	0.126009	-9.823192				-0.005236	0.000051	0.001035				179.018599	-0.769651	-39.226648
00506	336924	0.114819	0.123376	-9.839471				-0.005893	0.004391	-0.004779				179.016892	-0.770885	-39.225251
00507	336974	0.114285	0.113280	-9.833714				-0.005539	-0.001704	-0.000931				179.017872	-0.770131	-39.225300
00508	337024	0.141727	0.128085	-9.821154				-0.001527	0.002240	-0.002013				179.017427	-0.770763	-39.224701
00509	337074	0.130162	0.135285	-9.814870				-0.005395	0.002850	-0.003988				179.018435	-0.771298	-39.223856
00510	337124	0.133238	0.127265	-9.828303				-0.006344	0.002810	0.000442				179.016619	-0.772105	-39.223968
00511	337174	0.121681	0.145756	-9.835442				-0.000621	0.004773	-0.004280				179.018994	-0.773190	-39.223030
00512	337224	0.132515	0.127116	-9.826862				-0.003149	0.003861	-0.002868				179.018081	-0.774282	-39.222186
00513	337274	0.142726	0.113435	-9.836255				-0.005353	0.003529	-0.003342				179.019106	-0.775015	-39.221524
00514	337324	0.139571	0.134796	-9.822585				-0.004674	0.002510	-0.001941				179.017759	-0.775725	-39.220956
00515	337374	0.114578	0.129792	-9.828208				-0.001615	0.001113	-0.000186				179.019869	-0.775781	-39.221221
00516	337424	0.102047	0.109291	-9.814002				-0.004719	-0.002504	-0.004368				179.018500	-0.775042	-39.219989
00517	337474	0.114651	0.112874	-9.835870				-0.002449	-0.005369	-0.001827				179.020365	-0.773234	-39.219777
00518	337524	0.103731	0.125968	-9.817850				-0.003935	-0.003646	0.000273				179.019239	-0.772191	-39.219876
00519	337574	0.107179	0.132078	-9.825059				-0.004092	0.001425	-0.000981				179.020635	-0.772333	-39.219887
00520	337624	0.121646	0.134644	-9.831595				-0.002418	-0.002234	-0.002065				179.019935	-0.771683	-39.219308
00521	337674	0.107406	0.124607	-9.817151				-0.005613	0.000782	-0.000565				179.020899	-0.771642	-39.219467
00522	337724	0.120289	0.129688	-9.828960				-0.006233	-0.000877	-0.001567				179.019107	-0.771383	-39.219023
00523	337774	0.131072	0.126181	-9.820857				-0.007244	0.000761	0.000817				179.019610	-0.771344	-39.219563
00524	337824	0.121087	0.135861	-9.826324				-0.004638	-0.001753	-0.000964				179.018278	-0.770837	-39.219299
00525	337874	0.126208	0.130672	-9.816284				-0.001702	0.001629	-0.000638				179.020362	-0.771039	-39.219413
00526	337924	0.137263	0.124929	-9.831201				-0.005180	0.000475	0.002064				179.018886	-0.771185	-39.220005
00527	337974	0.145033	0.115726	-9.832440				-0.001249	0.001238	-0.004395				179.021087	-0.771256	-39.219048
00528	338024	0.143527	0.131562	-9.836025				-0.007728	0.002877	-0.000970				179.018869	-0.772076	-39.218753
00529	338074	0.119378	0.136016	-9.829437				-0.003462	0.003758	-0.001714				179.020446	-0.772882	-39.218577
00530	338124	0.144654	0.117590	-9.824763				-0.006410	-0.001726	-0.003273				179.018598	-0.772372	-39.217655
00531	338174	0.126187	0.144407	-9.810534				-0.003646	0.002167	-0.004479				179.020112	-0.772709	-39.216674
00532	338224	0.134468	0.140011	-9.812497				-0.003157	0.004349	0.000118				179.019208	-0.773956	-39.216688
00533	338274	0.135124	0.120091	-9.813936				-0.000793	0.002150	-0.003842				179.021542	-0.774291	-39.215900
00534	338324	0.134312	0.126702	-9.816086				-0.003247	0.003056	-0.001012				179.020607	-0.775162	-39.215590
00535	338374	0.127113	0.120386	-9.811490				-0.001626	0.004704	0.000757				179.022721	-0.776251	-39.216117
00536	338424	0.115600	0.128790	-9.810960				-0.001824	0.000259	-0.003401				179.022185	-0.776308	-39.215142
00537	338474	0.128223	0.121646	-9.824440				-0.004876	-0.000270	-0.001086				179.023361	-0.775965	-39.215149
00538	338524	0.110574	0.121284	-9.816924				-0.004725	0.000827	-0.003453				179.021994	-0.776185	-39.214153
00539	338574	0.111572	0.121610	-9.810699				-0.001497	-0.003026	-0.002265				179.024134	-0.775046	-39.213840
00540	338624	0.115952	0.127200	-9.825336				-0.004940	-0.001438	-0.001026				179.022715	-0.774629	-39.213548
00541	338674	0.136829	0.140231	-9.825452				-0.004567	0.000349	0.001095				179.023990	-0.774473	-39.214158
00542	338724	0.113008	0.126059	-9.809745				-0.005777	-0.001255	-0.001603				179.022329	-0.774105	-39.213703
00543	338774	0.122217	0.124744	-9.831120				-0.004281	0.000060	-0.001727				179.023674	-0.773853	-39.213527
00544	338824	0.097767	0.155967	-9.824296				-0.005153	-0.002800	-0.002378				179.022189	-0.773039	-39.212857
00545	338874	0.123697	0.131490	-9.818913				-0.005405	-0.001930	-0.001894				179.023214	-0.772216	-39.212646
00546	338924	0.137082	0.131373	-9.845821				-0.006461	0.001989	-0.004728				179.021344	-0.772762	-39.211277
00547	338974	0.126617	0.124000	-9.828985				-0.003550	0.001337	-0.001982				179.022899	-0.772874	-39.211013
00548	339024	0.144247	0.105210	-9.823795				-0.003853	0.003815	-0.001647				179.021789	-0.773959	-39.210523
00549	339074	0.159304	0.117529	-9.824602				-0.004660	0.003994	-0.003537				179.023021	-0.774824	-39.209804
00550	339124	0.132528	0.132531	-9.802416				-0.006443	0.003840	-0.000387				179.021173	-0.775922	-39.209669
00551	339174	0.127789	0.149975	-9.806230				-0.000367	0.002367	0.002445				179.023660	-0.776351	-39.210681
00552	339224	0.123332	0.128468	-9.822739				-0.005434	0.000239	0.001803				179.022110	-0.776428	-39.211194
00553	339274	0.128538	0.121198	-9.830673				-0.001152	0.002179	-0.004996				179.024342	-0.776766	-39.210071
00554	339324	0.131706	0.127054	-9.821828				-0.003075	0.001505	-0.000953				179.023457	-0.777193	-39.209783
00555	339374	0.154153	0.114977	-9.807076				-0.003024	-0.000141	-0.001062				179.025168	-0.776886	-39.209793
00556	339424	0.124605	0.124499	-9.812204				-0.006275	0.002680	0.000536				179.023372	-0.777656	-39.209933
00557	339474	0.121356	0.120627	-9.826083				-0.003371	0.000887	-0.000570				179.024987	-0.777646	-39.210083
00558	339524	0.096920	0.129734	-9.820941				-0.005269	0.002048	-0.001037				179.023474	-0.778228	-39.209776
00559	339574	0.118920	0.138295	-9.821047				-0.004165	0.000416	-0.002529				179.024854	-0.778074	-39.209360
00560	339624	0.105270	0.136068	-9.797009				-0.004650	0.000805	0.000624				179.023524	-0.778307	-39.209535
00561	339674	0.100222	0.136627	-9.807289				-0.002622	-0.001946	-0.001868				179.025348	-0.777479	-39.209332
00562	339724	0.129094	0.118905	-9.804557				-0.002110	0.001591	-0.000219				179.024743	-0.777934	-39.209259
00563	339774	0.114129	0.121876	-9.825087				-0.001162	-0.000402	-0.002351				179.026984	-0.777546	-39.208908
00564	339824	0.122321	0.114830	-9.810991				-0.006800	0.001694	-0.002642				179.025025	-0.778019	-39.208137
00565	339874	0.132216	0.112697	-9.828052				-0.001781	0.002332	0.001014				179.027105	-0.778429	-39.208763
00566	339924	0.125728	0.133990	-9.831624				-0.003009	0.000519	-0.000327				179.026241	-0.778576	-39.208676
00567	339974	0.132310	0.117176	-9.822539				-0.002953	0.000906	-0.001065				179.027976	-0.778569	-39.208663
00568	340024	0.144869	0.119293	-9.814454				-0.002942	0.001325	-0.001863				179.027126	-0.778940	-39.208122
00569	340074	0.133922	0.133514	-9.811291				-0.002207	0.000873	-0.008186				179.029047	-0.778889	-39.206077
00570	340124	0.138219	0.123989	-9.825926				-0.004510	0.001971	-0.005958				179.027731	-0.779425	-39.204361
00571	340174	0.127404	0.138815	-9.822766				-0.002395	-0.002963	-0.001692				179.029625	-0.778306	-39.204219
00572	340224	0.147055	0.126102	-9.824780				-0.004384	0.002332	-0.002338				179.028360	-0.778963	-39.203535
00573	340274	0.166001	0.106561	-9.817679				-0.004692	0.000805	-0.002763				179.029591	-0.778919	-39.203057
00574	340324	0.139879	0.114913	-9.809400				-0.003074	0.001455	-0.001349				179.028704	-0.779329	-39.202660
00575	340374	0.129364	0.127315	-9.830676				-0.008361	-0.000547	-0.001828				179.028889	-0.778903	-39.202463
00576	340424	0.136811	0.122569	-9.819928				-0.001717	0.001152	-0.002220				179.028389	-0.779222	-39.201821
00577	340474	0.128595	0.125478	-9.816059				-0.002234	0.001176	-0.001895				179.030330	-0.779289	-39.201585
00578	340524	0.127186	0.122413	-9.815327				-0.005089	0.000986	-0.006796				179.028845	-0.779538	-39.199630
00579	340574	0.130194	0.109139	-9.814860				-0.002908	-0.000706	-0.000397				179.030599	-0.779073	-39.199841
00580	340624	0.121293	0.117743	-9.811227				-0.003646	0.001384	-0.001412				179.029548	-0.779463	-39.199423
00581	340674	0.131144	0.107698	-9.814149				-0.001483	-0.001197	-0.000370				179.031710	-0.778857	-39.199660
00582	340724	0.113564	0.119131	-9.815258				-0.003300	-0.003785	-0.001503				179.030759	-0.777766	-39.199249
00583	340774	0.136717	0.117742	-9.813940				-0.003380	-0.001007	-0.000205				179.032380	-0.777216	-39.199501
00584	340824	0.094843	0.124313	-9.826431				-0.004600	-0.000766	0.000283				179.031063	-0.776998	-39.199591
00585	340874	0.124112	0.132715	-9.830650				-0.000434	0.001076	-0.002896				179.033518	-0.777030	-39.199101
00586	340924	0.127495	0.147533	-9.830912				-0.002506	0.000822	-0.001001				179.032796	-0.777261	-39.198809
00587	340974	0.133364	0.117208	-9.828061				-0.002863	0.004040	-0.000855				179.034563	-0.778153	-39.198865
00588	341024	0.123110	0.117192	-9.835202				-0.004356	-0.000311	-0.000230				179.033314	-0.778063	-39.198795
00589	341074	0.123978	0.127812	-9.842395				-0.005221	0.001249	-0.004547				179.034391	-0.778138	-39.197808
00590	341124	0.136755	0.150750	-9.834556				-0.002433	0.003532	-0.002202				179.033685	-0.779139	-39.197161
00591	341174	0.130460	0.137540	-9.834524				-0.005689	-0.000688	0.001692				179.034653	-0.778689	-39.197971
00592	341224	0.139269	0.138668	-9.828817				-0.002778	0.001101	-0.003341				179.033843	-0.778989	-39.197006
00593	341274	0.145928	0.110845	-9.817097				-0.005438	0.001610	0.000969				179.034880	-0.779194	-39.197581
00594	341324	0.137324	0.121322	-9.811304				-0.003847	0.003863	-0.001720				179.033771	-0.780292	-39.197073
00595	341374	0.144555	0.109069	-9.815410				-0.002293	0.003277	-0.000539				179.035702	-0.780967	-39.197222
00596	341424	0.127289	0.127460	-9.814610				-0.006393	0.004338	-0.000265				179.033869	-0.782209	-39.197127
00597	341474	0.113794	0.131906	-9.821015				-0.004277	0.001142	-0.000992				179.035231	-0.782270	-39.197155
00598	341524	0.124644	0.128786	-9.804299				-0.001071	-0.000162	-0.002971				179.034913	-0.782210	-39.196308
00599	341574	0.116577	0.115822	-9.822227				-0.006319	-0.000253	-0.002983				179.035683	-0.781862	-39.195774
00600	341624	0.114789	0.113766	-9.797773				-0.006200	-0.001667	0.001401				179.033912	-0.781392	-39.196183
00601	341674	0.108529	0.125671	-9.811883				-0.002069	-0.000180	-0.004502				179.035894	-0.781057	-39.195207
00602	341724	0.121896	0.135046	-9.823454				-0.004753	0.002038	-0.002144				179.034523	-0.781631	-39.194587
00603	341774	0.118590	0.117941	-9.808577				-0.002339	-0.001806	-0.004733				179.036429	-0.780830	-39.193556
00604	341824	0.121525	0.100954	-9.787496				-0.001215	-0.002785	-0.002657				179.036070	-0.780020	-39.192811
00605	341874	0.125319	0.128425	-9.836652				-0.004373	-0.000927	0.000149				179.037412	-0.779494	-39.193180
00606	341924	0.132476	0.137172	-9.813923				-0.005466	0.000952	-0.004166				179.035830	-0.779746	-39.191987
00607	341974	0.132303	0.111413	-9.808883				-0.003040	0.000321	-0.001933				179.037547	-0.779568	-39.191744
00608	342024	0.147405	0.110392	-9.820938				-0.004682	-0.000319	-0.000813				179.036202	-0.779473	-39.191506
00609	342074	0.137578	0.130194	-9.823293				-0.000881	-0.000733	0.000522				179.038547	-0.779005	-39.191987
00610	342124	0.150228	0.121870	-9.836776				-0.005392	0.000796	-0.003116				179.036990	-0.779218	-39.191090
00611	342174	0.125565	0.116373	-9.833767				-0.005843	0.001987	-0.000824				179.037909	-0.779522	-39.191159
00612	342224	0.134854	0.117154	-9.839085				-0.001705	0.001966	-0.000549				179.037418	-0.780083	-39.190989
00613	342274	0.136074	0.124560	-9.823280				-0.003688	0.001165	0.004938				179.038977	-0.780179	-39.192724
00614	342324	0.137475	0.111545	-9.824722				-0.005722	0.003219	-0.000788				179.037334	-0.781098	-39.192476
00615	342374	0.133529	0.141301	-9.835255				-0.004297	0.001427	-0.003494				179.038689	-0.781229	-39.191809
00616	342424	0.163641	0.134670	-9.838047				-0.004783	0.001612	-0.004457				179.037301	-0.781669	-39.190522
00617	342474	0.143118	0.120505	-9.833384				-0.003025	0.004208	0.000044				179.039031	-0.782614	-39.190838
00618	342524	0.132242	0.099763	-9.817986				-0.003634	0.000088	0.000247				179.037991	-0.782641	-39.190909
00619	342574	0.119867	0.124574	-9.817211				-0.006807	0.003365	-0.000075				179.038638	-0.783344	-39.191188
00620	342624	0.141261	0.103846	-9.828338				-0.005054	-0.000679	-0.000043				179.037190	-0.783149	-39.191179
00621	342674	0.118364	0.126134	-9.813848				-0.006367	0.001397	-0.001308				179.037960	-0.783283	-39.191118
00622	342724	0.121872	0.123177	-9.807632				-0.004134	-0.000475	-0.001612				179.036769	-0.783139	-39.190651
00623	342774	0.119113	0.121112	-9.781255				-0.003450	-0.001884	-0.001589				179.038374	-0.782331	-39.190525
00624	342824	0.127478	0.125799	-9.817964				-0.004106	0.001596	-0.003942				179.037182	-0.782770	-39.189390
00625	342874	0.105238	0.106717	-9.817121				-0.000300	-0.001406	-0.003678				179.039682	-0.782089	-39.188666
00626	342924	0.129041	0.123826	-9.814618				-0.001846	0.000216	-0.000683				179.039150	-0.782148	-39.188469
00627	342974	0.117842	0.130321	-9.826069				-0.003190	-0.000871	-0.000173				179.040834	-0.781637	-39.188739
00628	343024	0.138836	0.120495	-9.834080				-0.004808	0.001717	-0.000258				179.039456	-0.782128	-39.188654
00629	343074	0.123655	0.134830	-9.836403				-0.004333	0.000554	-0.004142				179.040799	-0.782006	-39.187796
00630	343124	0.143743	0.122506	-9.840817				-0.002754	-0.000609	-0.001809				179.040003	-0.781823	-39.187278
00631	343174	0.139219	0.111552	-9.820170				0.002912	-0.000513	-0.003076				179.043425	-0.781401	-39.186713
00632	343224	0.132735	0.147845	-9.842443				-0.005537	-0.001889	-0.003217				179.041827	-0.780845	-39.185796
00633	343274	0.135443	0.120066	-9.821362				-0.006717	0.003197	-0.003352				179.042489	-0.781485	-39.185146
00634	343324	0.134124	0.112567	-9.819676				-0.002417	0.004052	-0.002459				179.041787	-0.782634	-39.184417
00635	343374	0.142616	0.121133	-9.826187				-0.003827	0.004256	-0.000307				179.043291	-0.783591	-39.184632
00636	343424	0.151946	0.121558	-9.832476				-0.003947	0.005094	-0.000719				179.042157	-0.785047	-39.184395
00637	343474	0.135101	0.136757	-9.818007				-0.002722	-0.000278	0.002330				179.043988	-0.784718	-39.185404
00638	343524	0.134319	0.125068	-9.815127				-0.002687	0.001331	-0.001128				179.043213	-0.785094	-39.185073
00639	343574	0.127052	0.137282	-9.823964				-0.004270	0.000722	-0.002632				179.044581	-0.785028	-39.184636
00640	343624	0.112969	0.133723	-9.819569				-0.005800	-0.001672	-0.003409				179.042906	-0.784533	-39.183675
00641	343674	0.125033	0.140737	-9.783210				-0.007110	-0.004660	-0.001049				179.043467	-0.782933	-39.183711
00642	343724	0.117043	0.116133	-9.814798				-0.004557	0.000586	-0.002148				179.042153	-0.783091	-39.183093
00643	343774	0.122353	0.109820	-9.811228				-0.006817	-0.000481	0.001187				179.042807	-0.782699	-39.183757
00644	343824	0.113933	0.125063	-9.844022				-0.005121	-0.001786	-0.002513				179.041330	-0.782175	-39.183046
00645	343874	0.123066	0.122408	-9.819141				-0.002433	-0.003608	-0.000734				179.043233	-0.780878	-39.183173
00646	343924	0.108752	0.129574	-9.832731				-0.003839	-0.004730	-0.000349				179.042132	-0.779521	-39.183105
00647	343974	0.123174	0.119407	-9.821059				-0.004286	-0.000869	-0.003186				179.043494	-0.778997	-39.182510
00648	344024	0.124652	0.119201	-9.819630				-0.007679	0.000079	-0.002206				179.041285	-0.779009	-39.181876
00649	344074	0.113166	0.128852	-9.824124				-0.005458	0.000728	-0.004265				179.042307	-0.778937	-39.180977
00650	344124	0.134572	0.121778	-9.815849				-0.002791	-0.000516	-0.001934				179.041500	-0.778780	-39.180425
00651	344174	0.149614	0.117608	-9.809928				-0.003207	-0.000623	-0.003161				179.043171	-0.778326	-39.179851
00652	344224	0.147133	0.127537	-9.810879				-0.003284	0.000055	-0.002767				179.042220	-0.778328	-39.179054
00653	344274	0.145144	0.109411	-9.833159				-0.003539	0.003129	0.000136				179.043810	-0.778965	-39.179392
00654	344324	0.153980	0.125408	-9.833447				-0.004056	0.002278	-0.000286				179.042646	-0.779617	-39.179302
00655	344374	0.149131	0.122372	-9.826230				-0.003245	-0.000264	-0.002671				179.044311	-0.779268	-39.178859
00656	344424	0.129836	0.128135	-9.817499				-0.001713	0.002059	-0.001507				179.043815	-0.779851	-39.178422
00657	344474	0.141677	0.129034	-9.830020				-0.005680	-0.001078	0.000280				179.044793	-0.779284	-39.178823
00658	344524	0.142116	0.118673	-9.810132				-0.000562	0.006479	0.000277				179.044633	-0.781141	-39.178872
00659	344574	0.126781	0.142686	-9.821569				-0.004935	0.001418	-0.003746				179.045809	-0.781270	-39.178116
00660	344624	0.143078	0.114555	-9.832182				-0.001536	-0.000618	-0.001175				179.045364	-0.781087	-39.177788
00661	344674	0.126756	0.122026	-9.822524				-0.004727	-0.000262	-0.004270				179.046598	-0.780731	-39.176884
00662	344724	0.134884	0.116203	-9.820633				-0.002280	-0.002446	-0.001468				179.045939	-0.780024	-39.176482
00663	344774	0.118072	0.129552	-9.819361				-0.005797	0.001599	-0.001049				179.046878	-0.780217	-39.176497
00664	344824	0.141054	0.120257	-9.821394				-0.000472	0.000013	-0.003061				179.046731	-0.780206	-39.175628
00665	344874	0.124284	0.111709	-9.815073				-0.003415	0.003261	-0.001336				179.048353	-0.780875	-39.175527
00666	344924	0.120807	0.114708	-9.809785				-0.005538	-0.001589	0.001851				179.046773	-0.780428	-39.176072
00667	344974	0.124842	0.137827	-9.814608				-0.005695	0.000076	-0.004619				179.047730	-0.780168	-39.175075
00668	345024	0.123736	0.115013	-9.817706				-0.003151	0.001641	-0.004140				179.046811	-0.780619	-39.173881
00669	345074	0.119029	0.122846	-9.821757				-0.003935	-0.001464	0.000820				179.048294	-0.779944	-39.174443
00670	345124	0.123047	0.126471	-9.826814				0.000590	-0.005005	0.000503				179.048466	-0.778512	-39.174614
00671	345174	0.141901	0.112513	-9.829777				-0.002114	0.001268	-0.004237				179.050450	-0.778596	-39.173710
00672	345224	0.102408	0.140013	-9.833421				-0.006192	0.004052	-0.001580				179.048669	-0.779749	-39.173229
00673	345274	0.140891	0.121681	-9.831692				-0.004151	0.000180	0.000346				179.050088	-0.779542	-39.173665
00674	345324	0.129436	0.117642	-9.825403				-0.005542	-0.000630	-0.002960				179.048489	-0.779348	-39.172824
00675	345374	0.153306	0.114542	-9.811382				-0.001504	0.002681	0.000256				179.050666	-0.779857	-39.173210
00676	345424	0.141000	0.110055	-9.809406				-0.001870	-0.004313	-0.002633				179.050121	-0.778609	-39.172478
00677	345474	0.131896	0.121931	-9.815356				-0.002176	-0.000864	-0.004542				179.052089	-0.778081	-39.171502
00678	345524	0.142628	0.118856	-9.836014				-0.001796	0.000633	-0.001132				179.051570	-0.778257	-39.171169
00679	345574	0.125505	0.136493	-9.804541				-0.006510	-0.000287	-0.001732				179.052307	-0.777907	-39.171035
00680	345624	0.138113	0.129212	-9.821143				-0.003186	0.001031	-0.001480				179.051388	-0.778195	-39.170601
00681	345674	0.123385	0.134875	-9.812683				-0.002757	-0.001583	-0.003257				179.053195	-0.777467	-39.169999
00682	345724	0.122574	0.131679	-9.821780				-0.004389	-0.000508	-0.001132				179.051933	-0.777316	-39.169678
00683	345774	0.133505	0.120808	-9.829737				-0.003466	0.000308	-0.004402				179.053532	-0.777124	-39.168743
00684	345824	0.124711	0.113127	-9.812202				-0.005440	0.001283	-0.003044				179.051961	-0.777477	-39.167861
00685	345874	0.135017	0.107205	-9.816086				-0.000237	0.000818	-0.003128				179.054490	-0.777437	-39.167282
00686	345924	0.119585	0.121080	-9.812654				-0.004798	0.000324	-0.000069				179.053115	-0.777530	-39.167260
00687	345974	0.127858	0.117386	-9.826597				-0.002446	0.001720	-0.004075				179.055007	-0.777744	-39.166415
00688	346024	0.119903	0.111360	-9.800913				-0.001227	0.000807	-0.001837				179.054648	-0.777967	-39.165876
00689	346074	0.119319	0.135006	-9.840210				-0.001489	-0.001237	-0.002968				179.056820	-0.777339	-39.165352
00690	346124	0.121279	0.123444	-9.827520				-0.003077	-0.000323	-0.001198				179.055933	-0.777241	-39.165013
00691	346174	0.134394	0.118907	-9.828309				-0.005166	-0.003561	-0.003230				179.057050	-0.775947	-39.164425
00692	346224	0.127914	0.128116	-9.827552				-0.005732	-0.000568	-0.002764				179.055397	-0.775771	-39.163636
00693	346274	0.117350	0.125453	-9.820077				-0.003164	-0.003777	0.000615				179.057104	-0.774432	-39.164159
00694	346324	0.137786	0.135030	-9.809149				-0.004008	0.000695	-0.001000				179.055952	-0.774627	-39.163872
00695	346374	0.140000	0.117744	-9.825702				-0.003161	0.002064	-0.002435				179.057647	-0.774947	-39.163484
00696	346424	0.122965	0.126941	-9.818428				-0.004958	0.002360	-0.001948				179.056219	-0.775614	-39.162909
00697	346474	0.137573	0.139632	-9.827845				-0.005380	0.000215	-0.002280				179.057279	-0.775406	-39.162575
00698	346524	0.140276	0.117788	-9.829535				-0.002384	0.004117	-0.000951				179.056592	-0.776581	-39.162279
00699	346574	0.131369	0.138462	-9.823269				-0.003526	0.002707	-0.001309				179.058186	-0.777090	-39.162221
00700	346624	0.124788	0.137574	-9.803345				-0.002126	0.002825	-0.003620				179.057563	-0.777882	-39.161174
00701	346674	0.119408	0.127752	-9.827035				-0.005451	0.001864	-0.001211				179.058606	-0.778151	-39.161127
00702	346724	0.138938	0.104300	-9.816103				-0.002778	0.003531	0.000360				179.057811	-0.779165	-39.161207
00703	346774	0.142840	0.122045	-9.811573				-0.003329	-0.001016	-0.004790				179.059449	-0.778592	-39.160188
00704	346824	0.115207	0.131579	-9.818621				-0.003143	0.000776	-0.000836				179.058545	-0.778810	-39.159942
00705	346874	0.121622	0.129756	-9.816022				-0.003427	-0.001426	-0.000367				179.060172	-0.778141	-39.160174
00706	346924	0.120910	0.123669	-9.810262				-0.002875	0.000361	-0.000999				179.059344	-0.778240	-39.159884
00707	346974	0.122866	0.121275	-9.813869				-0.006729	-0.002421	0.000466				179.060029	-0.777289	-39.160341
00708	347024	0.097258	0.143095	-9.831240				-0.002658	-0.000613	-0.002962				179.059256	-0.777100	-39.159493
00709	347074	0.124916	0.118135	-9.822265				-0.000105	-0.000138	-0.000211				179.061835	-0.776800	-39.159773
00710	347124	0.117853	0.115593	-9.846193				-0.002439	-0.002644	-0.002363				179.061127	-0.776031	-39.159110
00711	347174	0.122901	0.108953	-9.827044				-0.002363	-0.001801	-0.002105				179.063053	-0.775246	-39.158824
00712	347224	0.124262	0.119277	-9.829932				-0.004507	0.003169	-0.002167				179.061753	-0.776144	-39.158190
00713	347274	0.138289	0.114956	-9.826172				-0.006349	0.000620	-0.002595				179.062534	-0.776050	-39.157765
00714	347324	0.130091	0.113850	-9.841223				-0.005506	0.000011	-0.005198				179.060936	-0.776029	-39.156275
00715	347374	0.128728	0.146634	-9.801204				-0.003645	-0.000753	-0.000942				179.062501	-0.775549	-39.156347
00716	347424	0.136115	0.116025	-9.811301				-0.005104	0.000769	-0.003048				179.061026	-0.775755	-39.155465
00717	347474	0.141505	0.125460	-9.825228				-0.006042	-0.000055	-0.003468				179.061894	-0.775464	-39.154787
00718	347524	0.141162	0.118112	-9.818034				-0.003979	0.003926	-0.001433				179.060748	-0.776582	-39.154358
00719	347574	0.161521	0.122397	-9.804958				-0.002109	0.003705	0.001386				179.062760	-0.777390	-39.155049
00720	347624	0.144791	0.118294	-9.826684				-0.003443	0.004198	-0.000883				179.061770	-0.778589	-39.154775
00721	347674	0.119491	0.129746	-9.818883				-0.004411	-0.000964	-0.002798				179.063108	-0.778040	-39.154314
00722	347724	0.140279	0.119189	-9.796936				-0.002933	0.000900	-0.004239				179.062251	-0.778278	-39.153090
00723	347774	0.127444	0.126931	-9.833064				-0.003411	-0.000074	-0.001869				179.063878	-0.777989	-39.152873
00724	347824	0.137296	0.114093	-9.810589				-0.002091	0.001923	-0.000644				179.063277	-0.778537	-39.152684
00725	347874	0.128544	0.110322	-9.816529				-0.001299	0.000264	0.002009				179.065525	-0.778363	-39.153571
00726	347924	0.127363	0.123292	-9.811975				-0.003685	0.000631	-0.000487				179.064467	-0.778542	-39.153423
00727	347974	0.120559	0.122916	-9.819847				-0.004253	0.000070	-0.002828				179.065851	-0.778289	-39.152953
00728	348024	0.117549	0.150269	-9.815291				-0.003345	-0.000202	-0.002991				179.064881	-0.778217	-39.152102
00729	348074	0.124954	0.113624	-9.821549				-0.001022	-0.000547	-0.000980				179.067198	-0.777797	-39.152142
00730	348124	0.132217	0.114708	-9.837399				-0.002890	0.001749	-0.001507				179.066364	-0.778291	-39.151702
00731	348174	0.117152	0.124807	-9.839486				-0.004665	0.002036	-0.003202				179.067627	-0.778601	-39.151101
00732	348224	0.124386	0.134803	-9.808610				-0.004701	0.001032	-0.004102				179.066265	-0.778877	-39.149923
00733	348274	0.130498	0.128113	-9.809121				-0.004850	0.003074	-0.001528				179.067482	-0.779492	-39.149778
00734	348324	0.136902	0.115172	-9.829999				-0.004566	-0.000161	-0.003570				179.066160	-0.779429	-39.148760
00735	348374	0.137082	0.148669	-9.848454				-0.005223	0.000509	-0.002471				179.067267	-0.779304	-39.148369
00736	348424	0.123139	0.141058	-9.816271				-0.000580	-0.000312	-0.000949				179.067097	-0.779210	-39.148092
00737	348474	0.152896	0.109312	-9.822406				-0.004617	-0.000385	-0.002129				179.068378	-0.778831	-39.147822
00738	348524	0.141764	0.130253	-9.821396				-0.001995	0.004126	-0.000374				179.067805	-0.780011	-39.147695
00739	348574	0.141477	0.119805	-9.837690				-0.003578	0.002025	-0.003137				179.069381	-0.780318	-39.147119
00740	348624	0.119779	0.133325	-9.835906				-0.005134	-0.000495	-0.004205				179.067893	-0.780157	-39.145916
00741	348674	0.127843	0.110291	-9.813893				-0.002176	0.001533	-0.002567				179.069871	-0.780325	-39.145497
00742	348724	0.126355	0.132173	-9.806223				-0.001594	0.002351	-0.001637				179.069408	-0.780991	-39.145014
00743	348774	0.125961	0.141229	-9.807898				-0.002015	0.001670	0.000700				179.071443	-0.781214	-39.145525
00744	348824	0.138436	0.104534	-9.822084				0.001420	0.002182	-0.001168				179.071845	-0.781833	-39.145177
00745	348874	0.127442	0.125002	-9.815578				-0.002039	0.001081	-0.002382				179.073865	-0.781873	-39.144827
00746	348924	0.114628	0.121974	-9.812635				-0.003691	0.003767	-0.002263				179.072798	-0.782942	-39.144164
00747	348974	0.099537	0.123170	-9.822385				-0.004328	-0.002117	0.001012				179.074175	-0.782081	-39.144779
00748	349024	0.120289	0.132133	-9.819614				-0.005415	0.002741	-0.001495				179.072618	-0.782859	-39.144340
00749	349074	0.112777	0.127639	-9.801600				-0.002743	0.001136	-0.001768				179.074438	-0.782917	-39.144170
00750	349124	0.106349	0.139369	-9.824572				-0.004142	-0.000308	-0.002024				179.073243	-0.782820	-39.143595
00751	349174	0.122897	0.118850	-9.805723				-0.002436	0.000726	-0.000291				179.075156	-0.782767	-39.143831
00752	349224	0.122333	0.124996	-9.814824				-0.004397	-0.000548	-0.003663				179.073882	-0.782593	-39.142791
00753	349274	0.136613	0.135471	-9.824005				-0.003666	-0.000776	0.003005				179.075456	-0.782125	-39.143976
00754	349324	0.138166	0.119716	-9.812510				-0.006117	-0.000867	-0.003502				179.073690	-0.781861	-39.142967
00755	349374	0.142925	0.127815	-9.825477				-0.006039	-0.000085	-0.002505				179.074563	-0.781566	-39.142589
00756	349424	0.118224	0.120501	-9.820315				-0.004038	0.001501	-0.002752				179.073395	-0.781984	-39.141796
00757	349474	0.123512	0.125891	-9.826098				-0.005547	0.004901	-0.001194				179.074413	-0.783123	-39.141743
00758	349524	0.127698	0.114173	-9.817483				-0.003193	0.004196	-0.003485				179.073485	-0.784309	-39.140722
00759	349574	0.143081	0.117162	-9.829068				-0.004413	0.001039	-0.003528				179.074819	-0.784331	-39.140019
00760	349624	0.133884	0.115497	-9.837414				-0.002986	0.002518	-0.004869				179.073944	-0.785029	-39.138602
00761	349674	0.136341	0.131065	-9.801243				-0.002278	0.001927	0.001541				179.075910	-0.785329	-39.139391
00762	349724	0.147998	0.128817	-9.809927				-0.004629	-0.000668	0.002011				179.074592	-0.785147	-39.139970
00763	349774	0.145727	0.119097	-9.834359				-0.003457	0.001876	0.001767				179.076220	-0.785434	-39.140772
00764	349824	0.140150	0.122672	-9.810115				-0.001923	-0.002470	-0.001562				179.075664	-0.784719	-39.140342
00765	349874	0.135080	0.131300	-9.805545				-0.001643	-0.001142	-0.002102				179.077797	-0.784124	-39.140067
00766	349924	0.128188	0.131625	-9.811982				-0.002711	-0.001711	-0.000975				179.077017	-0.783629	-39.139800
00767	349974	0.124752	0.128983	-9.822747				-0.007633	-0.000080	-0.000826				179.077438	-0.783344	-39.139881
00768	350024	0.143460	0.111987	-9.833382				-0.002752	0.002982	0.002062				179.076658	-0.784208	-39.140456
00769	350074	0.128921	0.115984	-9.829958				-0.003374	-0.004244	-0.001373				179.078299	-0.782727	-39.140409
00770	350124	0.122262	0.116340	-9.812190				-0.002301	0.000498	-0.001924				179.077632	-0.782861	-39.139855
00771	350174	0.119098	0.144898	-9.816737				-0.004537	0.000390	-0.001378				179.078940	-0.782708	-39.139770
00772	350224	0.128612	0.131532	-9.837391				-0.005403	-0.000987	-0.004303				179.077375	-0.782405	-39.138546
00773	350274	0.124509	0.128947	-9.826580				-0.002203	-0.001733	-0.001971				179.079348	-0.781641	-39.138300
00774	350324	0.111075	0.122144	-9.822920				-0.004944	0.000967	-0.002176				179.077923	-0.781908	-39.137675
00775	350374	0.123738	0.104295	-9.836403				-0.005724	0.000372	-0.001567				179.078888	-0.781749	-39.137555
00776	350424	0.117485	0.130609	-9.811206				-0.006971	-0.002015	-0.003885				179.076876	-0.781153	-39.136450
00777	350474	0.144665	0.114722	-9.824039				-0.005349	-0.001597	-0.002769				179.077945	-0.780424	-39.135993
00778	350524	0.141467	0.128158	-9.825711				-0.001018	0.000287	-0.003885				179.077638	-0.780489	-39.134880
00779	350574	0.128942	0.130488	-9.803119				-0.001616	-0.000980	-0.003058				179.079775	-0.779935	-39.134335
00780	350624	0.136302	0.134478	-9.812026				-0.002333	0.001494	-0.002275				179.079098	-0.780352	-39.133673
00781	350674	0.128720	0.132243	-9.838585				-0.002302	0.002434	-0.003068				179.081039	-0.780776	-39.133111
00782	350724	0.147674	0.119865	-9.815677				-0.004865	-0.001423	-0.000842				179.079642	-0.780364	-39.132882
00783	350774	0.130617	0.120378	-9.817508				-0.005309	0.002711	0.000531				179.080736	-0.780885	-39.133352
00784	350824	0.144176	0.124374	-9.819491				-0.003697	0.002891	-0.003710				179.079662	-0.781696	-39.132269
00785	350874	0.139225	0.113940	-9.825214				-0.002638	-0.001157	-0.001201				179.081515	-0.781100	-39.132265
00786	350924	0.140253	0.126983	-9.822104				-0.004822	0.000029	-0.003082				179.080122	-0.781094	-39.131385
00787	350974	0.104526	0.132017	-9.828403				-0.001956	0.002766	-0.001017				179.082169	-0.781624	-39.131407
00788	351024	0.122654	0.126450	-9.816271				-0.005298	-0.000142	-0.003944				179.080636	-0.781565	-39.130279
00789	351074	0.123436	0.119137	-9.819867				-0.003687	-0.000401	-0.002506				179.082181	-0.781180	-39.129905
00790	351124	0.116162	0.142516	-9.820076				-0.004448	-0.002611	-0.001359				179.080902	-0.780426	-39.129531
00791	351174	0.125043	0.119399	-9.824182				-0.002243	-0.003511	-0.001819				179.082865	-0.779153	-39.129358
00792	351224	0.128821	0.120749	-9.830433				-0.001924	0.001832	0.000709				179.082316	-0.779681	-39.129545
00793	351274	0.133013	0.114555	-9.824945				-0.003984	-0.000922	-0.000522				179.083785	-0.779156	-39.129720
00794	351324	0.106844	0.120593	-9.825771				-0.001758	0.000672	-0.000260				179.083280	-0.779347	-39.129646
00795	351374	0.132114	0.109685	-9.816794				-0.003142	0.000776	-0.000738				179.084989	-0.779307	-39.129761
00796	351424	0.131826	0.137233	-9.817037				-0.005175	0.001089	-0.003839				179.083491	-0.779602	-39.128656
00797	351474	0.133620	0.134485	-9.840043				-0.001642	-0.002308	-0.002460				179.085622	-0.778670	-39.128297
00798	351524	0.134903	0.120754	-9.825665				-0.001426	0.000151	-0.001584				179.085207	-0.778706	-39.127836
00799	351574	0.145265	0.095745	-9.820445				-0.007252	0.003354	0.001723				179.085748	-0.779416	-39.128633
00800	351624	0.137157	0.115954	-9.816093				-0.005659	0.003709	0.001435				179.084132	-0.780485	-39.129026
00801	351674	0.139362	0.124068	-9.837921				-0.001702	0.006135	-0.000136				179.086256	-0.781983	-39.129283
00802	351724	0.131619	0.118555	-9.815589				-0.009316	0.002769	0.001055				179.083591	-0.782781	-39.129565
00803	351774	0.116433	0.131616	-9.822946				-0.001653	0.000183	-0.003117				179.085717	-0.782561	-39.129023
00804	351824	0.125081	0.111481	-9.820828				-0.008190	0.002294	-0.003924				179.083355	-0.783200	-39.127883
00805	351874	0.121236	0.121334	-9.816017				-0.002198	-0.000664	-0.001004				179.085334	-0.782746	-39.127939
00806	351924	0.124616	0.117519	-9.803324				-0.004791	0.001328	-0.000894				179.083958	-0.783123	-39.127673
00807	351974	0.137597	0.126532	-9.815146				-0.002484	-0.000796	-0.000813				179.085856	-0.782632	-39.127786
00808	352024	0.135016	0.137446	-9.815855				-0.002787	-0.003490	-0.001436				179.085052	-0.781626	-39.127393
00809	352074	0.126125	0.134105	-9.822752				-0.003245	-0.001033	0.000376				179.086737	-0.781073	-39.127819
00810	352124	0.135213	0.124532	-9.809857				-0.000750	-0.000059	-0.001932				179.086515	-0.781048	-39.127263
00811	352174	0.128069	0.136293	-9.825163				-0.003684	-0.001135	0.002559				179.088081	-0.780475	-39.128351
00812	352224	0.107652	0.119353	-9.813793				-0.006212	-0.001480	-0.001059				179.086298	-0.780046	-39.128051
00813	352274	0.110871	0.115410	-9.803502				-0.003476	-0.005119	-0.002050				179.087904	-0.778313	-39.127812
00814	352324	0.116653	0.135314	-9.826061				-0.007035	-0.000048	-0.005607				179.085867	-0.778273	-39.126205
00815	352374	0.128574	0.108125	-9.827315				-0.004040	-0.001050	0.000282				179.087323	-0.777715	-39.126631
00816	352424	0.145962	0.111138	-9.826446				-0.001887	0.000340	-0.002223				179.086773	-0.777802	-39.125992
00817	352474	0.127093	0.108568	-9.823232				-0.004968	-0.002263	0.000083				179.087963	-0.776895	-39.126371
00818	352524	0.140277	0.124418	-9.829778				-0.002290	-0.002766	0.000170				179.087307	-0.776103	-39.126432
00819	352574	0.126384	0.134509	-9.836175				-0.008003	-0.001774	-0.002693				179.087616	-0.775324	-39.126009
00820	352624	0.135927	0.126682	-9.849884				-0.008503	0.000195	0.000203				179.085181	-0.775381	-39.126065
00821	352674	0.133087	0.126861	-9.813690				-0.000937	0.001840	-0.001475				179.087518	-0.775643	-39.125973
00822	352724	0.138927	0.133420	-9.803169				-0.000311	0.001337	-0.003313				179.087416	-0.776011	-39.125012
00823	352774	0.153960	0.105655	-9.796528				-0.004918	-0.000139	-0.005813				179.088596	-0.775686	-39.123655
00824	352824	0.153308	0.117213	-9.811392				-0.002814	0.004621	-0.001748				179.087783	-0.777001	-39.123131
00825	352874	0.141019	0.127964	-9.816839				-0.001112	0.001422	-0.001447				179.090070	-0.777144	-39.123039
00826	352924	0.131724	0.117558	-9.802654				-0.003977	0.001759	-0.002109				179.088922	-0.777638	-39.122431
00827	352974	0.127224	0.126055	-9.820840				-0.003013	0.001509	-0.004552				179.090653	-0.777791	-39.121436
00828	353024	0.128647	0.126364	-9.818454				-0.006287	0.001913	-0.002935				179.088840	-0.778326	-39.120584
00829	353074	0.144758	0.108594	-9.821168				-0.007105	-0.000785	-0.002888				179.089405	-0.777829	-39.120106
00830	353124	0.130880	0.111632	-9.800967				-0.004850	0.001968	-0.002428				179.088006	-0.778381	-39.119400
00831	353174	0.118627	0.112535	-9.798269				-0.005257	-0.000003	0.001416				179.089118	-0.778129	-39.120131
00832	353224	0.120748	0.134606	-9.808116				-0.005005	-0.002334	-0.002994				179.087672	-0.777447	-39.119287
00833	353274	0.141310	0.106201	-9.825945				-0.006160	0.000945	-0.002206				179.088510	-0.777449	-39.118978
00834	353324	0.133649	0.119121	-9.821594				-0.007395	-0.001865	-0.005233				179.086371	-0.776891	-39.117492
00835	353374	0.126607	0.109703	-9.820835				-0.004690	-0.002232	-0.003059				179.087627	-0.775979	-39.116977
00836	353424	0.115743	0.125028	-9.824379				-0.005142	0.000286	-0.000381				179.086152	-0.776060	-39.116861
00837	353474	0.132750	0.115753	-9.816549				0.001356	-0.000763	-0.001462				179.089146	-0.775576	-39.116784
00838	353524	0.111525	0.141180	-9.830841				-0.003081	-0.000130	-0.000834				179.088260	-0.775535	-39.116548
00839	353574	0.139107	0.134422	-9.830733				-0.003439	0.002127	-0.000373				179.089884	-0.775884	-39.116749
00840	353624	0.135617	0.107571	-9.800269				-0.003714	-0.000700	-0.004273				179.088804	-0.775664	-39.115535
00841	353674	0.138418	0.110641	-9.808910				-0.003979	-0.002180	-0.000079				179.090275	-0.774782	-39.115815
00842	353724	0.130006	0.128850	-9.820145				-0.002848	-0.000552	-0.002510				179.089450	-0.774612	-39.115102
00843	353774	0.146100	0.128262	-9.830525				-0.002016	0.003730	-0.001115				179.091479	-0.775417	-39.115095
00844	353824	0.146919	0.108570	-9.820933				-0.005139	-0.002308	-0.005277				179.089987	-0.774732	-39.113597
00845	353874	0.145402	0.113911	-9.831236				-0.004728	0.005396	-0.001769				179.091237	-0.776012	-39.113403
00846	353924	0.130688	0.119992	-9.810071				-0.002167	0.006308	-0.005265				179.090595	-0.777795	-39.111868
00847	353974	0.136752	0.132604	-9.812027				-0.003770	-0.001696	-0.000653				179.092123	-0.777048	-39.112015
00848	354024	0.132013	0.132581	-9.838126				-0.004102	0.000858	0.000161				179.090949	-0.777295	-39.112065
00849	354074	0.116483	0.121970	-9.813838				-0.003650	0.000797	-0.000156				179.092513	-0.777265	-39.112329
00850	354124	0.110344	0.114250	-9.809967				-0.000235	-0.000379	-0.004885				179.092427	-0.777134	-39.110927
00851	354174	0.137495	0.105551	-9.826889				-0.000273	0.001075	-0.002352				179.094950	-0.777173	-39.110599
00852	354224	0.130363	0.108283	-9.810544				-0.001703	-0.002506	-0.004769				179.094444	-0.776434	-39.109240
00853	354274	0.123589	0.134441	-9.828734				-0.003667	0.002787	-0.007106				179.095978	-0.776941	-39.107543
00854	354324	0.126963	0.124972	-9.811976				-0.001945	0.002240	-0.004584				179.095403	-0.777562	-39.106216
00855	354374	0.114013	0.124971	-9.808313				-0.004654	-0.001100	-0.002445				179.096672	-0.776978	-39.105853
00856	354424	0.138432	0.119755	-9.813710				-0.005077	0.001960	-0.004575				179.095200	-0.777519	-39.104531
00857	354474	0.141299	0.117666	-9.821389				-0.002504	-0.000317	-0.002031				179.097084	-0.777161	-39.104293
00858	354524	0.135920	0.106437	-9.819443				-0.003016	-0.001458	-0.002645				179.096210	-0.776732	-39.103545
00859	354574	0.138803	0.131701	-9.824260				-0.003017	0.001737	-0.003528				179.097943	-0.776956	-39.102837
00860	354624	0.123568	0.120959	-9.800459				-0.003314	0.001091	-0.001025				179.096990	-0.777263	-39.102540
00861	354674	0.129518	0.122028	-9.818459				-0.005182	-0.001724	-0.002607				179.098106	-0.776500	-39.102147
00862	354724	0.134356	0.135655	-9.831910				-0.005674	0.002924	-0.000849				179.096477	-0.777334	-39.101891
00863	354774	0.139552	0.123605	-9.819711				-0.004766	0.000258	-0.003043				179.097712	-0.777136	-39.101327
00864	354824	0.131871	0.119771	-9.827579				-0.002966	0.001127	-0.003432				179.096848	-0.777443	-39.100332
00865	354874	0.128866	0.127481	-9.837865				-0.003634	-0.001212	-0.004016				179.098403	-0.776820	-39.099516
00866	354924	0.122596	0.138247	-9.828492				-0.004529	0.001271	-0.000120				179.097105	-0.777183	-39.099473
00867	354974	0.131685	0.131577	-9.817516				-0.004473	0.003395	-0.002102				179.098425	-0.777889	-39.099189
00868	355024	0.145016	0.128216	-9.812788				-0.001270	0.001553	0.000703				179.098064	-0.778337	-39.099380
00869	355074	0.128921	0.126581	-9.834507				-0.006704	-0.001100	-0.000802				179.098750	-0.777760	-39.099501
00870	355124	0.125732	0.131403	-9.812925				-0.005233	0.003392	0.001463				179.097256	-0.778738	-39.099896
00871	355174	0.126193	0.118793	-9.828750				-0.003372	0.003668	-0.005949				179.098877	-0.779505	-39.098525
00872	355224	0.109435	0.133561	-9.830825				-0.003640	0.004417	-0.001004				179.097830	-0.780765	-39.098223
00873	355274	0.117879	0.146477	-9.826553				-0.005329	0.000383	0.002030				179.098920	-0.780626	-39.099136
00874	355324	0.149622	0.117798	-9.814962				-0.006960	0.000863	-0.001661				179.096920	-0.780866	-39.098655
00875	355374	0.121545	0.127154	-9.800446				-0.006443	0.000743	-0.002942				179.097670	-0.780808	-39.098119
00876	355424	0.119524	0.133338	-9.841655				-0.001490	-0.003950	-0.001053				179.097240	-0.779671	-39.097841
00877	355474	0.136339	0.101736	-9.806989				-0.002714	-0.002841	-0.002715				179.099059	-0.778587	-39.097421
00878	355524	0.127500	0.106074	-9.834984				-0.002813	-0.001945	-0.005631				179.098232	-0.778005	-39.095820
00879	355574	0.149804	0.121831	-9.818322				-0.004261	-0.002512	-0.000657				179.099617	-0.777025	-39.095967
00880	355624	0.126980	0.118992	-9.812207				-0.000464	-0.001729	0.000523				179.099486	-0.776532	-39.096121
00881	355674	0.126183	0.117030	-9.801659				-0.005817	-0.001862	-0.001931				179.100422	-0.775732	-39.095927
00882	355724	0.134161	0.123870	-9.826152				-0.005784	-0.000027	-0.003881				179.098750	-0.775707	-39.094822
00883	355774	0.129148	0.134174	-9.811270				-0.001941	0.000013	-0.002827				179.100793	-0.775440	-39.094361
00884	355824	0.127285	0.122766	-9.826355				-0.001989	0.001663	-0.001697				179.100217	-0.775909	-39.093868
00885	355874	0.124486	0.127198	-9.850545				-0.004411	0.000428	0.000671				179.101563	-0.775777	-39.094377
00886	355924	0.124930	0.133013	-9.815805				-0.002059	0.000919	-0.001189				179.100968	-0.776035	-39.094028
00887	355974	0.137574	0.112545	-9.810822				-0.003731	0.000120	-0.000071				179.102507	-0.775811	-39.094360
00888	356024	0.109080	0.139380	-9.803263				-0.005149	0.002641	-0.001200				179.101027	-0.776562	-39.094011
00889	356074	0.144044	0.126827	-9.822128				-0.006309	-0.001679	-0.003309				179.101814	-0.775808	-39.093406
00890	356124	0.138051	0.124110	-9.820898				-0.004597	-0.002872	-0.000878				179.100494	-0.774982	-39.093172
00891	356174	0.128457	0.120068	-9.809813				-0.006694	0.001381	-0.005502				179.101162	-0.775095	-39.091912
00892	356224	0.109503	0.129181	-9.807095				-0.002712	0.002428	-0.002525				179.100375	-0.775779	-39.091179
00893	356274	0.139482	0.126426	-9.805808				-0.003711	0.000669	0.000477				179.101920	-0.775715	-39.091652
00894	356324	0.122413	0.116227	-9.813144				-0.004057	-0.003027	-0.002872				179.100747	-0.774835	-39.090842
00895	356374	0.130889	0.104014	-9.836195				-0.001843	0.000183	-0.001135				179.102822	-0.774625	-39.090851
00896	356424	0.139621	0.118788	-9.814436				-0.004464	0.000809	-0.003465				179.101530	-0.774841	-39.089853
00897	356474	0.141314	0.118984	-9.822351				-0.006909	0.000153	-0.003458				179.102144	-0.774611	-39.089177
00898	356524	0.104512	0.126261	-9.825518				-0.003847	-0.000273	-0.001252				179.101038	-0.774528	-39.088827
00899	356574	0.126980	0.136668	-9.813413				-0.006422	-0.000903	-0.001410				179.101800	-0.774005	-39.088762
00900	356624	0.129124	0.122108	-9.813416				0.000250	-0.000137	-0.001264				179.101866	-0.773960	-39.088399
00901	356674	0.109732	0.124317	-9.796307				-0.004572	0.002756	0.001715				179.103170	-0.774499	-39.089234
00902	356724	0.142483	0.124372	-9.817089				-0.007445	0.001986	-0.003445				179.101023	-0.775053	-39.088237
00903	356774	0.130450	0.120253	-9.827327				-0.004264	0.002117	0.001166				179.102412	-0.775406	-39.088894
00904	356824	0.133989	0.117334	-9.832616				-0.003357	0.000446	-0.000895				179.101447	-0.775530	-39.088630
00905	356874	0.138177	0.133837	-9.825452				-0.003593	0.002128	0.000683				179.103026	-0.775885	-39.089164
00906	356924	0.142358	0.131011	-9.817326				-0.007230	0.000508	0.000300				179.100956	-0.776032	-39.089245
00907	356974	0.133526	0.131430	-9.800984				-0.000033	0.002796	-0.001504				179.103546	-0.776568	-39.089114
00908	357024	0.122811	0.131625	-9.829453				-0.003432	0.000092	0.000799				179.102566	-0.776598	-39.089338
00909	357074	0.145301	0.124887	-9.807035				-0.003420	0.002643	-0.000666				179.104188	-0.777095	-39.089467
00910	357124	0.130072	0.130120	-9.821579				-0.002958	0.001233	0.001057				179.103345	-0.777453	-39.089764
00911	357174	0.125176	0.131024	-9.808610				-0.002703	0.000136	0.000761				179.105178	-0.777237	-39.090326
00912	357224	0.135938	0.127740	-9.822801				-0.008719	-0.001197	-0.000220				179.102679	-0.776893	-39.090273
00913	357274	0.134408	0.122768	-9.831662				-0.004718	-0.001395	-0.004049				179.103917	-0.776218	-39.089447
00914	357324	0.125560	0.121859	-9.796866				-0.002697	-0.003420	-0.001822				179.103138	-0.775230	-39.088951
00915	357374	0.127021	0.126547	-9.809342				-0.002567	-0.000960	0.001882				179.105014	-0.774706	-39.089807
00916	357424	0.116071	0.126056	-9.825100				-0.007001	0.001422	0.001487				179.103014	-0.775120	-39.090226
00917	357474	0.121957	0.116368	-9.793492				-0.004859	0.001358	-0.001531				179.104219	-0.775244	-39.090123
00918	357524	0.117299	0.125725	-9.839489				-0.002342	0.000589	-0.002986				179.103537	-0.775399	-39.089266
00919	357574	0.111176	0.122567	-9.807582				-0.003490	0.000570	-0.002565				179.105130	-0.775293	-39.088863
00920	357624	0.115836	0.119406	-9.823659				-0.005338	-0.000784	-0.000869				179.103598	-0.775065	-39.088624
00921	357674	0.110125	0.130634	-9.820999				-0.005137	0.005392	-0.000483				179.104726	-0.776350	-39.088773
00922	357724	0.123714	0.124910	-9.840959				-0.004327	-0.001249	0.000889				179.103490	-0.775996	-39.089040
00923	357774	0.123477	0.123701	-9.835679				-0.005991	-0.000112	0.001513				179.104382	-0.775713	-39.089813
00924	357824	0.114187	0.142357	-9.839471				-0.006045	-0.001737	-0.001383				179.102645	-0.775209	-39.089420
00925	357874	0.139327	0.122736	-9.813719				-0.003014	0.001646	-0.003013				179.104372	-0.775409	-39.088880
00926	357924	0.148572	0.123705	-9.825264				-0.000799	-0.002483	-0.000860				179.104140	-0.774693	-39.088645
00927	357974	0.134716	0.138993	-9.821846				-0.005063	0.002838	-0.002489				179.105283	-0.775237	-39.088273
00928	358024	0.132952	0.106903	-9.811761				-0.007028	0.002191	-0.000562				179.103267	-0.775862	-39.088100
00929	358074	0.127903	0.146018	-9.806477				-0.005005	0.003968	-0.002574				179.104425	-0.776729	-39.087694
00930	358124	0.133452	0.104218	-9.832607				-0.002714	-0.000580	-0.001098				179.103643	-0.776558	-39.087390
00931	358174	0.143193	0.124989	-9.817327				-0.000493	0.002207	-0.001346				179.106099	-0.776926	-39.087312
00932	358224	0.123363	0.136026	-9.834488				-0.004972	0.001740	-0.003097				179.104662	-0.777411	-39.086417
00933	358274	0.119049	0.123537	-9.803064				-0.003403	0.000832	-0.001375				179.106283	-0.777385	-39.086366
00934	358324	0.123600	0.124539	-9.807169				-0.002633	0.003910	-0.002199				179.105519	-0.778495	-39.085714
00935	358374	0.126208	0.112757	-9.821317				-0.003424	0.003646	-0.001298				179.107134	-0.779277	-39.085669
00936	358424	0.123898	0.119985	-9.826097				-0.006478	-0.000966	0.000995				179.105282	-0.779004	-39.085964
00937	358474	0.103882	0.127515	-9.822163				-0.006623	0.000259	-0.001978				179.105978	-0.778812	-39.085725
00938	358524	0.117512	0.126393	-9.793238				-0.001249	0.001741	-0.002085				179.105612	-0.779301	-39.085114
00939	358574	0.120247	0.125828	-9.824162				-0.004604	-0.001578	-0.000072				179.106893	-0.778590	-39.085444
00940	358624	0.110876	0.129670	-9.821241				-0.004444	-0.001740	-0.001001				179.105616	-0.778087	-39.085169
00941	358674	0.148192	0.123422	-9.821184				-0.002694	-0.000352	-0.002222				179.107436	-0.777718	-39.084862
00942	358724	0.146055	0.111906	-9.814221				-0.001757	-0.002466	0.000106				179.106933	-0.777012	-39.084898
00943	358774	0.135828	0.141281	-9.824245				-0.006558	0.000419	-0.001244				179.107651	-0.776868	-39.084895
00944	358824	0.129954	0.118622	-9.830682				-0.004082	0.001109	-0.001821				179.106474	-0.777178	-39.084365
00945	358874	0.145975	0.106596	-9.818296				-0.004940	-0.001066	0.000343				179.107660	-0.776616	-39.084806
00946	358924	0.145775	0.116736	-9.812305				-0.005709	-0.001115	0.000635				179.106027	-0.776299	-39.084993
00947	358974	0.143561	0.125728	-9.817090				-0.005687	0.000147	-0.000254				179.106996	-0.776083	-39.085249
00948	359024	0.126021	0.124283	-9.857023				-0.006668	0.001070	0.001618				179.105092	-0.776396	-39.085710
00949	359074	0.116322	0.132685	-9.827983				-0.003225	0.004651	0.000054				179.106768	-0.777471	-39.086022
00950	359124	0.140499	0.097069	-9.841990				-0.003437	-0.000074	-0.000903				179.105779	-0.777446	-39.085766
00951	359174	0.130459	0.128343	-9.825658				-0.005583	-0.002083	-0.001229				179.106776	-0.776585	-39.085774
00952	359224	0.144582	0.125716	-9.833631				-0.002134	-0.000826	-0.000843				179.106162	-0.776345	-39.085533
00953	359274	0.139191	0.128787	-9.839113				-0.002236	0.001831	0.001704				179.108128	-0.776619	-39.086345
00954	359324	0.139190	0.121657	-9.819463				-0.003620	0.003897	-0.001042				179.107086	-0.777731	-39.086034
00955	359374	0.138041	0.130742	-9.819457				-0.005843	-0.000187	-0.004553				179.107993	-0.777399	-39.085053
00956	359424	0.125943	0.126203	-9.819638				-0.001666	-0.001176	-0.000592				179.107514	-0.777060	-39.084886
00957	359474	0.136534	0.107791	-9.832149				-0.002222	0.000016	-0.000843				179.109472	-0.776803	-39.084996
00958	359524	0.124595	0.104044	-9.813155				-0.000408	0.001271	-0.001575				179.109349	-0.777160	-39.084542
00959	359574	0.140680	0.129127	-9.808690				-0.004695	0.000291	-0.001544				179.110597	-0.776979	-39.084437
00960	359624	0.112021	0.132794	-9.810703				-0.001619	0.001220	-0.001185				179.110128	-0.777323	-39.084088
00961	359674	0.123040	0.116985	-9.816985				-0.007079	0.002675	-0.001486				179.110693	-0.777824	-39.084006
00962	359724	0.121280	0.139563	-9.819374				-0.002754	-0.000254	-0.000742				179.109901	-0.777748	-39.083792
00963	359774	0.114295	0.133406	-9.834435				-0.002000	-0.000852	0.001176				179.111930	-0.777252	-39.084477
00964	359824	0.137679	0.108080	-9.820651				-0.001351	0.001671	-0.002955				179.111531	-0.777717	-39.083628
00965	359874	0.143697	0.134051	-9.823089				0.001174	-0.001156	-0.002107				179.114459	-0.777119	-39.083381
00966	359924	0.142485	0.123250	-9.815886				-0.000867	0.002587	-0.004490				179.114193	-0.777840	-39.082077
00967	359974	0.127644	0.120245	-9.811981				-0.005481	-0.000229	-0.000317				179.115218	-0.777515	-39.082330
00968	360024	0.153362	0.122162	-9.829844				0.000145	0.004133	-0.002430				179.115250	-0.778688	-39.081614
00969	360074	0.120835	0.130021	-9.817937				-0.006628	-0.000609	-0.001758				179.115940	-0.778249	-39.081439
00970	360124	0.134693	0.123140	-9.830468				-0.002560	0.000461	-0.002824				179.115195	-0.778368	-39.080624
00971	360174	0.135609	0.108075	-9.826396				-0.007013	0.002650	-0.000619				179.115781	-0.778867	-39.080768
00972	360224	0.148345	0.108758	-9.834364				-0.003768	-0.002210	-0.002547				179.114691	-0.778223	-39.080050
00973	360274	0.121365	0.118398	-9.818416				-0.004840	0.001951	0.000177				179.115903	-0.778524	-39.080433
00974	360324	0.127621	0.125952	-9.809344				-0.006276	0.001663	-0.000017				179.114105	-0.779001	-39.080411
00975	360374	0.143646	0.130186	-9.825958				-0.005155	0.003685	-0.002031				179.115216	-0.779790	-39.080164
00976	360424	0.127514	0.133836	-9.817731				-0.003304	-0.001324	-0.001065				179.114266	-0.779406	-39.079864
00977	360474	0.119159	0.136987	-9.818172				-0.002262	0.000307	-0.000544				179.116212	-0.779233	-39.080046
00978	360524	0.116314	0.144764	-9.824388				-0.004335	0.001950	-0.003517				179.114956	-0.779776	-39.079026
00979	360574	0.132211	0.122470	-9.829252				-0.001530	-0.002748	-0.001081				179.117109	-0.778727	-39.079072
00980	360624	0.116932	0.122021	-9.825585				-0.006321	-0.000481	-0.004742				179.115279	-0.778568	-39.077708
00981	360674	0.126024	0.130354	-9.827308				-0.002567	0.001857	-0.000316				179.117138	-0.778840	-39.077936
00982	360724	0.126812	0.134266	-9.817727				-0.002553	0.001569	0.001220				179.116411	-0.779295	-39.078280
00983	360774	0.126424	0.131472	-9.817490				-0.004734	0.002366	-0.001556				179.117643	-0.779708	-39.078158
00984	360824	0.124468	0.119808	-9.814591				-0.004520	0.004824	-0.002378				179.116339	-0.781079	-39.077439
00985	360874	0.131198	0.124845	-9.817278				-0.003188	-0.000033	-0.001990				179.118011	-0.780803	-39.077236
00986	360924	0.133357	0.126827	-9.823030				-0.002138	-0.000590	0.001020				179.117402	-0.780639	-39.077531
00987	360974	0.130219	0.135379	-9.828052				-0.001497	-0.000550	-0.000876				179.119562	-0.780220	-39.077624
00988	361024	0.122095	0.137129	-9.816029				-0.004368	0.003317	-0.000042				179.118311	-0.781169	-39.077586
00989	361074	0.148422	0.131016	-9.836535				-0.002354	0.000919	-0.002376				179.120219	-0.781164	-39.077238
00990	361124	0.156699	0.110427	-9.826257				-0.005325	-0.001229	-0.000840				179.118691	-0.780809	-39.077007
00991	361174	0.132837	0.121431	-9.807931				-0.003973	0.000436	-0.003301				179.120132	-0.780661	-39.076387
00992	361224	0.124131	0.147886	-9.822508				-0.005498	0.003123	-0.004692				179.118538	-0.781535	-39.075035
00993	361274	0.132224	0.110772	-9.840514				-0.005159	-0.001393	-0.001995				179.119645	-0.780869	-39.074806
00994	361324	0.128781	0.127263	-9.805755				-0.003473	0.003164	-0.001428				179.118644	-0.781770	-39.074387
00995	361374	0.138757	0.121099	-9.829763				-0.004165	0.000565	-0.002243				179.120033	-0.781664	-39.074087
00996	361424	0.128818	0.130233	-9.818457				-0.007652	0.001276	-0.003576				179.117827	-0.782014	-39.073057
00997	361474	0.128070	0.112662	-9.824677				-0.006035	-0.001119	-0.001635				179.118682	-0.781428	-39.072927
00998	361524	0.135508	0.122614	-9.806021				-0.003314	0.001869	-0.004610				179.117715	-0.781943	-39.071595
00999	361574	0.145882	0.121038	-9.830522				-0.003815	0.001503	-0.003391				179.119199	-0.782101	-39.070953
01000	361624	0.117395	0.136355	-9.805937				-0.004813	-0.000022	0.000326				179.117821	-0.782096	-39.071048
01001	361674	0.136938	0.119728	-9.817537				-0.004264	-0.002675	-0.004730				179.119172	-0.781052	-39.070050
01002	361724	0.126068	0.113585	-9.808129				-0.004759	0.000266	-0.001150				179.117804	-0.781123	-39.069722
01003	361774	0.120111	0.121162	-9.830637				-0.004767	-0.000769	-0.000931				179.119025	-0.780641	-39.069797
01004	361824	0.144590	0.100919	-9.817572				0.001501	-0.000077	0.000109				179.119455	-0.780619	-39.069831
01005	361874	0.143303	0.131546	-9.823323				-0.004583	-0.000378	-0.000095				179.120733	-0.780252	-39.070153
01006	361924	0.133710	0.138579	-9.822316				-0.006140	0.001474	-0.000111				179.118974	-0.780674	-39.070114
01007	361974	0.123032	0.116479	-9.822973				-0.001404	-0.000612	-0.000843				179.121158	-0.780237	-39.070207
01008	362024	0.115957	0.142548	-9.818390				-0.006816	-0.000646	-0.002432				179.119196	-0.780042	-39.069515
01009	362074	0.125980	0.121826	-9.818677				-0.005662	-0.000816	-0.001504				179.120158	-0.779543	-39.069443
01010	362124	0.133115	0.119525	-9.837166				-0.005475	0.001448	-0.001047				179.118585	-0.779953	-39.069136
01011	362174	0.110095	0.136789	-9.806618				-0.003855	-0.000075	-0.002153				179.120062	-0.779665	-39.068838
01012	362224	0.129832	0.133673	-9.821099				-0.003043	0.002521	-0.004157				179.119174	-0.780369	-39.067633
01013	362274	0.144767	0.117836	-9.826440				-0.004172	0.002763	-0.002326				179.120558	-0.780892	-39.067289
01014	362324	0.143158	0.122185	-9.817329				-0.004952	-0.000002	-0.003688				179.119125	-0.780875	-39.066230
01015	362374	0.155738	0.130096	-9.816916				-0.001083	0.002135	-0.004136				179.121386	-0.781211	-39.065384
01016	362424	0.153991	0.109660	-9.829124				-0.004809	0.002618	-0.004029				179.119992	-0.781944	-39.064211
01017	362474	0.120690	0.136087	-9.835196				-0.002279	-0.001504	-0.003348				179.121913	-0.781240	-39.063605
01018	362524	0.122834	0.135101	-9.822739				-0.004854	0.002240	0.000846				179.120526	-0.781886	-39.063835
01019	362574	0.117314	0.126770	-9.813123				-0.004333	-0.001182	-0.000998				179.121868	-0.781285	-39.063925
01020	362624	0.125621	0.122838	-9.833774				-0.000435	0.000110	-0.001162				179.121739	-0.781312	-39.063594
01021	362674	0.129044	0.111549	-9.816054				-0.003477	0.001229	0.000774				179.123332	-0.781409	-39.064148
01022	362724	0.127567	0.112571	-9.819883				-0.004030	0.000013	-0.003912				179.122163	-0.781396	-39.063028
01023	362774	0.119163	0.123134	-9.828471				-0.001977	0.000147	-0.003242				179.124170	-0.781166	-39.062452
01024	362824	0.124433	0.130072	-9.821312				-0.004754	-0.003127	-0.000848				179.122805	-0.780267	-39.062232
01025	362874	0.126275	0.131072	-9.824907				-0.002305	0.002504	-0.003999				179.124715	-0.780709	-39.061389
01026	362924	0.134301	0.129848	-9.829506				-0.003383	-0.001841	-0.000557				179.123744	-0.780179	-39.061244
01027	362974	0.111159	0.133653	-9.816214				-0.004742	0.001789	0.000814				179.124972	-0.780437	-39.061794
01028	363024	0.126199	0.131996	-9.823477				-0.004099	0.002405	-0.003674				179.123783	-0.781110	-39.060728
01029	363074	0.137939	0.135659	-9.816346				-0.004837	-0.000089	0.002476				179.124992	-0.780837	-39.061787
01030	363124	0.128565	0.123540	-9.814624				-0.001181	-0.001550	-0.001457				179.124648	-0.780387	-39.061377
01031	363174	0.137780	0.115985	-9.822571				-0.002913	-0.001744	-0.003862				179.126383	-0.779613	-39.060621
01032	363224	0.133177	0.121536	-9.818232				-0.001440	-0.000416	-0.000040				179.125970	-0.779493	-39.060603
01033	363274	0.128279	0.115576	-9.832831				-0.003305	-0.000720	-0.006515				179.127582	-0.779001	-39.059080
01034	363324	0.130908	0.140367	-9.823743				-0.002938	0.002198	-0.004131				179.126724	-0.779612	-39.057884
01035	363374	0.141433	0.105930	-9.813965				-0.002766	0.000917	-0.000512				179.128513	-0.779615	-39.058083
01036	363424	0.128560	0.118176	-9.836661				-0.002070	0.000116	-0.001642				179.127914	-0.779641	-39.057614
01037	363474	0.132899	0.135885	-9.806973				-0.003798	-0.000915	-0.001802				179.129403	-0.779114	-39.057459
01038	363524	0.112038	0.127734	-9.833947				-0.003964	0.001248	-0.002878				179.128256	-0.779459	-39.056630
01039	363574	0.137028	0.120331	-9.827121				-0.003739	-0.000623	-0.000711				179.129765	-0.779019	-39.056773
01040	363624	0.127970	0.119998	-9.829955				-0.002944	0.000788	0.001059				179.128926	-0.779249	-39.057074
01041	363674	0.122620	0.125522	-9.821781				-0.003132	-0.001039	-0.005330				179.130590	-0.778671	-39.055899
01042	363724	0.108821	0.119735	-9.826497				-0.001397	-0.004940	0.000353				179.130192	-0.777257	-39.056032
01043	363774	0.136960	0.131198	-9.824005				-0.005491	0.001425	0.002895				179.131213	-0.777420	-39.057180
01044	363824	0.120091	0.135150	-9.812901				-0.004403	0.002108	-0.001816				179.129944	-0.778016	-39.056650
01045	363874	0.132730	0.124193	-9.816798				-0.005812	0.001251	0.000878				179.130863	-0.778120	-39.057235
01046	363924	0.135200	0.120590	-9.823753				-0.005987	0.001603	-0.000534				179.129145	-0.778577	-39.057076
01047	363974	0.128239	0.126945	-9.841698				-0.006091	-0.000206	-0.000218				179.129981	-0.778259	-39.057375
01048	364024	0.139371	0.087899	-9.826406				-0.004416	-0.000226	-0.007247				179.128688	-0.778163	-39.055294
01049	364074	0.126326	0.113899	-9.819159				-0.002950	-0.001449	-0.001582				179.130417	-0.777482	-39.055203
01050	364124	0.118929	0.136582	-9.818890				-0.002953	-0.001118	0.001245				179.129576	-0.777167	-39.055576
01051	364174	0.127555	0.130534	-9.814608				-0.006276	0.000495	-0.001529				179.130353	-0.777045	-39.055455
01052	364224	0.139233	0.120422	-9.828332				-0.005788	0.001511	0.000172				179.128695	-0.777479	-39.055491
01053	364274	0.142486	0.121541	-9.815170				-0.005749	0.001448	0.001359				179.129634	-0.777641	-39.056219
01054	364324	0.140130	0.122138	-9.828576				-0.005390	-0.000397	-0.002114				179.128082	-0.777518	-39.055612
01055	364374	0.147968	0.103977	-9.818543				-0.003134	0.000424	0.000032				179.129765	-0.777382	-39.055968
01056	364424	0.133000	0.118405	-9.817510				-0.000191	0.001577	-0.001443				179.129705	-0.777827	-39.055546
01057	364474	0.140139	0.126293	-9.821148				-0.006669	0.002143	0.001141				179.130379	-0.778188	-39.056221
01058	364524	0.127794	0.120435	-9.826115				-0.002415	0.001821	-0.002530				179.129677	-0.778699	-39.055489
01059	364574	0.127001	0.131956	-9.820119				-0.003359	0.004521	-0.001777				179.131287	-0.779729	-39.055311
01060	364624	0.123642	0.122678	-9.820824				-0.003327	-0.000613	-0.001222				179.130329	-0.779548	-39.054969
01061	364674	0.129659	0.124691	-9.820613				-0.004300	0.003087	0.000659				179.131680	-0.780177	-39.055489
01062	364724	0.133246	0.120833	-9.830938				-0.006092	-0.000143	-0.000445				179.129933	-0.780134	-39.055366
01063	364774	0.113693	0.120860	-9.807590				-0.001583	0.002099	-0.001117				179.132053	-0.780472	-39.055373
01064	364824	0.123328	0.123843	-9.810036				-0.001244	0.000228	-0.002119				179.131688	-0.780529	-39.054767
01065	364874	0.147592	0.115929	-9.824780				-0.004000	0.000504	-0.001634				179.133114	-0.780408	-39.054634
01066	364924	0.110446	0.129890	-9.810452				-0.000688	0.000947	-0.003528				179.132903	-0.780664	-39.053615
01067	364974	0.119723	0.128476	-9.813617				-0.005084	-0.000807	-0.002664				179.134015	-0.780163	-39.053217
01068	365024	0.119677	0.117816	-9.816492				-0.003901	0.001509	0.000042				179.132897	-0.780596	-39.053230
01069	365074	0.103369	0.140028	-9.822163				-0.003088	-0.002097	-0.001612				179.134585	-0.779730	-39.053117
01070	365124	0.120934	0.136232	-9.797809				-0.001098	-0.001294	-0.003735				179.134256	-0.779343	-39.052050
01071	365174	0.127148	0.116246	-9.830425				-0.003134	0.002131	-0.005344				179.135914	-0.779673	-39.050850
01072	365224	0.129070	0.129456	-9.824212				-0.002887	0.000948	0.001063				179.135091	-0.779949	-39.051143
01073	365274	0.132745	0.131444	-9.810327				-0.005310	0.000446	-0.000892				179.136143	-0.779815	-39.051244
01074	365324	0.132695	0.122492	-9.848911				-0.001950	0.001349	-0.000964				179.135581	-0.780197	-39.050965
01075	365374	0.135002	0.120640	-9.838375				-0.000352	0.001705	0.000323				179.138057	-0.780429	-39.051390
01076	365424	0.119154	0.135034	-9.805702				-0.003979	0.003797	-0.003700				179.136902	-0.781500	-39.050312
01077	365474	0.125390	0.141047	-9.794240				-0.003275	-0.000224	-0.002123				179.138532	-0.781168	-39.050058
01078	365524	0.130830	0.150616	-9.837406				-0.004803	0.000621	0.000615				179.137158	-0.781349	-39.050222
01079	365574	0.128119	0.142923	-9.840742				-0.001549	0.002006	-0.000382				179.139287	-0.781664	-39.050451
01080	365624	0.112552	0.141020	-9.800402				-0.004645	-0.000183	-0.000124				179.137956	-0.781611	-39.050417
01081	365674	0.132884	0.111647	-9.791626				-0.003057	-0.001030	-0.000745				179.139651	-0.781054	-39.050546
01082	365724	0.138802	0.111204	-9.818260				-0.002307	0.000437	-0.001704				179.138983	-0.781172	-39.050051
01083	365774	0.129770	0.120459	-9.851052				-0.007091	-0.001170	-0.002309				179.139517	-0.780569	-39.049750
01084	365824	0.142685	0.109542	-9.831223				-0.002498	-0.000370	-0.000973				179.138798	-0.780458	-39.049475
01085	365874	0.110095	0.141061	-9.775942				-0.003858	0.002223	-0.000817				179.140263	-0.780834	-39.049561
01086	365924	0.119690	0.129590	-9.809781				-0.004047	-0.001080	-0.001385				179.139098	-0.780519	-39.049176
01087	365974	0.139118	0.120330	-9.817782				-0.006714	-0.000893	0.000516				179.139750	-0.780006	-39.049688
01088	366024	0.134739	0.134138	-9.838381				0.000279	-0.003562	-0.003078				179.139818	-0.778973	-39.048828
01089	366074	0.129478	0.106815	-9.803836				-0.000220	0.001576	-0.000705				179.142324	-0.779163	-39.048954
01090	366124	0.127610	0.127089	-9.811259				-0.001764	-0.000492	-0.002893				179.141808	-0.779010	-39.048126
01091	366174	0.125770	0.111182	-9.829218				-0.004233	0.001467	-0.003969				179.143151	-0.779155	-39.047343
01092	366224	0.129426	0.125931	-9.810316				-0.005779	-0.002179	-0.001767				179.141488	-0.778523	-39.046852
01093	366274	0.132489	0.155324	-9.821357				-0.002458	-0.000700	-0.002539				179.143346	-0.778053	-39.046473
01094	366324	0.121007	0.150715	-9.793019				-0.004736	0.000358	-0.003008				179.141978	-0.778143	-39.045613
01095	366374	0.140189	0.130312	-9.811322				-0.002884	0.000587	-0.002760				179.143709	-0.778041	-39.045179
01096	366424	0.134764	0.138707	-9.845572				-0.006094	-0.000508	-0.003944				179.141948	-0.777879	-39.044046
01097	366474	0.138283	0.106083	-9.810348				-0.003071	-0.000647	-0.002701				179.143627	-0.777423	-39.043631
01098	366524	0.105049	0.138804	-9.804912				-0.001312	0.000653	-0.000609				179.143249	-0.777608	-39.043460
01099	366574	0.142447	0.115659	-9.797195				-0.003327	0.003017	0.002258				179.144874	-0.778223	-39.044455
01100	366624	0.133507	0.144291	-9.844847				-0.003489	0.000510	-0.000960				179.143871	-0.778365	-39.044184
01101	366674	0.125402	0.131688	-9.819877				-0.003106	-0.000551	-0.002408				179.145541	-0.777939	-39.043841
01102	366724	0.116780	0.157645	-9.820794				-0.000843	0.000816	-0.003055				179.145287	-0.778159	-39.042960
01103	366774	0.142731	0.108931	-9.823793				-0.002658	0.001562	-0.000829				179.147088	-0.778345	-39.043052
