// General information: 
//  MT Manager version: 2022.0.0 
//  XDA version: 2022.0.0 build 7085 rev 119802 built on 2022-11-08
// Device information: 
//  DeviceId: 037004D1
//  ProductCode: MTi-300-2A5G4
//  Firmware Version: 1.4.1
//  Hardware Version: 2.1.0
// Device settings: 
//  Filter Profile: general(39.16)
//  Option Flags: Orientation Smoother Disabled, Position/Velocity Smoother Disabled, Continuous Zero Rotation Update Disabled, AHS Disabled, ICC Disabled
// Coordinate system: ENU
PacketCounter	SampleTimeFine	Acc_X	Acc_Y	Acc_Z	AccHR_X	AccHR_Y	AccHR_Z	Gyr_X	Gyr_Y	Gyr_Z	GyrHR_X	GyrHR_Y	GyrHR_Z	Roll	Pitch	Yaw
00001	981648	9.808400	0.230785	0.197136				-0.003064	-0.000802	0.000669				39.182959	-88.164555	-176.848043
00002	981698	9.802154	0.237965	0.191939				-0.006001	0.000756	-0.001878				39.184973	-88.165623	-176.849912
00003	981748	9.804296	0.237242	0.193284				-0.001176	0.006401	-0.002149				39.163375	-88.163849	-176.828662
00004	981798	9.802896	0.226229	0.210120				-0.002545	-0.000855	0.002435				39.146169	-88.164977	-176.809684
00005	981848	9.802717	0.223722	0.207030				-0.006879	-0.000907	-0.001020				39.156374	-88.164969	-176.821856
00006	981898	9.827696	0.222738	0.213127				-0.002287	0.000821	-0.001601				39.157363	-88.165665	-176.821376
00007	981948	9.802918	0.213503	0.193817				-0.003947	-0.000366	0.000646				39.153704	-88.165957	-176.818908
00008	981998	9.798903	0.210290	0.195571				-0.005230	0.000712	-0.000695				39.148333	-88.166701	-176.812854
00009	982048	9.807927	0.219021	0.221596				-0.002670	-0.000247	-0.000516				39.152365	-88.166632	-176.817643
00010	982098	9.815150	0.201888	0.203410				-0.004585	0.001559	-0.000820				39.142821	-88.167657	-176.807502
00011	982148	9.824463	0.217554	0.206154				-0.004210	-0.001176	0.000636				39.143925	-88.167788	-176.809673
00012	982198	9.805443	0.206375	0.224118				-0.003990	0.003058	-0.001422				39.130565	-88.168137	-176.795407
00013	982248	9.818951	0.202128	0.205775				-0.007495	0.001411	-0.001039				39.127670	-88.167821	-176.794758
00014	982298	9.811367	0.211460	0.219261				-0.003558	0.002714	0.000145				39.105470	-88.167822	-176.771140
00015	982348	9.820333	0.224943	0.205031				-0.004050	0.000890	-0.001403				39.108940	-88.167467	-176.775825
00016	982398	9.800525	0.226229	0.209761				-0.004215	0.003086	-0.001004				39.092619	-88.167409	-176.758402
00017	982448	9.812772	0.202772	0.202433				-0.006678	-0.000253	-0.001053				39.099559	-88.167308	-176.767274
00018	982498	9.799128	0.239499	0.178170				-0.002001	-0.003307	-0.000688				39.117171	-88.169361	-176.783527
00019	982548	9.818381	0.234155	0.194085				-0.005387	0.002542	-0.003412				39.124999	-88.167874	-176.792727
00020	982598	9.817312	0.218987	0.204065				-0.006098	-0.001115	0.000289				39.122738	-88.169527	-176.790214
00021	982648	9.832787	0.221811	0.199953				-0.003738	0.003254	-0.000656				39.107517	-88.169027	-176.776252
00022	982698	9.802101	0.236209	0.203138				-0.001504	-0.001882	-0.003957				39.140812	-88.169173	-176.807465
00023	982748	9.792155	0.227432	0.213106				-0.002448	0.001120	0.001419				39.123922	-88.169220	-176.791290
00024	982798	9.810697	0.230181	0.212889				-0.002835	-0.002126	-0.001741				39.142064	-88.170951	-176.808377
00025	982848	9.819524	0.212550	0.205598				-0.002223	0.001863	0.000165				39.129679	-88.170558	-176.796618
00026	982898	9.782817	0.217914	0.201902				0.002527	0.000388	-0.003443				39.147661	-88.170653	-176.811550
00027	982948	9.822515	0.220268	0.208336				-0.001625	-0.001176	-0.004435				39.184714	-88.170188	-176.849128
00028	982998	9.822377	0.227864	0.215847				-0.002351	0.001659	-0.002586				39.187483	-88.170797	-176.850640
00029	983048	9.824581	0.209390	0.204590				0.000557	0.001873	-0.003816				39.203634	-88.169349	-176.866440
00030	983098	9.814284	0.213995	0.204091				-0.000975	0.001718	-0.002500				39.206306	-88.169763	-176.867328
00031	983148	9.815213	0.205278	0.224686				-0.005762	-0.001691	0.000735				39.209149	-88.170420	-176.871909
00032	983198	9.805040	0.215461	0.193915				-0.000322	0.003440	-0.002968				39.205402	-88.169564	-176.865716
00033	983248	9.812482	0.217715	0.218496				-0.005474	0.001220	-0.001080				39.204185	-88.169451	-176.866271
00034	983298	9.827065	0.207215	0.193049				-0.006167	0.001819	-0.002870				39.207292	-88.169440	-176.868905
00035	983348	9.795083	0.226595	0.203032				-0.001390	0.001741	-0.002271				39.212705	-88.168729	-176.874769
00036	983398	9.807403	0.213293	0.200408				-0.002593	0.002171	-0.003068				39.216361	-88.168609	-176.876899
00037	983448	9.801219	0.227728	0.210634				-0.001432	-0.000005	-0.002955				39.236508	-88.168098	-176.897477
00038	983498	9.817666	0.227401	0.208284				-0.001277	-0.002647	0.000370				39.243825	-88.169753	-176.902956
00039	983548	9.822174	0.206820	0.213928				0.002513	0.001876	-0.003276				39.256590	-88.168892	-176.915101
00040	983598	9.848471	0.208115	0.195105				-0.004479	0.002238	-0.001878				39.250771	-88.169253	-176.908466
00041	983648	9.813860	0.228926	0.204628				-0.004413	0.001980	-0.003029				39.259241	-88.168297	-176.918225
00042	983698	9.801247	0.219782	0.222086				-0.003758	0.000533	-0.003105				39.271951	-88.168643	-176.929825
00043	983748	9.814097	0.223488	0.215851				-0.002320	0.001726	-0.002972				39.282242	-88.167801	-176.940832
00044	983798	9.831696	0.208489	0.209966				-0.003024	-0.002426	-0.002996				39.311085	-88.168717	-176.968304
00045	983848	9.815255	0.220537	0.187891				-0.002049	0.004742	0.000056				39.282898	-88.167832	-176.940788
00046	983898	9.803428	0.200848	0.214776				-0.001849	0.002222	-0.001433				39.275111	-88.168110	-176.931344
00047	983948	9.813685	0.218050	0.215453				-0.005659	0.004259	-0.001285				39.258064	-88.167092	-176.916005
00048	983998	9.826299	0.213476	0.226437				-0.002605	0.005020	0.000188				39.222920	-88.167150	-176.879457
00049	984048	9.812427	0.213802	0.196827				-0.001889	-0.001790	-0.000943				39.238919	-88.167534	-176.896104
00050	984098	9.841825	0.199124	0.209511				-0.005163	0.001317	-0.004224				39.254650	-88.167236	-176.910957
00051	984148	9.825689	0.207723	0.220638				-0.003751	0.002512	-0.002389				39.255964	-88.166185	-176.913310
00052	984198	9.812272	0.213216	0.222892				-0.005532	0.003058	-0.003023				39.253228	-88.166116	-176.910039
00053	984248	9.814364	0.210678	0.236410				-0.004557	-0.001579	-0.002314				39.276737	-88.166139	-176.934924
00054	984298	9.810844	0.212937	0.223967				-0.003412	-0.002367	-0.003093				39.306145	-88.167140	-176.963097
00055	984348	9.790597	0.218488	0.213028				-0.004023	-0.003117	-0.001231				39.331178	-88.167579	-176.989271
00056	984398	9.819798	0.186819	0.213665				-0.004964	-0.001582	0.000731				39.328885	-88.169188	-176.986288
00057	984448	9.801870	0.218372	0.200511				-0.000810	-0.002672	-0.002649				39.362161	-88.169445	-177.019897
00058	984498	9.835930	0.199550	0.198993				-0.003167	0.002462	-0.000276				39.344196	-88.169736	-177.000571
00059	984548	9.813445	0.216306	0.220118				-0.004010	-0.000563	-0.001539				39.356717	-88.169578	-177.014248
00060	984598	9.835061	0.200980	0.221275				0.001513	-0.001186	-0.004704				39.391788	-88.169979	-177.046681
00061	984648	9.798265	0.236766	0.206592				-0.001766	0.000474	-0.002919				39.408747	-88.169220	-177.064088
00062	984698	9.814432	0.223760	0.198873				-0.003576	0.003195	-0.000075				39.385182	-88.170022	-177.039609
00063	984748	9.811255	0.229460	0.200585				-0.006447	0.004657	-0.003493				39.381325	-88.168111	-177.037448
00064	984798	9.820856	0.212003	0.184671				-0.003582	0.000957	-0.003745				39.395688	-88.168658	-177.050886
00065	984848	9.824283	0.202274	0.190091				-0.000598	-0.001183	-0.002160				39.417172	-88.168773	-177.072694
00066	984898	9.803471	0.218526	0.211464				-0.005877	0.004896	-0.002724				39.401705	-88.168007	-177.056598
00067	984948	9.810653	0.217125	0.207779				-0.007875	0.001277	-0.000656				39.396697	-88.167538	-177.053811
00068	984998	9.836652	0.209781	0.215746				-0.002589	0.000072	-0.002117				39.405523	-88.167932	-177.061037
00069	985048	9.820916	0.219003	0.199924				-0.005215	-0.001582	0.001892				39.399981	-88.168794	-177.057088
00070	985098	9.818511	0.218339	0.205273				-0.002411	-0.000673	-0.004883				39.432070	-88.169119	-177.087700
00071	985148	9.805669	0.197035	0.207031				-0.004836	0.002196	-0.004250				39.447907	-88.167624	-177.104793
00072	985198	9.799767	0.213009	0.206093				-0.001931	0.001767	-0.002044				39.446167	-88.168050	-177.101530
00073	985248	9.823455	0.218587	0.213708				-0.005195	0.000844	0.000329				39.437575	-88.167965	-177.094448
00074	985298	9.801987	0.219764	0.216911				-0.004033	0.001409	-0.000918				39.430264	-88.168314	-177.085963
00075	985348	9.797647	0.249786	0.204208				-0.003684	0.000381	-0.000572				39.431028	-88.168078	-177.087753
00076	985398	9.823975	0.214175	0.215630				-0.002138	0.002019	-0.003264				39.436578	-88.168453	-177.091962
00077	985448	9.830902	0.211111	0.218390				-0.003495	-0.000685	-0.002408				39.456150	-88.168042	-177.112470
00078	985498	9.822035	0.222335	0.204342				-0.002906	0.001100	-0.001280				39.453079	-88.168811	-177.108160
00079	985548	9.813505	0.200426	0.203834				-0.005137	-0.000192	0.000199				39.451311	-88.168853	-177.107839
00080	985598	9.792850	0.233538	0.204035				-0.003753	0.003136	0.004030				39.400322	-88.169600	-177.055512
00081	985648	9.808356	0.208225	0.211392				-0.004344	0.002588	-0.006812				39.431551	-88.167669	-177.087932
00082	985698	9.802314	0.209925	0.222614				-0.005381	0.000547	0.000688				39.416499	-88.169630	-177.072778
00083	985748	9.800027	0.223000	0.219716				-0.005785	-0.000880	0.000421				39.417053	-88.169747	-177.074903
00084	985798	9.807031	0.213563	0.222784				-0.006612	-0.002159	0.000288				39.420822	-88.171108	-177.078249
00085	985848	9.790292	0.227350	0.206424				-0.005370	0.002162	-0.000430				39.409876	-88.170658	-177.068904
00086	985898	9.797487	0.222771	0.206027				-0.005075	-0.003266	-0.001454				39.432403	-88.172071	-177.090668
00087	985948	9.812747	0.236846	0.213860				-0.003053	-0.000715	-0.004812				39.469146	-88.171124	-177.128164
00088	985998	9.809894	0.220277	0.208663				-0.001820	0.000020	-0.003499				39.487577	-88.172079	-177.145268
00089	986048	9.818336	0.231580	0.206229				-0.003083	0.000613	-0.001667				39.494648	-88.171686	-177.153250
00090	986098	9.837441	0.202217	0.218834				-0.000781	-0.001578	-0.004443				39.529478	-88.172288	-177.186147
00091	986148	9.810701	0.225065	0.222528				-0.007198	-0.000912	-0.001980				39.546433	-88.172078	-177.205143
00092	986198	9.790608	0.238025	0.210472				-0.004858	-0.000031	-0.002525				39.557630	-88.172752	-177.215615
00093	986248	9.834868	0.209832	0.195396				-0.006182	0.001368	-0.001653				39.559509	-88.172190	-177.219292
00094	986298	9.811803	0.224391	0.198542				-0.003594	-0.001460	-0.000359				39.564542	-88.173634	-177.223276
00095	986348	9.788754	0.238582	0.201382				-0.003435	0.000608	-0.001791				39.572502	-88.173068	-177.232168
00096	986398	9.822556	0.201513	0.201654				-0.002631	-0.000308	0.000191				39.567098	-88.174399	-177.225457
00097	986448	9.820357	0.226581	0.198271				-0.004194	-0.001059	-0.004300				39.601716	-88.173812	-177.261270
00098	986498	9.832993	0.204211	0.202102				-0.004587	0.000591	-0.001179				39.600528	-88.174403	-177.259158
00099	986548	9.813457	0.202613	0.207013				-0.003212	0.000313	-0.004906				39.631547	-88.173569	-177.291193
00100	986598	9.808974	0.218604	0.206013				-0.003586	-0.000720	-0.000706				39.634937	-88.174557	-177.293389
00101	986648	9.818246	0.218657	0.209227				-0.001977	0.003351	-0.002170				39.630350	-88.173114	-177.289189
00102	986698	9.813332	0.198592	0.195861				-0.005149	-0.001838	0.001249				39.626070	-88.175059	-177.284349
00103	986748	9.808759	0.197518	0.206788				-0.002280	0.001536	-0.001499				39.627130	-88.174329	-177.285991
00104	986798	9.807553	0.218819	0.203300				-0.003932	-0.004988	0.000169				39.648660	-88.176556	-177.306507
00105	986848	9.817673	0.207812	0.208441				-0.004480	0.001071	-0.003681				39.666602	-88.175646	-177.325745
00106	986898	9.801661	0.231110	0.208474				-0.003401	0.001415	-0.003195				39.675005	-88.175785	-177.332935
00107	986948	9.819102	0.215628	0.189634				-0.004095	-0.002695	0.000728				39.684145	-88.176612	-177.343314
00108	986998	9.818559	0.226855	0.219674				-0.002813	0.001165	-0.002337				39.687946	-88.177159	-177.345834
00109	987048	9.818907	0.205069	0.206469				-0.001169	-0.000487	-0.004371				39.720732	-88.176430	-177.378948
00110	987098	9.806785	0.212577	0.225783				-0.004772	0.001426	-0.001526				39.716972	-88.176711	-177.374272
00111	987148	9.813281	0.215555	0.209331				-0.003565	-0.001431	-0.002960				39.744632	-88.176672	-177.403084
00112	987198	9.825137	0.222429	0.203489				-0.002540	-0.001446	-0.001513				39.758006	-88.177566	-177.414915
00113	987248	9.811657	0.209805	0.213470				-0.000826	0.002139	-0.001792				39.757733	-88.176912	-177.414960
00114	987298	9.823443	0.216217	0.220805				-0.002474	-0.001510	-0.003090				39.782445	-88.177516	-177.438097
00115	987348	9.819722	0.215570	0.207196				-0.004651	0.001821	0.000402				39.767777	-88.177305	-177.424824
00116	987398	9.814219	0.213784	0.215809				-0.007527	-0.002987	-0.002728				39.796954	-88.178783	-177.454144
00117	987448	9.802112	0.212595	0.211144				-0.002418	0.001855	-0.002782				39.804681	-88.177997	-177.462649
00118	987498	9.816257	0.220694	0.217759				-0.004504	-0.001284	-0.002407				39.823054	-88.178566	-177.479952
00119	987548	9.813666	0.221112	0.213244				-0.003143	0.001720	-0.000148				39.813345	-88.178085	-177.471084
00120	987598	9.805136	0.199997	0.208930				-0.001833	-0.000491	-0.001382				39.820214	-88.178977	-177.476319
00121	987648	9.810161	0.230930	0.219658				-0.002362	0.000280	0.000932				39.811268	-88.179150	-177.468086
00122	987698	9.812417	0.229610	0.204235				-0.003313	0.004038	-0.000937				39.788880	-88.179359	-177.444590
00123	987748	9.796264	0.226291	0.205613				-0.005309	-0.000071	-0.001337				39.797084	-88.179097	-177.454295
00124	987798	9.824812	0.208421	0.206208				0.002887	0.000137	-0.002547				39.810260	-88.179356	-177.464306
00125	987848	9.829329	0.206318	0.174052				-0.003682	0.000120	-0.001858				39.821140	-88.179229	-177.476395
00126	987898	9.822360	0.223339	0.188966				-0.004525	0.000621	-0.002334				39.827783	-88.180160	-177.482436
00127	987948	9.813450	0.218992	0.213958				-0.005154	0.001290	-0.001976				39.832398	-88.179703	-177.488643
00128	987998	9.813705	0.217533	0.213195				-0.004748	0.000028	-0.006633				39.872108	-88.178914	-177.527196
00129	988048	9.826281	0.202029	0.214343				-0.003322	0.001291	0.000136				39.862881	-88.178487	-177.518820
00130	988098	9.818663	0.220962	0.213483				-0.004177	0.001992	0.000144				39.844528	-88.179507	-177.499689
00131	988148	9.810857	0.215527	0.216577				-0.005275	0.001328	0.001076				39.827950	-88.179298	-177.484544
00132	988198	9.812772	0.202326	0.202686				-0.001350	0.001550	-0.000670				39.818347	-88.179930	-177.473182
00133	988248	9.826188	0.217808	0.196568				-0.006402	-0.000606	0.000617				39.815689	-88.180349	-177.472461
00134	988298	9.814331	0.220611	0.222385				-0.006541	0.000457	-0.001819				39.818863	-88.181155	-177.475453
00135	988348	9.806026	0.225190	0.208674				-0.005934	0.000532	-0.002461				39.831158	-88.180757	-177.489556
00136	988398	9.811864	0.218161	0.201470				-0.003596	-0.000101	0.000643				39.821698	-88.181548	-177.478727
00137	988448	9.823169	0.211100	0.197573				-0.005128	-0.000748	-0.002567				39.842438	-88.181117	-177.500873
00138	988498	9.818041	0.195555	0.211247				-0.005640	0.000948	-0.006373				39.874879	-88.180892	-177.532817
00139	988548	9.793530	0.222875	0.192509				-0.003707	0.002121	-0.002584				39.879301	-88.179886	-177.538260
00140	988598	9.811790	0.224890	0.199777				-0.003391	0.000417	-0.000478				39.874595	-88.180863	-177.532416
00141	988648	9.813770	0.233581	0.208380				-0.008073	-0.001831	-0.001087				39.890422	-88.181036	-177.550545
00142	988698	9.798971	0.223629	0.197222				-0.004702	0.001006	-0.003228				39.900929	-88.181065	-177.560113
00143	988748	9.820061	0.206582	0.208715				-0.004765	0.003172	-0.000907				39.887387	-88.180339	-177.548020
00144	988798	9.830972	0.212966	0.203023				-0.003048	-0.000484	-0.001155				39.892213	-88.181941	-177.551934
00145	988848	9.814960	0.212670	0.212910				0.000538	-0.002585	-0.002751				39.926344	-88.182037	-177.585946
00146	988898	9.807805	0.214229	0.212039				-0.004283	0.001114	-0.001206				39.922528	-88.182311	-177.580985
00147	988948	9.791968	0.228984	0.201309				-0.002854	-0.000777	-0.003979				39.953716	-88.181694	-177.612972
00148	988998	9.780688	0.232424	0.208424				-0.002531	0.002696	-0.000817				39.938247	-88.182132	-177.596117
00149	989048	9.801027	0.230286	0.197397				-0.003237	-0.001650	-0.001358				39.956339	-88.182204	-177.615117
00150	989098	9.816666	0.226442	0.217490				-0.004497	-0.000549	-0.004969				39.987888	-88.182447	-177.645808
00151	989148	9.797009	0.236917	0.217393				-0.001302	0.000802	-0.005582				40.021228	-88.181304	-177.679576
00152	989198	9.813353	0.216910	0.195070				-0.002380	0.002927	-0.000850				40.004810	-88.181566	-177.661687
00153	989248	9.825848	0.222464	0.203878				-0.004330	0.001559	-0.002555				40.012048	-88.180970	-177.670301
00154	989298	9.796713	0.218541	0.225519				-0.003579	0.000095	0.000612				40.001525	-88.181785	-177.658436
00155	989348	9.821631	0.200543	0.198248				-0.000145	0.006358	-0.000105				39.965218	-88.180465	-177.622210
00156	989398	9.816083	0.223032	0.203148				-0.006239	0.003342	0.000125				39.938781	-88.180533	-177.595198
00157	989448	9.814145	0.213459	0.188764				-0.002754	-0.000708	-0.001734				39.954089	-88.180242	-177.611225
00158	989498	9.802732	0.228449	0.194021				-0.004183	-0.002215	-0.001996				39.974759	-88.181933	-177.631257
00159	989548	9.816878	0.224942	0.185780				-0.001279	-0.002910	-0.001784				40.003792	-88.181937	-177.660477
00160	989598	9.806835	0.212713	0.218570				-0.006123	0.001532	-0.002389				40.004371	-88.182858	-177.661047
00161	989648	9.831450	0.202771	0.222981				-0.004423	0.001594	-0.001399				40.003378	-88.182372	-177.661400
00162	989698	9.817277	0.217669	0.213467				-0.003777	0.003185	-0.004053				40.007146	-88.181621	-177.663856
00163	989748	9.820216	0.220623	0.193545				-0.002927	0.000779	-0.001056				40.009236	-88.181051	-177.666655
00164	989798	9.814303	0.224914	0.217345				-0.000884	0.003113	-0.001593				39.997212	-88.181272	-177.652812
00165	989848	9.806735	0.204027	0.215399				-0.004485	-0.000236	0.004782				39.964172	-88.182261	-177.621075
00166	989898	9.798433	0.209812	0.220903				-0.002391	0.002145	-0.000921				39.952629	-88.182769	-177.608100
00167	989948	9.793026	0.233815	0.200333				-0.005766	0.002371	-0.003445				39.961224	-88.181296	-177.618153
00168	989998	9.809221	0.214875	0.200197				-0.006665	0.000189	-0.003513				39.977590	-88.181857	-177.634397
00169	990048	9.803947	0.252358	0.206859				-0.002428	-0.001127	-0.004207				40.012642	-88.181361	-177.670182
00170	990098	9.823110	0.223862	0.208470				-0.003973	-0.000829	-0.004335				40.041067	-88.182318	-177.697895
00171	990148	9.822475	0.222765	0.196086				-0.003151	0.000810	0.000708				40.030640	-88.182442	-177.688462
00172	990198	9.797732	0.210582	0.218213				-0.001481	-0.000591	-0.003534				40.053383	-88.182460	-177.709150
00173	990248	9.808702	0.208951	0.218910				-0.002979	0.000455	-0.000384				40.052611	-88.182272	-177.709220
00174	990298	9.813765	0.230073	0.204506				-0.003981	0.001233	-0.006504				40.084445	-88.181762	-177.739991
00175	990348	9.823668	0.214701	0.212582				-0.003122	0.000807	-0.001534				40.089615	-88.181163	-177.745978
00176	990398	9.828522	0.228348	0.207955				-0.005031	-0.000484	0.000419				40.083050	-88.182907	-177.738980
00177	990448	9.812650	0.222790	0.206942				-0.005302	0.000965	-0.001467				40.086073	-88.182374	-177.743493
00178	990498	9.839324	0.198747	0.216108				-0.004263	-0.001439	0.001215				40.080245	-88.183711	-177.736550
00179	990548	9.826260	0.221035	0.204536				-0.008003	0.004539	-0.000028				40.051852	-88.182530	-177.710323
00180	990598	9.810527	0.212538	0.224188				-0.000177	0.002119	-0.001056				40.041803	-88.183054	-177.698243
00181	990648	9.817286	0.204633	0.186320				-0.003905	0.002345	-0.000467				40.030317	-88.182376	-177.687825
00182	990698	9.821816	0.218580	0.195793				-0.007133	0.001124	-0.000432				40.019885	-88.183375	-177.677446
00183	990748	9.819292	0.213610	0.190396				-0.008141	0.002596	-0.001127				40.010216	-88.182658	-177.670146
00184	990798	9.800436	0.226228	0.211058				-0.002945	0.001823	0.003347				39.971047	-88.184103	-177.629732
00185	990848	9.819916	0.198656	0.198068				-0.006540	0.002491	-0.002991				39.975294	-88.183132	-177.635936
00186	990898	9.796552	0.218502	0.200201				-0.006992	-0.001756	-0.004421				40.009549	-88.183669	-177.669998
00187	990948	9.811255	0.216544	0.214066				-0.002059	-0.000600	-0.003823				40.038909	-88.183172	-177.700006
00188	990998	9.813102	0.222249	0.212208				-0.001884	0.001151	-0.002307				40.042797	-88.183157	-177.702041
00189	991048	9.802535	0.220212	0.230472				-0.002582	0.000879	-0.003394				40.060251	-88.182271	-177.720203
00190	991098	9.830307	0.211823	0.224097				-0.003248	0.002708	-0.003289				40.061320	-88.182558	-177.720330
00191	991148	9.824621	0.212868	0.216344				-0.004394	-0.000674	-0.003786				40.090178	-88.181960	-177.750429
00192	991198	9.822993	0.227694	0.218662				-0.002398	0.002208	-0.001818				40.084698	-88.181866	-177.743285
00193	991248	9.808822	0.228301	0.198975				-0.006209	-0.000736	-0.000670				40.091741	-88.181850	-177.752081
00194	991298	9.819085	0.219500	0.213280				-0.002377	-0.002708	-0.003836				40.128776	-88.182792	-177.787642
00195	991348	9.813634	0.223926	0.199273				-0.003717	0.003248	-0.003766				40.134639	-88.181586	-177.794696
00196	991398	9.797077	0.221942	0.184506				-0.004040	0.003865	0.001084				40.098996	-88.181962	-177.757998
00197	991448	9.814714	0.227616	0.209991				-0.002246	0.002040	-0.007238				40.136599	-88.179744	-177.795996
00198	991498	9.824738	0.212672	0.198682				-0.004484	0.001165	-0.004193				40.152673	-88.180095	-177.811394
00199	991548	9.822443	0.205459	0.198221				-0.004539	0.000104	-0.001793				40.163421	-88.179379	-177.823226
00200	991598	9.817975	0.215662	0.207399				-0.003115	0.002915	0.000912				40.134008	-88.180656	-177.792928
00201	991648	9.818583	0.231422	0.193275				-0.004539	0.004010	-0.003596				40.134216	-88.179181	-177.794476
00202	991698	9.810634	0.228634	0.213658				-0.005268	0.000600	-0.004932				40.158428	-88.179286	-177.818098
00203	991748	9.817095	0.205451	0.216232				-0.004493	0.002456	-0.004730				40.175458	-88.177762	-177.836356
00204	991798	9.813948	0.209082	0.217368				-0.003120	-0.002360	-0.000910				40.189944	-88.179201	-177.849616
00205	991848	9.797040	0.226903	0.220413				-0.000048	0.000928	-0.001508				40.195043	-88.178573	-177.854642
00206	991898	9.801119	0.225093	0.218956				-0.005165	0.002644	-0.002898				40.193302	-88.178813	-177.852397
00207	991948	9.796419	0.228215	0.241199				-0.002673	-0.001222	-0.002250				40.215034	-88.178895	-177.875045
00208	991998	9.811930	0.230402	0.230848				-0.003666	0.000997	0.000683				40.198915	-88.179480	-177.857547
00209	992048	9.825057	0.218108	0.212035				-0.005699	-0.001795	-0.001186				40.216165	-88.179578	-177.876389
00210	992098	9.819466	0.210139	0.209209				-0.003181	-0.001159	0.001501				40.206807	-88.181169	-177.865831
00211	992148	9.823483	0.207311	0.219992				-0.006644	-0.001425	-0.003398				40.236584	-88.180773	-177.897478
00212	992198	9.809305	0.199475	0.217418				-0.007331	0.000284	0.000592				40.223826	-88.182149	-177.884825
00213	992248	9.796779	0.218375	0.202654				-0.009260	0.000406	-0.002609				40.236647	-88.181829	-177.900463
00214	992298	9.813775	0.198737	0.188195				-0.001315	-0.000041	-0.005652				40.270856	-88.181858	-177.932898
00215	992348	9.823430	0.207285	0.187835				-0.004292	-0.001835	-0.000966				40.287233	-88.181864	-177.950381
00216	992398	9.811045	0.230534	0.180536				-0.002658	0.000296	-0.002632				40.298032	-88.182184	-177.959670
00217	992448	9.825283	0.232238	0.185727				-0.004279	-0.001084	-0.000840				40.309144	-88.182087	-177.971901
00218	992498	9.819981	0.218712	0.185342				-0.003203	0.002419	-0.001204				40.297584	-88.182385	-177.959081
00219	992548	9.815499	0.231790	0.190546				0.000677	0.000225	-0.000813				40.302073	-88.182303	-177.963455
00220	992598	9.816280	0.221927	0.199756				-0.004981	0.003269	0.002076				40.262202	-88.183418	-177.923074
00221	992648	9.813804	0.236895	0.184735				-0.010095	0.004625	-0.002360				40.248473	-88.181913	-177.912200
00222	992698	9.825108	0.222248	0.234192				-0.002072	0.002380	0.000457				40.226177	-88.182429	-177.888253
00223	992748	9.818363	0.222852	0.206396				-0.000088	0.001148	-0.001285				40.228318	-88.181880	-177.890385
00224	992798	9.827973	0.212099	0.215576				-0.007274	0.004843	0.001159				40.185072	-88.182230	-177.847151
00225	992848	9.818554	0.224397	0.210937				-0.006358	-0.000180	0.000200				40.182993	-88.182251	-177.846860
00226	992898	9.825439	0.207472	0.210402				-0.005135	-0.001460	-0.002310				40.201177	-88.183122	-177.864293
00227	992948	9.816519	0.223390	0.234124				-0.005730	-0.002860	-0.001485				40.226653	-88.183251	-177.891283
00228	992998	9.816705	0.214000	0.223142				-0.004067	-0.002730	-0.000492				40.239592	-88.185228	-177.903501
00229	993048	9.841301	0.205668	0.229243				-0.001757	-0.000618	0.000601				40.238426	-88.185612	-177.902917
00230	993098	9.829292	0.221741	0.212499				-0.003060	-0.002299	-0.002773				40.265711	-88.186272	-177.928684
00231	993148	9.788720	0.239088	0.193300				-0.001821	0.000244	-0.002435				40.280367	-88.185748	-177.943863
00232	993198	9.815482	0.210901	0.196584				-0.003736	-0.000111	-0.002820				40.294780	-88.186496	-177.957301
00233	993248	9.818726	0.206958	0.180971				-0.004245	0.000424	-0.005382				40.328376	-88.185104	-177.991947
00234	993298	9.800909	0.226510	0.172692				-0.004900	0.001292	-0.001945				40.328220	-88.185598	-177.991067
00235	993348	9.817827	0.198660	0.187926				-0.001627	-0.000875	-0.000067				40.333404	-88.185799	-177.996732
00236	993398	9.823656	0.222080	0.199910				-0.004801	0.001299	-0.001334				40.328618	-88.186215	-177.991105
00237	993448	9.813107	0.231545	0.191534				-0.003400	-0.001458	-0.000554				40.340123	-88.186411	-178.003581
00238	993498	9.814836	0.204114	0.199458				-0.006887	0.000387	-0.000111				40.331823	-88.187836	-177.995382
00239	993548	9.825062	0.214195	0.218890				-0.006671	0.002815	-0.001069				40.320702	-88.187160	-177.986253
00240	993598	9.820875	0.228422	0.213625				-0.005357	0.003842	-0.001416				40.301645	-88.187075	-177.966532
00241	993648	9.810279	0.259954	0.207681				-0.005288	0.000477	-0.001372				40.306873	-88.186488	-177.973142
00242	993698	9.805310	0.208005	0.228962				-0.004575	-0.001535	0.004294				40.280264	-88.188746	-177.945698
00243	993748	9.810291	0.206597	0.235939				-0.004967	0.000516	-0.001244				40.284569	-88.188340	-177.951384
00244	993798	9.815598	0.204367	0.229391				-0.006946	0.000257	-0.000147				40.277390	-88.189081	-177.943894
00245	993848	9.822842	0.195066	0.232203				-0.004476	-0.002263	-0.003374				40.312714	-88.188960	-177.980527
00246	993898	9.803085	0.203799	0.212705				-0.003555	0.000315	-0.000993				40.311684	-88.190033	-177.978520
00247	993948	9.812743	0.202367	0.193936				-0.003725	-0.000533	-0.002757				40.332616	-88.189734	-178.000586
00248	993998	9.843460	0.193683	0.212160				-0.001811	-0.003406	-0.002784				40.366924	-88.190630	-178.033010
00249	994048	9.837765	0.197298	0.202151				-0.005111	-0.001365	-0.003243				40.395980	-88.190404	-178.063587
00250	994098	9.812802	0.219602	0.188952				-0.004913	0.000379	-0.006761				40.433909	-88.190282	-178.100889
00251	994148	9.789772	0.239589	0.214003				-0.004200	0.002200	-0.006206				40.462602	-88.188616	-178.130782
00252	994198	9.802645	0.212073	0.190664				-0.003639	0.000695	-0.003971				40.480145	-88.189143	-178.147412
00253	994248	9.803318	0.226186	0.206690				-0.002956	-0.000386	-0.001761				40.493660	-88.188868	-178.161761
00254	994298	9.816058	0.232648	0.214569				-0.005822	0.001182	-0.000531				40.483840	-88.189502	-178.151425
00255	994348	9.815011	0.244730	0.203580				-0.001956	0.001342	-0.003520				40.499827	-88.188487	-178.167939
00256	994398	9.811769	0.238194	0.203838				0.001231	0.002050	-0.001025				40.490314	-88.189057	-178.156014
00257	994448	9.793987	0.247763	0.209391				-0.001936	0.001160	0.001992				40.469287	-88.189195	-178.135538
00258	994498	9.821679	0.238598	0.218125				-0.004730	0.001165	-0.000983				40.462780	-88.189832	-178.128244
00259	994548	9.816751	0.221189	0.201611				0.003068	-0.000308	0.000270				40.463718	-88.189749	-178.128176
00260	994598	9.829405	0.215351	0.207606				-0.004146	0.001857	-0.002266				40.462245	-88.190477	-178.126037
00261	994648	9.816512	0.199266	0.206318				-0.004555	-0.003447	0.001365				40.471788	-88.191436	-178.136870
00262	994698	9.800473	0.221780	0.213678				-0.001387	0.000682	-0.000419				40.465689	-88.192122	-178.128895
00263	994748	9.814511	0.187588	0.207559				-0.002053	-0.000398	0.001567				40.456827	-88.192375	-178.120537
00264	994798	9.805177	0.189679	0.210198				-0.002462	-0.002965	-0.001846				40.481165	-88.194148	-178.143685
00265	994848	9.820670	0.189422	0.209513				-0.002589	0.001007	-0.003200				40.496530	-88.193231	-178.159742
00266	994898	9.812428	0.220597	0.209296				-0.002746	-0.001095	-0.002251				40.513206	-88.194027	-178.174989
00267	994948	9.808382	0.215028	0.218895				-0.005464	0.000498	-0.006306				40.552386	-88.192548	-178.215624
00268	994998	9.827603	0.223558	0.214498				-0.002629	0.000424	-0.003079				40.565581	-88.193198	-178.227613
00269	995048	9.818611	0.224382	0.202618				-0.004196	0.002335	-0.002807				40.569865	-88.192338	-178.233206
00270	995098	9.799616	0.234855	0.210110				-0.001239	0.002171	-0.000151				40.552991	-88.192567	-178.214351
00271	995148	9.821198	0.225388	0.205456				-0.004225	0.002073	-0.004801				40.572584	-88.191212	-178.235158
00272	995198	9.819785	0.230268	0.192980				-0.003692	0.000405	-0.003046				40.585524	-88.191664	-178.247030
00273	995248	9.806780	0.223913	0.190903				-0.006767	0.001517	-0.003317				40.597452	-88.190763	-178.260936
00274	995298	9.819114	0.238169	0.208987				-0.006463	0.000203	0.000654				40.585040	-88.192174	-178.248368
00275	995348	9.821054	0.238391	0.202066				-0.000708	-0.000574	-0.002896				40.608118	-88.191790	-178.271676
00276	995398	9.810575	0.233347	0.212225				-0.007293	0.000118	-0.000918				40.607178	-88.192257	-178.270418
00277	995448	9.815021	0.232997	0.187764				-0.004300	0.002827	0.000500				40.585947	-88.191628	-178.250341
00278	995498	9.811376	0.213090	0.200922				-0.002182	0.002641	0.000334				40.562506	-88.192542	-178.225594
00279	995548	9.813198	0.203071	0.196559				-0.004386	-0.001000	-0.003498				40.591236	-88.192119	-178.255603
00280	995598	9.828121	0.211067	0.193468				-0.000080	0.003058	-0.000571				40.572462	-88.192204	-178.234541
00281	995648	9.802337	0.220817	0.183415				-0.003511	-0.001040	0.000351				40.575318	-88.192307	-178.238284
00282	995698	9.805344	0.209185	0.222043				-0.004968	-0.000552	-0.002083				40.586665	-88.193370	-178.249084
00283	995748	9.815382	0.204929	0.186587				-0.002991	0.003847	-0.001807				40.575404	-88.192196	-178.238676
00284	995798	9.810787	0.206295	0.195014				-0.004143	0.004895	-0.001542				40.551751	-88.191528	-178.213816
00285	995848	9.817737	0.214943	0.207527				-0.006775	-0.002129	0.000864				40.556142	-88.192266	-178.220221
00286	995898	9.819927	0.219530	0.191743				-0.003253	0.000095	0.000127				40.549178	-88.193291	-178.212023
00287	995948	9.814267	0.226069	0.207665				-0.004530	0.003048	-0.000684				40.534613	-88.192613	-178.198818
00288	995998	9.807679	0.215956	0.216322				-0.003233	0.001191	-0.003041				40.542275	-88.193310	-178.205545
00289	996048	9.823469	0.233422	0.207953				-0.004607	-0.002299	-0.005043				40.589419	-88.192848	-178.254023
00290	996098	9.799709	0.224343	0.218032				0.000130	0.002446	-0.002717				40.589317	-88.192468	-178.251457
00291	996148	9.788226	0.248418	0.216579				-0.006477	0.000553	-0.002745				40.603205	-88.191781	-178.267173
00292	996198	9.797884	0.235092	0.220703				-0.003679	0.003015	-0.006750				40.626001	-88.191095	-178.288975
00293	996248	9.811601	0.221860	0.224915				-0.005943	0.003757	-0.004139				40.630733	-88.189253	-178.295250
00294	996298	9.817439	0.218113	0.212642				-0.002575	0.002423	-0.005794				40.650389	-88.189207	-178.313833
00295	996348	9.810100	0.230804	0.216933				-0.004715	-0.003350	0.002234				40.653489	-88.190137	-178.318149
00296	996398	9.811682	0.221053	0.212878				-0.002037	-0.000078	-0.002860				40.668692	-88.190607	-178.331747
00297	996448	9.829174	0.216815	0.203964				0.001287	0.001211	-0.000228				40.663619	-88.190268	-178.326280
00298	996498	9.801991	0.219094	0.205745				-0.004367	-0.000412	-0.001538				40.670320	-88.191476	-178.332292
00299	996548	9.811914	0.208843	0.200644				-0.004257	0.000370	0.000007				40.666836	-88.191320	-178.329975
00300	996598	9.811876	0.219567	0.184154				-0.006433	0.001001	-0.003705				40.680040	-88.191150	-178.342675
00301	996648	9.813264	0.216809	0.197148				-0.002547	0.003952	-0.002964				40.676555	-88.189678	-178.339883
00302	996698	9.812716	0.223914	0.193764				-0.002398	0.003407	0.000177				40.649698	-88.190200	-178.311649
00303	996748	9.813982	0.208665	0.212909				-0.003646	0.002284	-0.001460				40.645245	-88.189328	-178.308176
00304	996798	9.813001	0.211328	0.212949				-0.006077	0.003112	-0.002222				40.635886	-88.189374	-178.298435
00305	996848	9.816663	0.224467	0.209227				-0.003722	-0.000499	-0.001986				40.651613	-88.189080	-178.315209
00306	996898	9.815337	0.213656	0.215311				-0.003183	0.001907	-0.000534				40.638159	-88.189586	-178.300517
00307	996948	9.812518	0.227841	0.217752				-0.005853	0.002018	-0.002385				40.641049	-88.188764	-178.305124
00308	996998	9.804638	0.222386	0.194458				-0.003975	-0.000665	-0.002500				40.656373	-88.189387	-178.319371
00309	997048	9.817420	0.235295	0.219360				-0.003204	0.000282	-0.003815				40.680046	-88.188586	-178.343959
00310	997098	9.823738	0.200740	0.229660				-0.003454	0.002057	-0.003294				40.684930	-88.188560	-178.347671
00311	997148	9.802524	0.233307	0.205045				-0.002555	0.000403	0.000712				40.677034	-88.188407	-178.340378
00312	997198	9.809541	0.234220	0.186078				-0.003073	0.001255	-0.003460				40.687903	-88.188525	-178.349964
00313	997248	9.820483	0.207060	0.204670				-0.005496	0.000662	-0.004479				40.712984	-88.187738	-178.376757
00314	997298	9.808512	0.230481	0.206507				-0.004745	0.003920	0.001276				40.675153	-88.188396	-178.338217
00315	997348	9.807680	0.206048	0.196870				0.000100	0.000089	-0.002091				40.689063	-88.187953	-178.352090
00316	997398	9.802916	0.222917	0.202160				-0.005814	-0.000045	0.000488				40.679270	-88.189315	-178.341948
00317	997448	9.815730	0.227904	0.198701				-0.004500	0.000846	-0.001433				40.682740	-88.189121	-178.346868
00318	997498	9.817602	0.229124	0.203034				-0.002918	0.001259	-0.004036				40.697486	-88.189033	-178.360245
00319	997548	9.799261	0.237695	0.185396				-0.004867	0.001092	-0.003354				40.712717	-88.187987	-178.376759
00320	997598	9.808386	0.225036	0.198762				-0.000418	-0.000864	-0.003862				40.739699	-88.188399	-178.401666
00321	997648	9.816236	0.215318	0.220083				-0.003012	0.001456	-0.001179				40.738177	-88.188005	-178.401103
00322	997698	9.820249	0.221784	0.212407				-0.001543	0.001842	0.001355				40.713169	-88.189011	-178.374420
00323	997748	9.808030	0.202745	0.223678				-0.006158	0.000854	0.000399				40.703738	-88.188859	-178.366726
00324	997798	9.827487	0.215682	0.209953				-0.005222	0.001846	0.003161				40.664573	-88.190421	-178.327084
00325	997848	9.838806	0.205226	0.210368				-0.003061	0.001104	0.000679				40.652574	-88.190329	-178.315969
00326	997898	9.818365	0.202087	0.210992				-0.001871	0.001963	0.000326				40.633458	-88.190739	-178.295065
00327	997948	9.806377	0.218908	0.227603				-0.003798	0.003521	0.004162				40.582863	-88.190717	-178.245509
00328	997998	9.824244	0.214140	0.197756				-0.006021	0.000106	-0.003714				40.601464	-88.191238	-178.263810
00329	998048	9.818670	0.177266	0.211205				-0.003614	0.002053	-0.003519				40.612508	-88.190084	-178.275861
00330	998098	9.819377	0.207634	0.228919				-0.002630	0.000391	-0.003528				40.629213	-88.190047	-178.290932
00331	998148	9.829327	0.196926	0.219129				-0.004824	0.001904	-0.002936				40.636796	-88.189111	-178.299923
00332	998198	9.804600	0.216496	0.212638				-0.002415	-0.001613	-0.005077				40.675380	-88.190016	-178.337356
00333	998248	9.814516	0.226650	0.205181				-0.006776	-0.000297	-0.003972				40.702515	-88.189430	-178.366503
00334	998298	9.811727	0.233162	0.182022				-0.003914	0.000434	-0.002917				40.714467	-88.189261	-178.377053
00335	998348	9.783527	0.247619	0.206514				-0.002219	-0.002740	-0.004407				40.760280	-88.188922	-178.423458
00336	998398	9.807932	0.226767	0.191540				-0.002078	-0.001862	-0.001871				40.779081	-88.190106	-178.440766
00337	998448	9.808414	0.250126	0.181749				-0.001326	-0.001258	-0.001293				40.794979	-88.190115	-178.457039
00338	998498	9.808696	0.224711	0.187237				-0.002390	-0.000315	-0.003084				40.812589	-88.190580	-178.473152
00339	998548	9.813511	0.229386	0.208183				-0.005621	0.005129	-0.000895				40.786721	-88.189248	-178.448847
00340	998598	9.821770	0.222050	0.197287				-0.001262	0.001844	-0.000413				40.773333	-88.190285	-178.433967
00341	998648	9.811266	0.225504	0.194075				-0.003399	0.003783	-0.000427				40.752910	-88.189466	-178.414558
00342	998698	9.808559	0.224966	0.210326				-0.005037	0.003946	0.001150				40.715205	-88.190219	-178.376351
00343	998748	9.836550	0.218823	0.201436				-0.006599	-0.001644	0.000163				40.721913	-88.190505	-178.384888
00344	998798	9.815655	0.202928	0.222675				-0.000300	-0.000342	-0.002830				40.738605	-88.191205	-178.399580
00345	998848	9.824243	0.212340	0.201161				-0.004073	0.002635	-0.001460				40.731985	-88.190281	-178.394074
00346	998898	9.822755	0.203290	0.230582				-0.002769	0.000979	-0.000638				40.725365	-88.190724	-178.385941
00347	998948	9.823206	0.192590	0.217185				-0.002362	0.002245	-0.000823				40.717141	-88.190042	-178.378362
00348	998998	9.813463	0.203749	0.229656				-0.004601	-0.000999	-0.002118				40.731540	-88.191134	-178.392060
00349	999048	9.809958	0.193856	0.200381				-0.003947	0.000729	-0.000247				40.727729	-88.190974	-178.389402
00350	999098	9.810272	0.230753	0.229132				-0.003840	-0.001925	-0.002282				40.748647	-88.192594	-178.409646
00351	999148	9.819156	0.223915	0.230463				-0.004105	0.004799	-0.001448				40.729255	-88.191066	-178.391288
00352	999198	9.802896	0.218234	0.213897				-0.005285	-0.000651	-0.000444				40.730126	-88.191664	-178.391180
00353	999248	9.811250	0.221929	0.203955				-0.005874	-0.002643	-0.004850				40.777274	-88.191498	-178.440145
00354	999298	9.795149	0.251368	0.206477				-0.003788	0.000337	-0.005029				40.803946	-88.191642	-178.465837
00355	999348	9.800905	0.228875	0.207178				-0.003227	-0.001202	-0.003818				40.836540	-88.191034	-178.499275
00356	999398	9.823647	0.225878	0.192898				-0.004109	0.000197	-0.006024				40.871040	-88.190798	-178.532756
00357	999448	9.809618	0.232974	0.175957				-0.002262	0.000787	-0.003169				40.887584	-88.189912	-178.549874
00358	999498	9.804680	0.226465	0.178704				-0.003438	0.001506	-0.003807				40.898915	-88.190201	-178.560212
00359	999548	9.797443	0.236875	0.172282				-0.003915	0.002667	-0.002321				40.898116	-88.188981	-178.560393
00360	999598	9.813269	0.226296	0.176327				-0.004920	0.004238	0.000544				40.862879	-88.189413	-178.524541
00361	999648	9.810047	0.226893	0.195202				-0.004844	0.000881	0.001968				40.842787	-88.189499	-178.505772
00362	999698	9.815289	0.221126	0.206949				-0.004507	0.002210	-0.000431				40.826707	-88.190136	-178.488909
00363	999748	9.821719	0.202998	0.204011				-0.005417	0.002708	-0.000816				40.814526	-88.189510	-178.478348
00364	999798	9.817566	0.200143	0.227463				-0.003373	0.000003	0.002183				40.794051	-88.190827	-178.456589
00365	999848	9.812332	0.194533	0.236256				-0.006844	0.003234	-0.001253				40.781520	-88.189820	-178.445973
00366	999898	9.806099	0.221824	0.242434				-0.001478	-0.000647	-0.003407				40.803469	-88.190361	-178.466197
00367	999948	9.822171	0.192811	0.242968				-0.005035	0.003656	-0.001898				40.793344	-88.189496	-178.457690
00368	999998	9.808971	0.203937	0.237177				-0.003415	0.000031	-0.002017				40.801521	-88.189628	-178.464365
00369	1000048	9.815655	0.203100	0.236640				-0.005355	-0.000750	-0.004065				40.832453	-88.188995	-178.496825
00370	1000098	9.831116	0.201196	0.203508				-0.002060	-0.001600	-0.004146				40.864600	-88.189965	-178.527645
00371	1000148	9.818222	0.202145	0.208272				-0.002313	-0.003731	-0.003549				40.910684	-88.189706	-178.574160
00372	1000198	9.807442	0.212450	0.196943				-0.004473	-0.001385	-0.006353				40.956461	-88.190239	-178.619303
00373	1000248	9.813408	0.215916	0.188780				-0.002173	0.000919	-0.005482				40.988057	-88.188764	-178.651379
00374	1000298	9.823372	0.221785	0.181961				-0.003518	-0.000006	-0.003330				41.005029	-88.189472	-178.667396
00375	1000348	9.817531	0.222552	0.162636				-0.004771	-0.000001	-0.005478				41.041348	-88.188420	-178.705081
00376	1000398	9.795204	0.247065	0.180592				-0.006092	-0.001632	-0.002721				41.062743	-88.189738	-178.726374
00377	1000448	9.800725	0.244790	0.178368				-0.003769	0.003228	-0.000843				41.048149	-88.189119	-178.713000
00378	1000498	9.820490	0.237655	0.192377				-0.002569	0.003895	-0.000715				41.024776	-88.188583	-178.687803
00379	1000548	9.816091	0.253665	0.217095				-0.002970	0.003336	-0.001167				41.011899	-88.187755	-178.675844
00380	1000598	9.802837	0.244090	0.223142				-0.002070	0.002223	-0.000499				40.996992	-88.187967	-178.659195
00381	1000648	9.806218	0.240772	0.221602				-0.005064	-0.000186	0.002544				40.979212	-88.188274	-178.642725
00382	1000698	9.808476	0.226622	0.232248				-0.002450	0.003486	0.003263				40.930811	-88.189672	-178.593172
00383	1000748	9.817159	0.221245	0.225693				-0.004081	0.000861	-0.002493				40.941343	-88.189160	-178.604974
00384	1000798	9.823066	0.210789	0.215557				-0.004552	-0.000278	-0.000413				40.940327	-88.189641	-178.602749
00385	1000848	9.805031	0.205578	0.215404				-0.007083	0.000581	-0.000463				40.938185	-88.189135	-178.602449
00386	1000898	9.819908	0.189473	0.190408				-0.000808	-0.000235	0.001793				40.921887	-88.191124	-178.584599
00387	1000948	9.810703	0.180762	0.194709				-0.001935	-0.001036	0.001635				40.916469	-88.191408	-178.579574
00388	1000998	9.820951	0.195552	0.202920				-0.003469	0.000741	-0.000636				40.910232	-88.192677	-178.572486
00389	1001048	9.814888	0.181177	0.172035				-0.004699	0.001398	0.001044				40.893627	-88.192291	-178.557049
00390	1001098	9.820809	0.199270	0.179377				-0.005868	-0.001400	-0.000608				40.899615	-88.193758	-178.562709
00391	1001148	9.836270	0.199124	0.182963				-0.005425	0.002939	-0.001263				40.889307	-88.192724	-178.553849
00392	1001198	9.806008	0.221403	0.179000				-0.005083	-0.001233	-0.003912				40.917273	-88.193498	-178.581261
00393	1001248	9.817561	0.223063	0.195048				-0.003038	0.003807	-0.008059				40.949270	-88.191019	-178.614050
00394	1001298	9.817603	0.237442	0.197386				-0.001476	0.001355	-0.004709				40.968144	-88.190989	-178.631279
00395	1001348	9.797391	0.239281	0.228395				-0.002377	0.000499	-0.003684				40.989740	-88.190317	-178.653650
00396	1001398	9.788807	0.249502	0.248866				-0.001343	0.003489	-0.002515				40.981190	-88.189905	-178.643174
00397	1001448	9.805365	0.255231	0.254280				-0.003980	0.001968	0.000404				40.965607	-88.189586	-178.628748
00398	1001498	9.802642	0.245813	0.251131				-0.002835	0.000077	-0.000060				40.960200	-88.190685	-178.622035
00399	1001548	9.817207	0.232508	0.233299				-0.002396	-0.000824	-0.001321				40.973515	-88.190552	-178.635998
00400	1001598	9.803760	0.238663	0.238871				-0.005951	0.000345	-0.000916				40.971346	-88.191377	-178.633399
00401	1001648	9.810108	0.238399	0.213865				-0.004260	-0.002337	0.001760				40.971993	-88.192224	-178.635273
00402	1001698	9.813859	0.220964	0.180315				-0.001892	-0.002495	0.000113				40.980674	-88.193880	-178.642366
00403	1001748	9.809349	0.215262	0.190675				-0.004462	-0.001343	-0.000063				40.987958	-88.194043	-178.650858
00404	1001798	9.830637	0.195658	0.176321				-0.003760	0.002771	-0.002004				40.979120	-88.194226	-178.641011
00405	1001848	9.829649	0.185074	0.164673				0.000194	-0.000779	-0.001714				40.995516	-88.193963	-178.657283
00406	1001898	9.821029	0.195821	0.189733				-0.006512	0.000493	-0.002071				41.000299	-88.194722	-178.661922
00407	1001948	9.818230	0.204186	0.162883				-0.002893	0.001657	-0.002489				41.006691	-88.193918	-178.669163
00408	1001998	9.827912	0.215518	0.190986				-0.003196	0.004499	-0.000422				40.977270	-88.193693	-178.638368
00409	1002048	9.798816	0.221116	0.187512				-0.004939	0.002852	-0.000296				40.961179	-88.192856	-178.623575
00410	1002098	9.809002	0.219643	0.200089				-0.003689	0.002676	-0.001232				40.947445	-88.193727	-178.609135
00411	1002148	9.817255	0.233026	0.224026				-0.001871	0.002800	-0.002614				40.948465	-88.192343	-178.610509
00412	1002198	9.830153	0.224910	0.235459				-0.006689	0.002135	-0.004435				40.959325	-88.192068	-178.621126
00413	1002248	9.805415	0.233015	0.251838				-0.000925	0.002568	-0.000306				40.946006	-88.191341	-178.607997
00414	1002298	9.817238	0.218609	0.256939				-0.002378	0.005098	-0.000677				40.915117	-88.191052	-178.575532
00415	1002348	9.794249	0.224549	0.226452				-0.005989	0.000145	-0.003255				40.934928	-88.190226	-178.596955
00416	1002398	9.793842	0.214823	0.234524				-0.001272	-0.004806	0.001004				40.951229	-88.192771	-178.611678
00417	1002448	9.808051	0.217868	0.203419				-0.003492	-0.000451	0.000131				40.951846	-88.193100	-178.613433
00418	1002498	9.808106	0.206107	0.218210				-0.004698	-0.002931	-0.000458				40.966527	-88.194473	-178.627178
00419	1002548	9.822425	0.202314	0.181031				-0.004515	-0.001800	-0.001542				40.986605	-88.194583	-178.648566
00420	1002598	9.816812	0.195347	0.178006				-0.004932	0.002594	-0.000297				40.966975	-88.195224	-178.628322
00421	1002648	9.834843	0.197192	0.186495				-0.001328	-0.001322	-0.002642				40.992627	-88.195054	-178.654396
00422	1002698	9.825643	0.226935	0.189211				-0.001676	0.000806	-0.002148				40.997500	-88.195005	-178.657282
00423	1002748	9.823029	0.200408	0.164774				-0.002180	0.001545	0.000712				40.982861	-88.194749	-178.643224
00424	1002798	9.819637	0.237515	0.176533				-0.005979	0.001049	-0.002262				40.985191	-88.195889	-178.645590
00425	1002848	9.814510	0.233733	0.205326				-0.003294	0.001998	-0.005151				41.007558	-88.194613	-178.668991
00426	1002898	9.816619	0.231579	0.214887				-0.005291	0.001752	-0.000462				40.994203	-88.194802	-178.654766
00427	1002948	9.794309	0.242921	0.217455				-0.004876	0.003856	-0.001411				40.979405	-88.193627	-178.641311
00428	1002998	9.784946	0.243087	0.230006				-0.002728	0.004960	0.000064				40.943891	-88.193888	-178.604588
00429	1003048	9.799940	0.242248	0.232935				-0.001376	0.001490	-0.002139				40.949394	-88.193127	-178.610456
00430	1003098	9.805401	0.235328	0.211907				-0.005072	0.002945	-0.002255				40.940829	-88.193248	-178.601303
00431	1003148	9.810584	0.213814	0.224705				-0.003771	0.000255	-0.000375				40.940732	-88.193077	-178.602257
00432	1003198	9.799403	0.213226	0.225222				-0.000602	-0.000793	-0.001130				40.948477	-88.194185	-178.608093
00433	1003248	9.820263	0.202639	0.222305				-0.001128	-0.001414	-0.001617				40.967631	-88.194099	-178.627523
00434	1003298	9.825983	0.195443	0.198057				-0.003412	0.000132	0.000323				40.958509	-88.195320	-178.617335
00435	1003348	9.826400	0.180457	0.200010				-0.005335	0.002003	-0.000337				40.947344	-88.194895	-178.607739
00436	1003398	9.826554	0.199015	0.214359				-0.002470	0.001407	-0.002236				40.948775	-88.195190	-178.607735
00437	1003448	9.798122	0.216575	0.193646				-0.004750	0.000590	-0.001813				40.956299	-88.194666	-178.616582
00438	1003498	9.815903	0.192373	0.177750				-0.003705	-0.000105	-0.002147				40.965817	-88.195303	-178.625001
00439	1003548	9.839487	0.211539	0.176648				0.000530	0.000253	-0.007673				41.017206	-88.193771	-178.676245
00440	1003598	9.813623	0.220010	0.183217				-0.003775	-0.001010	-0.004239				41.046467	-88.194125	-178.704376
00441	1003648	9.798656	0.231296	0.193939				-0.003558	0.003386	-0.003985				41.052472	-88.192687	-178.711429
00442	1003698	9.804903	0.236395	0.213020				-0.007427	0.001824	-0.007735				41.087700	-88.191791	-178.746616
00443	1003748	9.789834	0.247223	0.201635				-0.001272	0.001036	-0.003778				41.107113	-88.190688	-178.766293
00444	1003798	9.795112	0.238275	0.212555				-0.004409	-0.000117	-0.003358				41.124679	-88.191118	-178.782995
00445	1003848	9.801573	0.236881	0.210848				-0.002885	-0.001209	0.003427				41.107554	-88.192029	-178.766689
00446	1003898	9.830545	0.224750	0.210712				-0.004543	0.000241	-0.001921				41.113179	-88.193034	-178.771705
00447	1003948	9.805681	0.253616	0.205773				-0.003222	0.000199	0.000232				41.109468	-88.193044	-178.768921
00448	1003998	9.807793	0.237094	0.204768				-0.006025	-0.002600	-0.000326				41.120715	-88.194443	-178.779680
00449	1004048	9.826155	0.212018	0.213202				-0.004173	0.000798	0.000332				41.112594	-88.194408	-178.772792
00450	1004098	9.819201	0.214279	0.217548				-0.003562	0.000612	-0.000989				41.109912	-88.195074	-178.768955
00451	1004148	9.823046	0.199119	0.202440				-0.002529	0.001570	0.000679				41.095225	-88.194850	-178.754978
00452	1004198	9.811093	0.201999	0.204093				-0.000989	0.000567	0.001540				41.076105	-88.196083	-178.733984
00453	1004248	9.825953	0.193482	0.205705				-0.001512	-0.000677	-0.002313				41.095627	-88.195663	-178.753861
00454	1004298	9.810405	0.201196	0.202718				-0.005446	0.000183	-0.004287				41.117458	-88.196143	-178.775295
00455	1004348	9.822536	0.190485	0.226169				-0.004472	0.003084	-0.001676				41.109313	-88.195073	-178.768371
00456	1004398	9.808333	0.198336	0.196514				-0.003922	0.002866	-0.002707				41.105175	-88.194424	-178.762866
00457	1004448	9.827139	0.203438	0.225918				-0.003815	0.002281	-0.005340				41.127068	-88.192894	-178.785846
00458	1004498	9.822072	0.220300	0.202801				-0.002889	-0.002712	-0.003799				41.163246	-88.194303	-178.821051
00459	1004548	9.832454	0.227751	0.203289				0.000551	0.001101	-0.003017				41.177542	-88.193335	-178.835089
00460	1004598	9.809989	0.235037	0.201186				-0.005077	-0.002035	-0.000708				41.188683	-88.194462	-178.845420
00461	1004648	9.829977	0.215284	0.205159				-0.003267	-0.000608	0.000322				41.189079	-88.194776	-178.846837
00462	1004698	9.801805	0.234009	0.217849				-0.003680	0.003389	-0.002252				41.178156	-88.195028	-178.835042
00463	1004748	9.810383	0.232815	0.218149				-0.002629	-0.003243	0.003064				41.175815	-88.196299	-178.833449
00464	1004798	9.801550	0.234168	0.219700				-0.005200	0.000133	0.001422				41.159286	-88.197522	-178.816240
00465	1004848	9.797725	0.255925	0.217898				-0.002719	0.002734	0.002585				41.124403	-88.197367	-178.782078
00466	1004898	9.815272	0.225911	0.213135				-0.004537	-0.000988	-0.000765				41.129048	-88.198921	-178.786170
00467	1004948	9.818996	0.211798	0.217272				-0.002786	-0.000235	0.003111				41.108216	-88.199601	-178.766150
00468	1004998	9.804945	0.208114	0.184235				-0.001161	-0.001149	0.001694				41.098656	-88.200778	-178.754518
00469	1005048	9.824410	0.206982	0.197241				-0.002131	-0.000878	0.001822				41.090970	-88.201000	-178.747239
00470	1005098	9.803326	0.221214	0.189973				-0.001269	-0.002295	-0.004121				41.127768	-88.202025	-178.782435
00471	1005148	9.819988	0.194765	0.206065				-0.002258	0.001992	-0.001405				41.124944	-88.201132	-178.780131
00472	1005198	9.828399	0.195075	0.193076				-0.001983	0.003454	0.000434				41.095425	-88.201897	-178.749294
00473	1005248	9.813168	0.211440	0.197584				-0.000739	-0.000602	-0.002189				41.113939	-88.201520	-178.767965
00474	1005298	9.832347	0.203201	0.192806				-0.001935	0.001973	0.000492				41.093570	-88.202489	-178.746159
00475	1005348	9.803129	0.209694	0.206821				-0.004958	0.002498	-0.000203				41.078538	-88.202068	-178.732638
00476	1005398	9.812408	0.231235	0.203156				-0.004464	0.000890	-0.000757				41.071982	-88.202548	-178.725071
00477	1005448	9.823893	0.203678	0.211781				-0.004075	0.002902	0.000565				41.049613	-88.202063	-178.703878
00478	1005498	9.804812	0.226600	0.208277				-0.004462	0.001856	-0.000846				41.038040	-88.202583	-178.691454
00479	1005548	9.804304	0.217254	0.193371				-0.005394	0.000066	0.001038				41.029060	-88.202814	-178.684042
00480	1005598	9.825022	0.209643	0.208283				-0.002623	-0.001367	0.003137				41.010007	-88.204597	-178.663482
00481	1005648	9.825713	0.213539	0.204546				-0.003485	-0.000675	0.001090				41.005614	-88.205063	-178.660154
00482	1005698	9.815048	0.227402	0.207048				-0.004905	0.001688	-0.000242				40.990558	-88.205463	-178.644209
00483	1005748	9.819993	0.229444	0.211756				-0.004692	0.001652	-0.004439				41.010005	-88.204315	-178.665034
00484	1005798	9.817284	0.222793	0.201919				-0.001743	-0.001296	-0.002061				41.026403	-88.205217	-178.679782
00485	1005848	9.803860	0.232574	0.195506				-0.003821	-0.003139	0.002300				41.028555	-88.205987	-178.682806
00486	1005898	9.804231	0.221806	0.195266				-0.003280	-0.000396	-0.004973				41.059134	-88.206266	-178.712232
00487	1005948	9.812053	0.225489	0.195174				-0.006607	-0.001577	-0.002271				41.082306	-88.206318	-178.737395
00488	1005998	9.825487	0.217878	0.193812				-0.002023	0.002408	-0.004771				41.095261	-88.205726	-178.748655
00489	1006048	9.803785	0.218135	0.199816				-0.002200	-0.000979	-0.000580				41.104734	-88.205684	-178.758673
00490	1006098	9.807631	0.218061	0.194107				-0.001861	0.000543	-0.001892				41.108612	-88.206428	-178.761036
00491	1006148	9.831851	0.222922	0.194963				-0.002755	0.003171	-0.005177				41.124394	-88.204554	-178.777479
00492	1006198	9.818161	0.231663	0.196462				-0.003170	0.003463	-0.002191				41.113001	-88.204828	-178.765083
00493	1006248	9.800821	0.239531	0.210309				-0.002594	-0.000498	-0.000064				41.115608	-88.204819	-178.768364
00494	1006298	9.822496	0.212768	0.188247				-0.001398	0.000333	0.000896				41.101961	-88.205898	-178.752958
00495	1006348	9.803803	0.228060	0.214253				-0.004017	0.002094	0.000499				41.084593	-88.205659	-178.736808
00496	1006398	9.825643	0.214601	0.214400				-0.000905	0.002957	0.000653				41.056790	-88.206701	-178.707427
00497	1006448	9.801258	0.229886	0.199144				-0.000524	0.002317	0.002357				41.026609	-88.206666	-178.677390
00498	1006498	9.809072	0.225863	0.214418				-0.002721	0.001332	-0.001977				41.026486	-88.206637	-178.675651
00499	1006548	9.816746	0.197376	0.224689				-0.002909	0.000037	-0.003526				41.049712	-88.205964	-178.699719
00500	1006598	9.809099	0.203978	0.215378				-0.007880	-0.000628	-0.002266				41.062095	-88.206677	-178.712188
00501	1006648	9.820460	0.210095	0.214438				-0.006937	0.000974	-0.001875				41.067243	-88.206204	-178.719388
00502	1006698	9.827651	0.215943	0.195662				-0.002408	0.001533	-0.001947				41.065651	-88.206384	-178.716213
00503	1006748	9.808195	0.211373	0.193369				-0.003774	0.002356	-0.001744				41.062479	-88.205655	-178.714192
00504	1006798	9.829199	0.197469	0.213908				-0.003710	0.000793	-0.006375				41.095644	-88.205112	-178.746144
00505	1006848	9.801408	0.229915	0.212276				-0.007235	-0.000045	-0.004540				41.125207	-88.204187	-178.777743
00506	1006898	9.813598	0.211888	0.204174				-0.002168	0.001856	-0.005540				41.146324	-88.204154	-178.797591
00507	1006948	9.805078	0.226163	0.205175				-0.004200	0.003572	-0.001642				41.135012	-88.203149	-178.787526
00508	1006998	9.808956	0.215182	0.216649				-0.000942	0.001757	-0.002655				41.137619	-88.203116	-178.788116
00509	1007048	9.810619	0.239734	0.205784				-0.005306	0.000034	-0.001366				41.145347	-88.202688	-178.797258
00510	1007098	9.812134	0.238955	0.193179				-0.004619	0.003926	0.000384				41.113111	-88.202993	-178.764213
00511	1007148	9.806394	0.234192	0.207476				-0.002714	0.001145	-0.001788				41.117730	-88.202603	-178.769739
00512	1007198	9.815629	0.217629	0.210775				-0.003517	-0.000903	-0.000483				41.120211	-88.203782	-178.771108
00513	1007248	9.824540	0.222966	0.182716				-0.005358	-0.001492	-0.002953				41.147784	-88.203659	-178.800309
00514	1007298	9.807192	0.224187	0.213678				-0.003773	-0.001044	-0.002724				41.167194	-88.204132	-178.818483
00515	1007348	9.834509	0.212922	0.209750				-0.005431	-0.000035	-0.001436				41.175803	-88.204006	-178.828740
00516	1007398	9.816995	0.211973	0.193337				-0.004850	0.000914	-0.000086				41.164275	-88.204964	-178.816536
00517	1007448	9.803517	0.213500	0.213232				-0.003742	0.000989	-0.003870				41.183690	-88.204156	-178.837120
00518	1007498	9.810830	0.202380	0.208546				-0.003308	0.003012	0.001783				41.147447	-88.204956	-178.799727
00519	1007548	9.817338	0.200650	0.199428				-0.006228	0.006324	0.002193				41.092370	-88.204183	-178.746524
00520	1007598	9.804275	0.214292	0.204414				-0.000020	0.001097	-0.000674				41.085769	-88.204332	-178.737490
00521	1007648	9.814773	0.212102	0.205701				-0.005106	0.005879	-0.003813				41.075272	-88.202303	-178.728429
00522	1007698	9.815336	0.217683	0.219921				-0.004406	0.001685	-0.005981				41.100011	-88.202180	-178.752508
00523	1007748	9.808419	0.222336	0.211738				-0.000930	-0.000636	-0.002541				41.121082	-88.201736	-178.773787
00524	1007798	9.809728	0.216058	0.205056				-0.001924	-0.000618	-0.002477				41.136164	-88.202274	-178.787172
00525	1007848	9.819726	0.216629	0.204544				-0.003728	-0.000298	-0.002373				41.153340	-88.201858	-178.805401
00526	1007898	9.812303	0.215476	0.213959				-0.003731	0.001964	-0.001524				41.145758	-88.202564	-178.796984
00527	1007948	9.793665	0.220300	0.214562				-0.003825	0.002601	-0.004983				41.163342	-88.201055	-178.815668
00528	1007998	9.793866	0.229873	0.200116				0.000115	-0.000329	-0.002255				41.175737	-88.201469	-178.825718
00529	1008048	9.800344	0.236309	0.218025				-0.002164	-0.000943	-0.000003				41.180731	-88.201643	-178.831318
00530	1008098	9.799472	0.229273	0.219485				-0.004321	-0.001928	-0.003018				41.206934	-88.202869	-178.856856
00531	1008148	9.834002	0.227165	0.185281				-0.002275	-0.000051	-0.005515				41.244543	-88.201673	-178.895029
00532	1008198	9.797769	0.241060	0.201058				-0.005337	-0.001938	-0.000676				41.254414	-88.202907	-178.904257
00533	1008248	9.811050	0.206316	0.203612				-0.001121	-0.002673	-0.001173				41.278368	-88.203289	-178.928556
00534	1008298	9.816678	0.208383	0.212997				-0.005355	0.000807	-0.000146				41.267692	-88.204415	-178.917475
00535	1008348	9.822593	0.224251	0.187791				-0.002280	0.001733	0.000526				41.252851	-88.204417	-178.903454
00536	1008398	9.804268	0.212531	0.209166				-0.003096	0.000235	0.001543				41.235241	-88.205425	-178.884403
00537	1008448	9.804782	0.213194	0.201291				-0.005469	-0.000007	-0.003007				41.254291	-88.204833	-178.905013
00538	1008498	9.816692	0.213077	0.201080				-0.005569	0.004521	0.000386				41.218077	-88.204824	-178.868147
00539	1008548	9.812799	0.207936	0.186874				-0.003377	0.002044	0.001812				41.192477	-88.204562	-178.843399
00540	1008598	9.817800	0.202954	0.197339				-0.004229	-0.000693	-0.001252				41.198992	-88.205440	-178.848963
00541	1008648	9.832294	0.203303	0.201641				-0.003801	0.000928	-0.001308				41.201388	-88.205086	-178.852508
00542	1008698	9.831355	0.196232	0.213362				-0.001813	0.001188	-0.001087				41.196148	-88.205816	-178.845750
00543	1008748	9.837244	0.212051	0.192006				-0.002550	0.001019	-0.001822				41.201779	-88.205390	-178.852201
00544	1008798	9.787941	0.238396	0.217656				-0.000045	-0.000170	-0.002922				41.217766	-88.205567	-178.865853
00545	1008848	9.819226	0.218484	0.204314				-0.004692	-0.000149	0.000647				41.213017	-88.205594	-178.862367
00546	1008898	9.804142	0.218837	0.216285				-0.001077	-0.002799	0.000819				41.218926	-88.207523	-178.866534
00547	1008948	9.816280	0.226819	0.201673				-0.001483	-0.001322	-0.001583				41.237595	-88.207294	-178.885498
00548	1008998	9.822503	0.223055	0.205050				-0.002138	0.001222	-0.001148				41.232249	-88.208168	-178.878827
00549	1009048	9.820050	0.226213	0.209498				-0.003130	-0.002967	0.000117				41.248456	-88.208901	-178.895982
00550	1009098	9.813233	0.231975	0.222328				-0.005645	-0.000495	-0.003649				41.270001	-88.209449	-178.917106
00551	1009148	9.814193	0.233875	0.215954				-0.003475	-0.003939	0.001685				41.281157	-88.210873	-178.929426
00552	1009198	9.826703	0.226405	0.172417				-0.003848	-0.000491	-0.002085				41.292722	-88.211229	-178.939697
00553	1009248	9.803875	0.233763	0.190232				-0.005639	-0.000622	-0.001852				41.307807	-88.210796	-178.956260
00554	1009298	9.810085	0.240445	0.174909				-0.000146	0.001094	-0.000353				41.298393	-88.211882	-178.944985
00555	1009348	9.787885	0.242758	0.218102				-0.000566	0.000185	0.000547				41.293412	-88.211941	-178.940158
00556	1009398	9.811011	0.209888	0.202268				-0.006574	0.002826	-0.000485				41.272688	-88.212073	-178.919041
00557	1009448	9.799184	0.226001	0.195528				-0.001117	0.000398	-0.000705				41.274699	-88.212078	-178.921519
00558	1009498	9.816923	0.218259	0.191922				-0.003137	0.002395	-0.001877				41.267528	-88.212168	-178.913043
00559	1009548	9.787177	0.211714	0.202561				-0.002388	0.000021	-0.001150				41.274585	-88.212071	-178.920872
00560	1009598	9.810490	0.206466	0.217524				-0.003733	0.000131	0.001642				41.256418	-88.213474	-178.901686
00561	1009648	9.832057	0.204507	0.198063				-0.001717	0.003399	0.001364				41.225725	-88.213314	-178.871671
00562	1009698	9.806408	0.198195	0.200082				-0.005765	0.000607	0.000915				41.209385	-88.213946	-178.854552
00563	1009748	9.805453	0.211406	0.212395				-0.002567	0.002662	-0.003159				41.214498	-88.212784	-178.860413
00564	1009798	9.810482	0.207641	0.215193				-0.000711	0.000434	-0.004009				41.234431	-88.212816	-178.878321
00565	1009848	9.802099	0.225118	0.227171				-0.004711	0.002398	-0.002772				41.237846	-88.211647	-178.883002
00566	1009898	9.801136	0.212759	0.214044				-0.003140	0.001327	-0.002246				41.239107	-88.212303	-178.883222
00567	1009948	9.810626	0.210390	0.187329				-0.005385	0.000544	-0.001568				41.244893	-88.211972	-178.890613
00568	1009998	9.819705	0.214386	0.212173				-0.002044	-0.002048	-0.003772				41.277884	-88.212806	-178.922104
00569	1010048	9.822803	0.214493	0.212969				-0.001404	-0.000070	-0.006235				41.320996	-88.211506	-178.965549
00570	1010098	9.799853	0.239464	0.213530				-0.004737	-0.000506	-0.000005				41.318037	-88.212549	-178.961741
00571	1010148	9.817648	0.220308	0.225915				-0.008482	0.001302	-0.001044				41.315042	-88.211892	-178.961058
00572	1010198	9.813339	0.227548	0.213403				-0.002289	-0.002244	-0.001016				41.329911	-88.213434	-178.974612
00573	1010248	9.798377	0.230201	0.201957				-0.006247	-0.002867	-0.003988				41.372947	-88.213453	-179.019559
00574	1010298	9.818208	0.217019	0.178177				-0.005253	-0.000484	0.000028				41.369401	-88.214301	-179.015193
00575	1010348	9.815395	0.226224	0.193244				-0.005834	-0.001595	-0.001742				41.389558	-88.214322	-179.037037
00576	1010398	9.838777	0.202041	0.194629				-0.003781	0.000450	-0.000901				41.386689	-88.215261	-179.033250
00577	1010448	9.823072	0.210632	0.175553				-0.003131	0.002431	-0.000441				41.374259	-88.214523	-179.021624
00578	1010498	9.828280	0.215534	0.209810				-0.006284	0.000329	-0.005132				41.400738	-88.214403	-179.047689
00579	1010548	9.815060	0.214928	0.193100				-0.001288	0.001360	-0.003978				41.419714	-88.213382	-179.067051
00580	1010598	9.819533	0.203999	0.223273				-0.002772	0.001981	-0.002149				41.416296	-88.213908	-179.062493
00581	1010648	9.829454	0.215403	0.212208				0.000041	0.001298	0.001304				41.399398	-88.213708	-179.045463
00582	1010698	9.819262	0.202944	0.230520				-0.007387	0.004262	-0.000807				41.372283	-88.213518	-179.018231
00583	1010748	9.795197	0.217004	0.202775				-0.002928	0.000983	0.000161				41.364615	-88.213208	-179.011305
00584	1010798	9.806458	0.218790	0.227586				-0.005933	-0.000469	-0.002535				41.378256	-88.214025	-179.024635
00585	1010848	9.819362	0.209369	0.201506				-0.002088	0.001405	-0.005229				41.405015	-88.212816	-179.052053
00586	1010898	9.807480	0.219676	0.214938				-0.006846	-0.000064	-0.002530				41.415630	-88.213617	-179.062677
00587	1010948	9.815117	0.222706	0.205903				-0.002556	-0.001728	-0.000274				41.427214	-88.214064	-179.075082
00588	1010998	9.807937	0.219135	0.218731				-0.002121	-0.000460	-0.003088				41.446408	-88.214099	-179.092403
00589	1011048	9.827111	0.211066	0.216234				-0.003606	0.000061	-0.000487				41.448164	-88.214152	-179.095292
00590	1011098	9.830957	0.220968	0.228722				-0.006469	0.000297	-0.002788				41.458992	-88.214802	-179.105990
00591	1011148	9.808297	0.221262	0.194753				-0.001751	-0.000236	-0.005302				41.496505	-88.213874	-179.144036
00592	1011198	9.809254	0.222175	0.192339				-0.006384	0.000722	-0.002621				41.503580	-88.213784	-179.150493
00593	1011248	9.805816	0.226527	0.199923				-0.002863	0.001816	-0.001601				41.502560	-88.213353	-179.150463
00594	1011298	9.795021	0.237648	0.190213				-0.002033	-0.002307	-0.002297				41.527005	-88.214483	-179.173385
00595	1011348	9.786977	0.243696	0.208520				-0.003543	0.000060	-0.001933				41.539029	-88.213839	-179.186254
00596	1011398	9.813365	0.232660	0.199088				-0.003568	0.001574	-0.004842				41.556556	-88.213839	-179.202828
00597	1011448	9.815061	0.246224	0.205780				-0.000323	0.001507	-0.002344				41.563480	-88.213087	-179.209858
00598	1011498	9.818736	0.226349	0.191400				-0.003245	0.000614	-0.002152				41.568351	-88.213741	-179.213629
00599	1011548	9.816651	0.217096	0.199858				-0.004727	0.004311	-0.001291				41.549539	-88.212649	-179.196220
00600	1011598	9.796807	0.234836	0.214928				-0.002516	-0.000854	0.001496				41.539129	-88.214119	-179.184339
00601	1011648	9.800725	0.197931	0.194611				-0.005084	-0.000536	0.003812				41.514316	-88.215332	-179.161217
00602	1011698	9.815619	0.206477	0.194378				-0.000666	0.002540	0.001316				41.485017	-88.215895	-179.129871
00603	1011748	9.805406	0.213939	0.214694				-0.003596	-0.000329	-0.002287				41.501676	-88.215557	-179.147592
00604	1011798	9.811857	0.216192	0.206700				-0.004856	-0.000829	0.001309				41.491851	-88.216698	-179.136810
00605	1011848	9.795677	0.234551	0.206397				-0.003190	0.003171	-0.002457				41.488518	-88.215552	-179.134391
00606	1011898	9.811066	0.206480	0.200826				-0.003869	0.003958	-0.006077				41.500021	-88.214802	-179.145028
00607	1011948	9.818745	0.230766	0.218218				-0.003655	-0.000222	0.002206				41.485175	-88.215053	-179.131084
00608	1011998	9.823995	0.210393	0.219949				-0.003448	0.002869	-0.005030				41.496559	-88.214718	-179.141453
00609	1012048	9.823938	0.195159	0.221323				-0.004734	0.001911	-0.004449				41.514189	-88.213300	-179.160339
00610	1012098	9.820034	0.200140	0.225900				-0.005646	-0.000363	-0.000230				41.511289	-88.214392	-179.156935
00611	1012148	9.823372	0.226488	0.211021				-0.004111	0.000926	0.000516				41.501009	-88.214381	-179.147883
00612	1012198	9.805023	0.230222	0.204908				-0.004132	0.000310	-0.002216				41.508176	-88.215085	-179.154194
00613	1012248	9.822420	0.211645	0.202885				-0.008513	0.002433	0.000376				41.488370	-88.214646	-179.136815
00614	1012298	9.799778	0.242709	0.219774				-0.007521	0.000448	0.000231				41.477179	-88.215138	-179.125343
00615	1012348	9.814808	0.223810	0.215136				-0.001085	0.000197	-0.003956				41.503061	-88.214219	-179.151470
00616	1012398	9.827679	0.235375	0.189436				-0.008260	0.000570	0.002284				41.476453	-88.215815	-179.125249
00617	1012448	9.813316	0.214695	0.205320				-0.004246	0.002758	-0.003804				41.484539	-88.214578	-179.134610
00618	1012498	9.814898	0.228575	0.191401				-0.007167	0.001390	-0.000466				41.472607	-88.215195	-179.122577
00619	1012548	9.829299	0.213959	0.201096				-0.003583	-0.002650	0.000267				41.485820	-88.215809	-179.136818
00620	1012598	9.813386	0.227891	0.206003				-0.001949	0.000414	-0.000549				41.481509	-88.216576	-179.130890
00621	1012648	9.796508	0.232702	0.191204				-0.003085	-0.000289	-0.002635				41.500278	-88.216352	-179.150698
00622	1012698	9.818977	0.221274	0.200448				-0.005257	-0.000846	-0.004914				41.532813	-88.216805	-179.182739
00623	1012748	9.809076	0.230081	0.205070				-0.003694	-0.000530	-0.004207				41.563753	-88.216261	-179.214846
00624	1012798	9.813509	0.219091	0.203389				-0.005127	0.000817	0.001286				41.543918	-88.216836	-179.193998
00625	1012848	9.814607	0.226087	0.204626				-0.004835	0.002300	-0.002810				41.547778	-88.216006	-179.199372
00626	1012898	9.827558	0.198636	0.205945				-0.006270	-0.000826	0.000543				41.542179	-88.217410	-179.193488
00627	1012948	9.834355	0.204371	0.213383				-0.004895	0.003302	-0.001975				41.534280	-88.216264	-179.186949
00628	1012998	9.821416	0.213560	0.207177				-0.004977	0.000647	-0.003623				41.548960	-88.216614	-179.201035
00629	1013048	9.813047	0.205590	0.190045				-0.003298	0.002623	-0.000282				41.533977	-88.215973	-179.186971
00630	1013098	9.815888	0.217100	0.207640				-0.004687	-0.000644	-0.004688				41.564172	-88.215991	-179.216227
00631	1013148	9.817575	0.218357	0.201473				-0.002136	0.001058	-0.002605				41.574979	-88.215241	-179.227638
00632	1013198	9.823784	0.198215	0.200710				-0.003500	-0.000194	0.000153				41.569227	-88.216527	-179.220848
00633	1013248	9.806578	0.219455	0.206557				-0.006055	0.002804	0.000148				41.549382	-88.215808	-179.202628
00634	1013298	9.824983	0.209199	0.216286				-0.004290	0.001311	-0.002855				41.554736	-88.216490	-179.207403
00635	1013348	9.810699	0.222645	0.227397				-0.002504	0.001466	-0.004331				41.574769	-88.215460	-179.228237
00636	1013398	9.797743	0.229136	0.191248				-0.004637	0.002374	-0.000020				41.554304	-88.215313	-179.206518
00637	1013448	9.811251	0.225702	0.207636				-0.004796	-0.001864	-0.000012				41.564639	-88.215533	-179.218116
00638	1013498	9.815608	0.220264	0.208091				-0.003420	-0.001772	0.000145				41.568316	-88.217529	-179.220999
00639	1013548	9.827565	0.222779	0.194824				-0.003352	-0.001872	0.000048				41.578550	-88.217779	-179.232093
00640	1013598	9.810044	0.210120	0.204878				-0.004894	0.002007	-0.003741				41.585770	-88.217762	-179.238643
00641	1013648	9.806059	0.211207	0.192694				-0.003129	0.002073	-0.001889				41.585188	-88.217016	-179.238992
00642	1013698	9.818219	0.208194	0.196024				-0.005535	0.003224	-0.002809				41.578466	-88.216746	-179.231664
00643	1013748	9.806752	0.218524	0.218670				-0.006393	0.004483	0.001600				41.538467	-88.215964	-179.193397
00644	1013798	9.801229	0.229900	0.202828				-0.002535	0.003995	0.001331				41.499137	-88.216515	-179.152727
00645	1013848	9.796320	0.228920	0.191574				-0.002784	0.003338	-0.002777				41.497157	-88.215193	-179.151488
00646	1013898	9.849935	0.194978	0.214685				-0.004693	0.000141	-0.000133				41.490935	-88.216100	-179.144434
00647	1013948	9.796056	0.233872	0.224134				-0.005591	0.002995	-0.002934				41.491448	-88.214856	-179.146521
00648	1013998	9.803188	0.220045	0.214967				-0.009368	0.000831	-0.001874				41.491423	-88.215476	-179.147132
00649	1014048	9.801534	0.226483	0.199847				-0.005962	-0.000433	-0.001027				41.499662	-88.215225	-179.156988
00650	1014098	9.818072	0.234051	0.206140				-0.003140	-0.003613	0.000522				41.512280	-88.217131	-179.168375
00651	1014148	9.811219	0.213065	0.201728				-0.005124	-0.000875	-0.005008				41.550468	-88.216641	-179.208236
00652	1014198	9.812236	0.218908	0.216926				-0.003852	-0.003266	0.001902				41.551304	-88.218328	-179.207768
00653	1014248	9.813094	0.229179	0.211582				-0.005479	0.001812	0.000752				41.533368	-88.218382	-179.191591
00654	1014298	9.809770	0.222556	0.185702				-0.005992	0.001308	-0.002559				41.536446	-88.218509	-179.194151
00655	1014348	9.805140	0.224417	0.198026				-0.003324	-0.004139	-0.002721				41.579389	-88.218919	-179.238095
00656	1014398	9.814421	0.226886	0.194258				-0.005387	0.000452	-0.001472				41.580643	-88.219593	-179.238764
00657	1014448	9.815907	0.239530	0.197363				-0.002577	-0.001377	-0.003804				41.614643	-88.219125	-179.273497
00658	1014498	9.800882	0.222126	0.198401				-0.006659	0.000365	-0.000408				41.608304	-88.219975	-179.266902
00659	1014548	9.799925	0.234086	0.214392				-0.003722	-0.001726	-0.004502				41.648835	-88.219539	-179.308552
00660	1014598	9.808399	0.226063	0.206574				-0.006601	0.002166	-0.005022				41.663191	-88.219579	-179.322936
00661	1014648	9.809249	0.233522	0.209392				-0.008614	0.002363	-0.001998				41.660206	-88.218424	-179.322240
00662	1014698	9.800382	0.251321	0.181157				-0.000391	-0.000141	0.000122				41.655155	-88.219642	-179.315265
00663	1014748	9.822444	0.225286	0.209302				-0.003245	-0.001688	-0.006175				41.707243	-88.218677	-179.368211
00664	1014798	9.817575	0.201515	0.197910				-0.004801	0.000267	-0.001476				41.709564	-88.219395	-179.369792
00665	1014848	9.812076	0.219018	0.203964				-0.003201	0.002760	0.002384				41.675468	-88.219156	-179.336524
00666	1014898	9.813252	0.221021	0.202914				-0.004623	0.000954	0.000775				41.658240	-88.219938	-179.318351
00667	1014948	9.824002	0.217924	0.202448				-0.006116	0.004346	-0.002286				41.645617	-88.218488	-179.307422
00668	1014998	9.817792	0.219484	0.203458				-0.003295	0.003296	-0.002331				41.635553	-88.218818	-179.296467
00669	1015048	9.801866	0.212083	0.214507				-0.001913	0.001892	-0.005068				41.658346	-88.217438	-179.319819
00670	1015098	9.815257	0.206448	0.215800				-0.003011	0.001556	-0.001633				41.654316	-88.217498	-179.314302
00671	1015148	9.814676	0.201736	0.204167				-0.000823	0.001881	-0.005485				41.680246	-88.216048	-179.340484
00672	1015198	9.809448	0.201833	0.202220				-0.009713	-0.000565	-0.003007				41.696807	-88.216615	-179.357697
00673	1015248	9.809185	0.218705	0.210357				-0.002588	-0.000497	0.001820				41.686675	-88.217044	-179.348282
00674	1015298	9.805950	0.216575	0.198892				-0.000658	0.000949	-0.003378				41.699123	-88.217216	-179.358809
00675	1015348	9.831808	0.206571	0.197585				-0.006461	0.000613	-0.007442				41.744612	-88.215575	-179.406117
00676	1015398	9.808156	0.231533	0.197677				-0.000913	0.000948	-0.001193				41.742018	-88.216135	-179.401632
00677	1015448	9.803191	0.224250	0.205869				-0.003208	0.001619	-0.001696				41.742822	-88.215492	-179.403375
00678	1015498	9.813404	0.226548	0.205048				-0.002512	-0.000378	-0.004372				41.769726	-88.215650	-179.428777
00679	1015548	9.807279	0.220484	0.207176				-0.006093	-0.003604	-0.002842				41.809653	-88.215872	-179.470469
00680	1015598	9.806793	0.221698	0.205738				0.000772	-0.002807	-0.002054				41.835951	-88.217575	-179.494748
00681	1015648	9.819288	0.213307	0.205123				-0.007025	0.002713	-0.003704				41.842572	-88.216491	-179.503519
00682	1015698	9.820616	0.226044	0.195146				-0.006132	-0.001408	-0.002316				41.860636	-88.217418	-179.521262
00683	1015748	9.829577	0.213800	0.196625				-0.002810	0.001077	-0.002438				41.869840	-88.216662	-179.531238
00684	1015798	9.816453	0.222451	0.221345				-0.005871	0.001868	0.000527				41.848373	-88.217297	-179.509224
00685	1015848	9.825397	0.221595	0.200439				-0.006218	-0.000571	-0.002666				41.868510	-88.216813	-179.531089
00686	1015898	9.800638	0.226821	0.190090				-0.004825	0.002140	-0.001913				41.862222	-88.217081	-179.524076
00687	1015948	9.817956	0.221917	0.210589				-0.005101	0.001847	0.000682				41.844831	-88.216682	-179.508054
00688	1015998	9.816868	0.216056	0.204999				-0.004429	-0.000039	0.001856				41.826100	-88.218017	-179.488405
00689	1016048	9.793557	0.230898	0.209445				-0.001629	-0.000713	-0.001425				41.839855	-88.217923	-179.502647
00690	1016098	9.814905	0.213774	0.218988				-0.005111	-0.000192	-0.002281				41.850221	-88.218622	-179.512402
00691	1016148	9.826518	0.242730	0.208246				-0.001891	0.003680	-0.001176				41.835393	-88.217354	-179.497933
00692	1016198	9.804509	0.213138	0.208056				-0.000102	0.002413	-0.004491				41.846225	-88.217106	-179.506730
00693	1016248	9.813193	0.223671	0.206829				-0.003118	0.004914	-0.002996				41.835663	-88.215514	-179.497083
00694	1016298	9.820137	0.237704	0.211089				-0.005418	0.003482	-0.004021				41.835334	-88.215456	-179.496461
00695	1016348	9.812411	0.223913	0.217514				-0.003242	-0.000220	-0.000292				41.837471	-88.215782	-179.499756
00696	1016398	9.822719	0.227672	0.198920				-0.005329	-0.003430	-0.002780				41.871514	-88.216627	-179.532962
00697	1016448	9.828288	0.207538	0.185902				-0.004445	0.003147	-0.002809				41.870318	-88.215323	-179.532974
00698	1016498	9.808725	0.224238	0.197670				-0.002262	0.001053	-0.001895				41.871350	-88.215653	-179.532452
00699	1016548	9.818463	0.228978	0.191597				-0.001419	0.000381	-0.004819				41.901680	-88.214464	-179.563076
00700	1016598	9.822509	0.206287	0.198829				-0.003815	0.002642	-0.000826				41.885502	-88.214834	-179.545898
00701	1016648	9.818749	0.220199	0.201342				-0.004096	-0.002757	0.000208				41.899919	-88.215428	-179.561466
00702	1016698	9.833846	0.208672	0.209792				-0.006381	0.001562	-0.002010				41.897303	-88.215655	-179.558528
00703	1016748	9.815054	0.228098	0.204790				-0.003667	-0.002005	0.000627				41.904271	-88.216159	-179.566516
00704	1016798	9.789082	0.245549	0.211430				-0.002792	0.000658	-0.001443				41.904730	-88.216891	-179.565736
00705	1016848	9.796249	0.219133	0.221885				-0.005282	-0.001615	0.000793				41.907637	-88.217390	-179.570161
00706	1016898	9.823986	0.209042	0.224088				-0.002057	-0.002367	-0.001468				41.926755	-88.218686	-179.587784
00707	1016948	9.813964	0.221080	0.203641				-0.005241	-0.000968	-0.001162				41.939151	-88.218520	-179.601594
00708	1016998	9.820234	0.220493	0.191152				-0.007074	0.000863	-0.006118				41.968894	-88.218469	-179.631410
00709	1017048	9.811046	0.220443	0.176410				-0.006219	0.003932	0.001178				41.934704	-88.218129	-179.599168
00710	1017098	9.832585	0.214556	0.209026				-0.002785	-0.000308	0.001240				41.922639	-88.219154	-179.585562
00711	1017148	9.812306	0.218173	0.207908				-0.005192	-0.000747	-0.003306				41.948284	-88.219019	-179.612934
00712	1017198	9.822790	0.215812	0.211895				-0.001356	-0.002388	-0.001720				41.969650	-88.219906	-179.632347
00713	1017248	9.808345	0.213149	0.203513				-0.004679	0.003630	0.000147				41.944826	-88.219339	-179.608970
00714	1017298	9.797921	0.203301	0.215490				-0.005890	0.002612	0.000852				41.916774	-88.220024	-179.580499
00715	1017348	9.812296	0.234537	0.215625				-0.001153	0.001693	0.000323				41.903787	-88.219876	-179.567929
00716	1017398	9.817923	0.199386	0.184792				-0.002030	0.005002	-0.002293				41.883490	-88.218840	-179.545687
00717	1017448	9.814804	0.213811	0.197833				-0.004814	-0.000347	-0.001477				41.894384	-88.218648	-179.557980
00718	1017498	9.819143	0.224272	0.206425				-0.001423	-0.001528	-0.006114				41.940530	-88.218888	-179.602446
00719	1017548	9.812377	0.228793	0.213292				-0.006241	0.002175	-0.004221				41.954319	-88.217734	-179.618108
00720	1017598	9.820756	0.228711	0.205934				-0.001867	-0.000230	-0.001616				41.961189	-88.218645	-179.623482
00721	1017648	9.810618	0.243915	0.196876				-0.000139	-0.001138	-0.001466				41.978051	-88.218816	-179.640536
00722	1017698	9.807485	0.221179	0.211340				-0.000722	0.001013	-0.002927				41.987488	-88.218675	-179.647783
00723	1017748	9.803878	0.224612	0.208989				-0.005554	0.000967	0.000519				41.976325	-88.218545	-179.638194
00724	1017798	9.818895	0.225917	0.204534				-0.006402	0.000170	-0.001887				41.981562	-88.219427	-179.643306
00725	1017848	9.824576	0.198439	0.186770				-0.002335	-0.001493	0.001621				41.978785	-88.220355	-179.641402
00726	1017898	9.811460	0.214722	0.196243				-0.006688	0.000205	-0.000154				41.972128	-88.221156	-179.634417
00727	1017948	9.814636	0.211881	0.190244				-0.005988	0.002179	-0.003836				41.983101	-88.220277	-179.647318
00728	1017998	9.809165	0.221653	0.208265				-0.001814	0.002161	-0.002372				41.980900	-88.220343	-179.643476
00729	1018048	9.817217	0.234170	0.189719				-0.002804	0.001781	-0.002851				41.988408	-88.219590	-179.651913
00730	1018098	9.818376	0.214392	0.195772				-0.003756	0.002676	-0.002395				41.982900	-88.218989	-179.644955
00731	1018148	9.825245	0.216807	0.197383				-0.001401	0.002264	-0.001121				41.976536	-88.217741	-179.638619
00732	1018198	9.801420	0.232479	0.205930				-0.005494	0.004134	-0.000843				41.950121	-88.218050	-179.611844
00733	1018248	9.815626	0.207070	0.192571				-0.006471	-0.002804	-0.003669				41.990558	-88.217971	-179.654174
00734	1018298	9.818085	0.220389	0.232629				-0.004884	0.001111	0.000548				41.973837	-88.219284	-179.636988
00735	1018348	9.822189	0.228473	0.204957				-0.003903	-0.000719	-0.001483				41.987271	-88.219240	-179.651604
00736	1018398	9.828690	0.208597	0.196458				-0.005501	0.004096	-0.003926				41.982639	-88.218312	-179.646183
00737	1018448	9.812557	0.219235	0.202507				-0.005281	0.001324	-0.002044				41.986926	-88.217444	-179.651858
00738	1018498	9.806582	0.233130	0.217758				-0.004526	-0.000280	-0.001638				41.994217	-88.217764	-179.658010
00739	1018548	9.825586	0.213639	0.186995				-0.001232	-0.000191	-0.001523				42.005374	-88.217650	-179.669620
00740	1018598	9.803378	0.229790	0.202935				-0.002527	0.001171	-0.004910				42.026126	-88.217973	-179.689289
00741	1018648	9.805433	0.200743	0.199330				-0.004133	0.000013	-0.005261				42.060922	-88.216857	-179.725213
00742	1018698	9.817149	0.199175	0.194445				-0.003418	-0.000808	0.000379				42.057239	-88.218237	-179.720462
00743	1018748	9.817235	0.237267	0.218670				-0.003421	-0.000711	-0.000618				42.064909	-88.218114	-179.729016
00744	1018798	9.801191	0.233270	0.202763				-0.004330	0.001566	-0.002975				42.069472	-88.218377	-179.732772
00745	1018848	9.831194	0.233874	0.201092				-0.001715	0.000257	0.000278				42.065374	-88.218316	-179.729124
00746	1018898	9.820104	0.233919	0.224021				-0.004914	0.002780	-0.004862				42.075370	-88.218229	-179.738672
00747	1018948	9.807789	0.225762	0.230269				-0.005974	0.000186	0.000902				42.066276	-88.218380	-179.731298
00748	1018998	9.823187	0.219085	0.217764				-0.003662	0.001937	-0.000636				42.053257	-88.218009	-179.716618
00749	1019048	9.810032	0.214994	0.196453				-0.002250	-0.000338	-0.001805				42.067096	-88.217878	-179.731202
00750	1019098	9.812250	0.211284	0.191418				-0.005905	-0.000204	-0.000355				42.063995	-88.218764	-179.727564
00751	1019148	9.817039	0.201501	0.206014				-0.003091	0.000171	0.001922				42.048672	-88.219299	-179.713258
00752	1019198	9.835029	0.209567	0.208580				-0.002950	0.000852	0.000926				42.031505	-88.220416	-179.694845
00753	1019248	9.807545	0.210138	0.184560				-0.007457	0.004292	-0.000325				42.005172	-88.219298	-179.670543
00754	1019298	9.804605	0.212540	0.193108				-0.002541	-0.002308	-0.000118				42.014417	-88.221462	-179.678843
00755	1019348	9.802851	0.229132	0.213007				-0.002770	0.000817	-0.002888				42.028534	-88.220515	-179.693610
00756	1019398	9.806798	0.236135	0.214439				-0.004447	-0.000332	0.004135				41.996294	-88.222280	-179.660415
00757	1019448	9.798833	0.231396	0.202566				-0.003082	0.001684	-0.002529				42.002404	-88.221187	-179.667248
00758	1019498	9.808021	0.221565	0.200094				-0.005958	0.001310	-0.003871				42.014090	-88.221515	-179.678740
00759	1019548	9.825518	0.215946	0.194059				-0.006641	0.003719	-0.002512				42.006600	-88.220055	-179.673023
00760	1019598	9.816650	0.236597	0.199275				0.001210	-0.002438	-0.001505				42.027635	-88.221686	-179.691841
00761	1019648	9.804884	0.238956	0.209933				-0.005168	0.001778	-0.003231				42.037093	-88.220818	-179.702878
00762	1019698	9.804111	0.226783	0.206069				-0.007876	0.000542	0.001357				42.017447	-88.221706	-179.683168
00763	1019748	9.802674	0.235195	0.189971				-0.004081	-0.002148	-0.001524				42.040215	-88.221603	-179.706937
00764	1019798	9.803329	0.225425	0.220456				-0.006662	0.001531	-0.000980				42.030834	-88.222572	-179.697629
00765	1019848	9.804673	0.220235	0.204289				-0.003292	-0.002810	-0.001011				42.054324	-88.222881	-179.722013
00766	1019898	9.816442	0.214975	0.199961				-0.003158	-0.001973	-0.000194				42.061569	-88.224236	-179.728005
00767	1019948	9.801659	0.238731	0.192435				-0.002793	-0.000322	-0.002269				42.078391	-88.223761	-179.745572
00768	1019998	9.796851	0.251615	0.214025				-0.006146	0.000198	-0.005016				42.105406	-88.223743	-179.772167
00769	1020048	9.810153	0.220011	0.205331				-0.004474	0.001268	-0.000974				42.103051	-88.222988	-179.770884
00770	1020098	9.803709	0.224361	0.198741				-0.003982	0.003056	-0.000131				42.078871	-88.223936	-179.746121
00771	1020148	9.813775	0.219030	0.200261				-0.006760	0.000449	-0.003286				42.096795	-88.223023	-179.765866
00772	1020198	9.815751	0.248446	0.206048				-0.004187	0.002109	-0.004115				42.106009	-88.222732	-179.774086
00773	1020248	9.798175	0.228064	0.200394				-0.003669	0.001122	-0.001524				42.108428	-88.222028	-179.777447
00774	1020298	9.819454	0.203459	0.198124				-0.004946	-0.000101	-0.002878				42.122878	-88.222673	-179.791301
00775	1020348	9.804651	0.218220	0.213758				-0.004929	0.000285	-0.002872				42.139430	-88.222038	-179.809253
00776	1020398	9.812387	0.229708	0.209653				-0.002850	0.002585	-0.002352				42.133730	-88.222320	-179.802417
00777	1020448	9.834534	0.214494	0.201837				-0.001941	-0.000789	-0.000384				42.140848	-88.222396	-179.810081
00778	1020498	9.822239	0.226002	0.201936				-0.000978	0.000874	-0.004165				42.158710	-88.222539	-179.826167
00779	1020548	9.799687	0.231095	0.221044				-0.002924	0.003979	-0.001285				42.142243	-88.221307	-179.810438
00780	1020598	9.813645	0.213063	0.194334				-0.002810	0.002468	0.001145				42.113228	-88.222317	-179.780261
00781	1020648	9.813498	0.208539	0.188738				-0.003143	0.000611	-0.002779				42.127930	-88.221292	-179.795623
00782	1020698	9.803147	0.212002	0.198505				-0.003398	0.002646	-0.002510				42.122785	-88.221294	-179.789334
00783	1020748	9.831973	0.210052	0.200873				-0.003250	-0.000299	-0.004390				42.153645	-88.220696	-179.821268
00784	1020798	9.808504	0.215786	0.210854				-0.002426	0.002272	-0.003672				42.159500	-88.220280	-179.825520
00785	1020848	9.806635	0.216492	0.203707				-0.001796	0.001541	-0.002393				42.165886	-88.219228	-179.832238
00786	1020898	9.815230	0.216637	0.200255				-0.002103	0.000143	-0.001946				42.172782	-88.220094	-179.837784
00787	1020948	9.822285	0.215371	0.217126				-0.005767	0.005570	-0.003548				42.160756	-88.218475	-179.827574
00788	1020998	9.835093	0.202556	0.211956				-0.003318	0.003966	-0.004461				42.161069	-88.217696	-179.826644
00789	1021048	9.808406	0.225764	0.206011				-0.003856	-0.001110	-0.001565				42.177722	-88.217339	-179.844210
00790	1021098	9.809665	0.245008	0.195048				-0.004071	0.002395	-0.006261				42.199546	-88.217031	-179.865336
00791	1021148	9.802516	0.220925	0.205644				-0.002000	0.000791	-0.002877				42.213748	-88.216127	-179.879994
00792	1021198	9.792406	0.218828	0.227712				-0.003372	-0.001270	-0.002723				42.234889	-88.216656	-179.899838
00793	1021248	9.833386	0.215279	0.194448				-0.000646	0.002757	-0.001714				42.229436	-88.215599	-179.894474
00794	1021298	9.814860	0.206681	0.203254				-0.003736	0.004119	-0.004140				42.226483	-88.215195	-179.890628
00795	1021348	9.819715	0.230865	0.215350				-0.005178	0.002389	0.000636				42.205748	-88.214924	-179.871445
00796	1021398	9.806396	0.224965	0.186881				-0.004108	-0.000080	0.001550				42.189809	-88.216460	-179.854673
00797	1021448	9.819201	0.225082	0.196140				-0.005384	0.000376	-0.002868				42.205494	-88.215831	-179.871910
00798	1021498	9.791045	0.217942	0.218635				-0.003655	0.001666	-0.002287				42.205137	-88.215819	-179.870303
00799	1021548	9.816321	0.209460	0.192754				-0.006134	-0.003354	-0.003275				42.246297	-88.216027	-179.913332
00800	1021598	9.803183	0.235415	0.184317				-0.002307	0.003829	0.000124				42.216435	-88.216091	-179.881899
00801	1021648	9.807320	0.206516	0.191010				-0.004959	0.000155	-0.003579				42.238323	-88.215370	-179.905228
00802	1021698	9.801720	0.208330	0.206757				-0.005214	-0.002012	-0.002751				42.263602	-88.216401	-179.929943
00803	1021748	9.804997	0.219716	0.192197				0.001088	0.001790	-0.001019				42.259690	-88.216003	-179.925837
00804	1021798	9.814876	0.205129	0.203110				-0.001764	-0.000103	0.000902				42.249303	-88.216985	-179.913653
00805	1021848	9.804326	0.228439	0.206166				-0.003766	0.004321	-0.000769				42.226404	-88.216229	-179.892035
00806	1021898	9.811636	0.218763	0.238426				-0.008149	0.002746	-0.005162				42.237650	-88.215903	-179.903647
00807	1021948	9.806703	0.234670	0.195064				-0.002249	0.000789	-0.001884				42.245048	-88.215411	-179.911713
00808	1021998	9.817116	0.210671	0.214440				-0.004350	0.002436	-0.001002				42.230995	-88.215539	-179.896641
00809	1022048	9.825727	0.209070	0.212482				-0.003207	0.000541	-0.003551				42.250987	-88.214579	-179.917450
00810	1022098	9.808316	0.211611	0.211344				-0.004826	0.002398	-0.000711				42.235356	-88.214672	-179.900873
00811	1022148	9.804829	0.223427	0.212502				-0.000218	0.000274	-0.002307				42.249128	-88.214296	-179.914797
00812	1022198	9.810339	0.220430	0.213013				-0.005058	0.000417	-0.001363				42.249731	-88.215065	-179.914795
00813	1022248	9.827642	0.218824	0.191308				-0.000665	0.000433	-0.001024				42.253958	-88.214731	-179.919178
00814	1022298	9.814425	0.219481	0.208120				-0.003403	-0.004297	0.001426				42.265263	-88.216806	-179.929249
00815	1022348	9.816894	0.212184	0.209171				-0.003891	0.001317	0.001140				42.248240	-88.216825	-179.913383
00816	1022398	9.827486	0.214904	0.186092				-0.003591	0.000635	-0.002170				42.253434	-88.217275	-179.917481
00817	1022448	9.829973	0.215771	0.204998				-0.000640	0.001623	-0.000407				42.246091	-88.216812	-179.910290
00818	1022498	9.798212	0.209625	0.192825				-0.001682	-0.002207	-0.001959				42.268197	-88.218061	-179.930849
00819	1022548	9.817441	0.220327	0.220175				-0.001017	0.000588	0.001100				42.256745	-88.218063	-179.919622
00820	1022598	9.834932	0.211847	0.219769				-0.002734	-0.001257	-0.002151				42.273546	-88.219175	-179.935229
00821	1022648	9.820626	0.215967	0.214110				-0.004124	-0.000758	-0.000055				42.277388	-88.219233	-179.940192
00822	1022698	9.809088	0.207845	0.209350				-0.002510	-0.000960	-0.000576				42.282375	-88.220050	-179.943573
00823	1022748	9.803596	0.207302	0.212127				-0.005379	0.002546	-0.000999				42.271890	-88.219338	-179.934638
00824	1022798	9.807970	0.223507	0.204443				-0.003244	0.002170	0.003578				42.228273	-88.220571	-179.889798
00825	1022848	9.795808	0.221118	0.213056				-0.002899	0.001301	0.000467				42.216453	-88.220223	-179.878691
00826	1022898	9.820840	0.207342	0.197698				-0.003129	0.005262	-0.002979				42.198615	-88.219739	-179.859727
00827	1022948	9.821025	0.222975	0.212925				-0.006623	0.001094	-0.003023				42.210458	-88.218940	-179.873484
00828	1022998	9.812616	0.229869	0.210042				-0.003573	-0.001279	-0.004713				42.245124	-88.218917	-179.906765
00829	1023048	9.813061	0.214371	0.207893				-0.004145	-0.002091	-0.001414				42.266628	-88.219081	-179.929462
00830	1023098	9.819044	0.215190	0.200471				-0.002696	-0.000152	0.001286				42.252809	-88.221299	-179.914884
00831	1023148	9.812040	0.221508	0.206054				-0.007904	0.000202	-0.002836				42.268791	-88.220512	-179.933008
00832	1023198	9.812198	0.226039	0.209396				-0.004490	0.002655	-0.003918				42.273031	-88.220419	-179.936543
00833	1023248	9.813563	0.230672	0.209192				-0.004249	0.001501	0.000598				42.258565	-88.220080	-179.923200
00834	1023298	9.790491	0.228265	0.210289				-0.001297	0.001163	-0.001173				42.253964	-88.220919	-179.917030
00835	1023348	9.819863	0.221043	0.211479				-0.002713	-0.000801	-0.000513				42.261637	-88.220941	-179.925447
00836	1023398	9.819257	0.219009	0.198160				-0.002983	0.002978	0.000794				42.232250	-88.221272	-179.894633
00837	1023448	9.807119	0.230108	0.212496				-0.003695	0.000053	-0.000598				42.234987	-88.221327	-179.898550
00838	1023498	9.818984	0.217054	0.207690				-0.003600	-0.000041	-0.001755				42.241305	-88.221737	-179.903585
00839	1023548	9.826931	0.202962	0.184417				-0.003751	0.001837	0.001173				42.220806	-88.221545	-179.884131
00840	1023598	9.825375	0.228515	0.190423				-0.004935	0.001716	0.001306				42.195502	-88.222178	-179.857915
00841	1023648	9.813359	0.196080	0.196694				-0.003478	0.000964	-0.001719				42.200226	-88.221659	-179.863646
00842	1023698	9.807015	0.205342	0.203471				-0.004418	0.001364	-0.001907				42.198324	-88.222395	-179.861140
00843	1023748	9.827650	0.206457	0.214583				-0.004372	0.000714	-0.004091				42.220611	-88.221363	-179.884628
00844	1023798	9.819581	0.205774	0.210371				-0.000501	0.001605	0.002096				42.191635	-88.222328	-179.853563
00845	1023848	9.807981	0.224623	0.200757				-0.002178	-0.000665	-0.001440				42.204968	-88.222257	-179.867563
00846	1023898	9.809626	0.213532	0.227114				-0.005082	-0.000905	-0.001019				42.211368	-88.223375	-179.873355
00847	1023948	9.815908	0.220483	0.199094				-0.005239	0.002091	-0.001420				42.206489	-88.222654	-179.869973
00848	1023998	9.820602	0.223830	0.202356				-0.005012	-0.001301	-0.003397				42.232048	-88.223233	-179.894805
00849	1024048	9.830853	0.195205	0.219634				-0.004695	0.002138	-0.000555				42.221317	-88.222738	-179.885458
00850	1024098	9.835518	0.208742	0.208022				-0.003508	0.000730	-0.003774				42.236346	-88.222991	-179.899470
00851	1024148	9.821208	0.209474	0.211505				-0.002935	0.002103	-0.002035				42.236223	-88.222287	-179.900282
00852	1024198	9.834078	0.214559	0.198485				-0.003972	0.001370	-0.003027				42.242888	-88.222128	-179.905754
00853	1024248	9.816638	0.224754	0.187130				-0.005235	0.001699	-0.004885				42.264278	-88.220686	-179.928557
00854	1024298	9.837910	0.211709	0.200485				-0.004697	0.003169	-0.001898				42.251019	-88.221092	-179.914799
00855	1024348	9.809534	0.216130	0.197634				-0.003474	-0.000037	-0.000986				42.256877	-88.220835	-179.921615
00856	1024398	9.824555	0.215192	0.196081				-0.001772	-0.003341	-0.002456				42.289904	-88.221726	-179.952765
00857	1024448	9.814384	0.229086	0.195963				-0.002096	-0.000214	-0.003843				42.316872	-88.221073	-179.980379
00858	1024498	9.803119	0.229707	0.206506				-0.006284	-0.001254	-0.000954				42.324398	-88.222295	-179.987658
00859	1024548	9.794275	0.227819	0.215526				-0.003795	0.000924	-0.003095				42.338674	-88.221541	179.996944
00860	1024598	9.804173	0.224348	0.201545				-0.003207	0.002515	-0.003761				42.343287	-88.221308	179.993534
00861	1024648	9.799694	0.224650	0.193204				-0.000024	0.001344	-0.002687				42.353161	-88.220448	179.983689
00862	1024698	9.829127	0.207718	0.204057				-0.004169	0.001793	-0.000080				42.336869	-88.220944	-179.998980
00863	1024748	9.819468	0.230192	0.218702				-0.004718	0.000713	-0.003193				42.352698	-88.220292	179.983753
00864	1024798	9.797451	0.227209	0.203958				-0.004983	0.002493	0.000769				42.326111	-88.220798	-179.988871
00865	1024848	9.817331	0.217592	0.204393				-0.003401	0.001608	-0.002485				42.331915	-88.220158	-179.995780
00866	1024898	9.812237	0.209577	0.197882				-0.002743	-0.000064	-0.003391				42.350308	-88.220103	179.987448
00867	1024948	9.828439	0.221141	0.210750				-0.003757	0.000025	0.001612				42.338221	-88.220317	179.998531
00868	1024998	9.824267	0.203380	0.189712				-0.004098	-0.000466	0.000939				42.328196	-88.221965	-179.990739
00869	1025048	9.806494	0.221742	0.215527				-0.004815	0.006341	0.000783				42.282276	-88.220611	-179.946067
00870	1025098	9.803919	0.218701	0.215945				-0.004606	0.003265	-0.004108				42.284071	-88.220114	-179.947020
00871	1025148	9.822931	0.220326	0.217420				-0.004502	-0.002197	-0.004396				42.326389	-88.219605	-179.990568
00872	1025198	9.800026	0.214587	0.198588				-0.007040	0.006688	-0.001803				42.290367	-88.219280	-179.954698
00873	1025248	9.800590	0.220551	0.210429				-0.001885	0.001509	-0.000724				42.285437	-88.218720	-179.950237
00874	1025298	9.800702	0.219939	0.193436				-0.006326	0.000875	-0.003443				42.297154	-88.218893	-179.961643
00875	1025348	9.813965	0.221090	0.203121				-0.004616	-0.000350	-0.001948				42.311210	-88.218637	-179.977066
00876	1025398	9.792452	0.223642	0.209685				-0.007319	-0.000338	-0.003857				42.333093	-88.218687	-179.998696
00877	1025448	9.812781	0.224456	0.194278				-0.001439	-0.000518	-0.000704				42.340444	-88.218673	179.993525
00878	1025498	9.829374	0.241001	0.213611				-0.002940	0.000423	-0.001305				42.341083	-88.219598	179.994000
00879	1025548	9.816317	0.224546	0.200778				-0.003812	0.000107	-0.005282				42.375177	-88.218432	179.958879
00880	1025598	9.798968	0.220062	0.203743				-0.003064	0.002594	0.002141				42.339124	-88.219316	179.996234
00881	1025648	9.825024	0.220513	0.187701				-0.002919	-0.000286	-0.000571				42.343903	-88.219331	179.990574
00882	1025698	9.818213	0.223244	0.203861				-0.007535	-0.000107	0.000657				42.333316	-88.220383	-179.998796
00883	1025748	9.817472	0.200498	0.216306				-0.006747	0.000131	-0.000942				42.337195	-88.219841	179.995614
00884	1025798	9.817098	0.210694	0.218029				-0.004577	0.001428	-0.001745				42.333709	-88.220726	179.999583
00885	1025848	9.805568	0.206680	0.202693				-0.000243	-0.000884	0.000287				42.336993	-88.221252	179.996038
00886	1025898	9.816928	0.199881	0.228554				-0.002519	0.000168	-0.001504				42.340782	-88.221908	179.993676
00887	1025948	9.810534	0.207967	0.205611				-0.001470	0.001484	-0.001787				42.343183	-88.221293	179.990818
00888	1025998	9.812459	0.232364	0.192896				-0.001831	0.002804	-0.001455				42.330491	-88.221219	-179.994706
00889	1026048	9.823251	0.201361	0.203902				-0.005560	0.002924	-0.004495				42.341130	-88.220060	179.992832
00890	1026098	9.803485	0.205538	0.234829				-0.007370	-0.001398	-0.000693				42.347586	-88.221191	179.986424
00891	1026148	9.813803	0.212803	0.208205				-0.005926	0.001167	-0.006651				42.383785	-88.219826	179.948392
00892	1026198	9.832527	0.236821	0.211241				-0.004809	0.000847	0.001586				42.362023	-88.220530	179.971209
00893	1026248	9.814098	0.222603	0.216586				-0.002489	0.003041	-0.004917				42.375973	-88.218948	179.956530
00894	1026298	9.816315	0.216363	0.217229				-0.002918	-0.001416	-0.000799				42.384444	-88.220143	179.949338
00895	1026348	9.793494	0.224630	0.194136				-0.001454	-0.000432	-0.004905				42.419978	-88.219173	179.913447
00896	1026398	9.808937	0.242243	0.203412				-0.002302	0.000069	-0.005125				42.448985	-88.219321	179.885819
00897	1026448	9.799867	0.246806	0.196976				-0.003822	-0.000041	0.000907				42.442040	-88.219460	179.891706
00898	1026498	9.808726	0.230338	0.183862				-0.004816	0.003009	-0.001962				42.430706	-88.219248	179.903925
00899	1026548	9.810971	0.210968	0.206569				-0.002353	0.002347	0.000951				42.409321	-88.218723	179.924798
00900	1026598	9.837833	0.214375	0.207060				-0.001753	-0.000718	0.000031				42.407747	-88.220291	179.927721
00901	1026648	9.807506	0.246031	0.196157				-0.004848	-0.001326	-0.002111				42.428991	-88.220090	179.905122
00902	1026698	9.827191	0.215668	0.191274				-0.004262	-0.002408	0.000960				42.431722	-88.221870	179.903273
00903	1026748	9.808835	0.234576	0.196212				-0.004078	-0.000048	-0.000785				42.436124	-88.221722	179.897701
00904	1026798	9.797312	0.234524	0.211843				-0.003649	0.001512	-0.001392				42.430411	-88.222020	179.904586
00905	1026848	9.816140	0.219033	0.200735				-0.005247	0.001319	-0.002353				42.436583	-88.221501	179.896762
00906	1026898	9.813886	0.225311	0.207330				-0.004559	0.005114	-0.002208				42.414065	-88.220636	179.920378
00907	1026948	9.816628	0.214885	0.208976				-0.000456	0.005928	-0.002182				42.391752	-88.218944	179.942578
00908	1026998	9.817919	0.211462	0.199769				-0.009756	0.002114	-0.001854				42.383777	-88.219263	179.949821
00909	1027048	9.815129	0.221246	0.206476				-0.006493	0.000135	-0.001072				42.388582	-88.218917	179.943228
00910	1027098	9.810440	0.211579	0.214280				-0.004652	-0.004192	0.001562				42.397414	-88.221403	179.934990
00911	1027148	9.813360	0.211399	0.204348				-0.002878	0.000258	-0.003231				42.416999	-88.220789	179.914528
00912	1027198	9.829963	0.200021	0.199719				-0.005781	0.000858	-0.002196				42.420661	-88.221028	179.911453
00913	1027248	9.807180	0.243345	0.214918				-0.003352	-0.001878	-0.001542				42.441901	-88.221195	179.889203
00914	1027298	9.819144	0.204050	0.209051				-0.002606	-0.001519	-0.005233				42.481131	-88.221614	179.851276
00915	1027348	9.813729	0.221860	0.200216				-0.002350	-0.001027	-0.002474				42.503636	-88.221467	179.828009
00916	1027398	9.798894	0.224614	0.207263				-0.004213	0.000240	-0.000467				42.499690	-88.222148	179.833031
00917	1027448	9.812163	0.226055	0.175567				-0.004175	0.001588	-0.004342				42.518257	-88.220893	179.813315
00918	1027498	9.808360	0.252733	0.198119				-0.002173	-0.001026	-0.006061				42.560201	-88.221050	179.772796
00919	1027548	9.809106	0.230898	0.198148				-0.004239	0.000881	-0.002650				42.571522	-88.220474	179.760171
00920	1027598	9.821654	0.234482	0.202932				-0.003934	0.002243	-0.004215				42.580599	-88.219953	179.752245
00921	1027648	9.802258	0.243021	0.203967				-0.006897	0.001872	-0.002281				42.582609	-88.219000	179.748330
00922	1027698	9.808737	0.225927	0.191501				-0.004227	0.002598	-0.000972				42.567043	-88.219361	179.764773
00923	1027748	9.797348	0.234808	0.204997				-0.001439	0.003681	-0.000875				42.549815	-88.218253	179.781714
00924	1027798	9.817436	0.206817	0.209595				-0.004688	0.000609	-0.003704				42.564893	-88.218730	179.767215
00925	1027848	9.833294	0.200561	0.198455				-0.003404	-0.001365	-0.001927				42.585716	-88.218548	179.745469
00926	1027898	9.821508	0.210363	0.197639				-0.002501	0.001628	-0.000469				42.573016	-88.219456	179.759357
00927	1027948	9.819714	0.220781	0.198105				-0.007483	0.001116	-0.001676				42.575117	-88.219078	179.754984
00928	1027998	9.808346	0.229353	0.209410				-0.001445	0.002268	0.003258				42.534216	-88.220202	179.797648
00929	1028048	9.803977	0.215904	0.211838				-0.004178	-0.000218	-0.003456				42.557907	-88.219483	179.772809
00930	1028098	9.809530	0.212953	0.204810				-0.005916	-0.000024	-0.003447				42.575020	-88.219920	179.756051
00931	1028148	9.814013	0.212187	0.213475				-0.004587	0.002585	-0.003629				42.582128	-88.218867	179.747486
00932	1028198	9.814316	0.232281	0.200505				0.000175	-0.000881	-0.001544				42.593605	-88.219388	179.738432
00933	1028248	9.809932	0.213305	0.215919				-0.000725	0.003207	-0.003123				42.594622	-88.218102	179.737206
00934	1028298	9.790911	0.234505	0.207066				-0.003796	0.000019	-0.001016				42.595921	-88.218920	179.736943
00935	1028348	9.812483	0.217686	0.218226				-0.005934	-0.001147	-0.000120				42.602084	-88.218997	179.729169
00936	1028398	9.807844	0.214602	0.205779				-0.004035	-0.000632	-0.002594				42.618312	-88.219604	179.713933
00937	1028448	9.809537	0.236850	0.193966				-0.006820	-0.003687	-0.001703				42.651094	-88.219836	179.679331
00938	1028498	9.810098	0.228394	0.197852				-0.004885	0.000262	0.000497				42.639971	-88.221160	179.691010
00939	1028548	9.831098	0.223936	0.198510				-0.000622	0.000079	0.000194				42.637849	-88.221141	179.692976
00940	1028598	9.825126	0.223889	0.202084				-0.004227	-0.001869	-0.004907				42.677212	-88.221759	179.654387
00941	1028648	9.816726	0.227997	0.205043				-0.006929	0.000805	-0.002061				42.684336	-88.220999	179.645398
00942	1028698	9.825984	0.220806	0.184903				-0.005759	0.001375	-0.001584				42.680156	-88.221705	179.649888
00943	1028748	9.825079	0.245791	0.204029				-0.001825	0.000837	0.002030				42.660428	-88.222202	179.668909
00944	1028798	9.811738	0.232853	0.192360				-0.003522	-0.000429	-0.000604				42.662067	-88.222589	179.668780
00945	1028848	9.792780	0.238823	0.203969				-0.006116	0.001594	-0.001705				42.661813	-88.222048	179.667195
00946	1028898	9.819721	0.211977	0.214071				-0.001277	-0.000682	-0.002377				42.677467	-88.222842	179.653225
00947	1028948	9.822776	0.219536	0.205788				-0.003489	0.002614	-0.000682				42.664703	-88.222282	179.664916
00948	1028998	9.813413	0.223020	0.210962				0.000828	-0.003324	0.000107				42.680351	-88.223635	179.651879
00949	1029048	9.813349	0.213510	0.202444				-0.002209	0.000500	-0.000861				42.682299	-88.223437	179.649247
00950	1029098	9.813209	0.200248	0.213452				0.001509	-0.001600	-0.000848				42.693969	-88.224918	179.639927
00951	1029148	9.821771	0.223266	0.207446				-0.002100	0.001181	-0.000634				42.690506	-88.224279	179.642972
00952	1029198	9.803859	0.225065	0.211634				-0.002456	0.001270	-0.002586				42.695005	-88.224475	179.639954
00953	1029248	9.809518	0.205839	0.221450				-0.005160	0.002513	-0.003821				42.703596	-88.223352	179.629773
00954	1029298	9.800957	0.210829	0.209165				-0.003384	-0.001843	0.000319				42.707602	-88.224773	179.626949
00955	1029348	9.823345	0.224781	0.219905				-0.005227	0.000604	-0.003386				42.725448	-88.223763	179.607752
00956	1029398	9.815905	0.223686	0.192428				0.000308	0.004029	-0.002740				42.714408	-88.223657	179.620827
00957	1029448	9.826159	0.208944	0.218751				-0.001965	0.004995	-0.002439				42.699029	-88.222111	179.635664
00958	1029498	9.809175	0.225403	0.198631				-0.005685	0.002052	-0.002379				42.696066	-88.222568	179.638892
00959	1029548	9.827293	0.218338	0.209870				-0.005641	0.003536	-0.004586				42.703518	-88.220763	179.629934
00960	1029598	9.796599	0.237362	0.205051				-0.004106	-0.003377	-0.000229				42.720594	-88.222564	179.613739
00961	1029648	9.810224	0.222580	0.189042				-0.005210	0.000391	0.002071				42.702589	-88.222904	179.630244
00962	1029698	9.781461	0.227736	0.208306				-0.003868	-0.001697	-0.001440				42.717460	-88.223787	179.616540
00963	1029748	9.831856	0.220023	0.199857				-0.004923	-0.003272	-0.005203				42.771572	-88.223651	179.560858
00964	1029798	9.828126	0.212021	0.203286				-0.003777	-0.002828	-0.002829				42.803109	-88.224875	179.530231
00965	1029848	9.817926	0.210066	0.200787				-0.005426	0.001895	-0.002382				42.805957	-88.223755	179.526006
00966	1029898	9.824281	0.223953	0.223739				-0.005885	0.001367	-0.001836				42.803954	-88.223659	179.528768
00967	1029948	9.796641	0.222015	0.192047				-0.005140	0.003093	-0.002434				42.799353	-88.222753	179.531743
00968	1029998	9.816344	0.242423	0.198108				-0.003998	0.002898	0.001891				42.762914	-88.223565	179.569154
00969	1030048	9.823154	0.208540	0.206224				-0.002296	0.001465	0.000590				42.749145	-88.223357	179.582286
00970	1030098	9.793904	0.227328	0.199106				-0.005700	-0.002600	-0.001376				42.768639	-88.224529	179.563345
00971	1030148	9.825997	0.209079	0.205948				-0.002056	-0.000081	0.000582				42.764565	-88.224607	179.566874
00972	1030198	9.817504	0.216864	0.217544				-0.001153	0.001679	-0.000498				42.752558	-88.225168	179.580681
00973	1030248	9.814918	0.222388	0.200699				-0.001948	-0.000730	-0.003621				42.781181	-88.224607	179.551496
00974	1030298	9.813027	0.200420	0.203368				-0.004201	-0.000314	-0.001206				42.785827	-88.225509	179.547730
00975	1030348	9.815294	0.198663	0.226203				-0.004127	0.001497	-0.001583				42.785917	-88.224986	179.546395
00976	1030398	9.829864	0.223159	0.208341				-0.006791	0.000446	-0.002673				42.795142	-88.225264	179.537412
00977	1030448	9.818562	0.202240	0.229246				-0.002025	-0.000181	-0.001955				42.809008	-88.224931	179.522956
00978	1030498	9.801572	0.231364	0.222216				-0.003605	0.004119	-0.004553				42.808391	-88.224491	179.524461
00979	1030548	9.806652	0.221491	0.189766				-0.003900	-0.000767	-0.003391				42.835161	-88.223981	179.496567
00980	1030598	9.813332	0.230562	0.170431				-0.004590	0.005176	-0.000759				42.801673	-88.223830	179.530846
00981	1030648	9.804812	0.223545	0.214759				-0.004060	0.003040	-0.006738				42.826840	-88.222176	179.504296
00982	1030698	9.815255	0.226183	0.215272				-0.002874	-0.002883	-0.002795				42.858752	-88.223062	179.473796
00983	1030748	9.808425	0.225463	0.203664				-0.003789	0.000086	0.000783				42.851883	-88.223113	179.479639
00984	1030798	9.819448	0.238920	0.205250				-0.002746	0.000424	-0.001370				42.853372	-88.223737	179.479517
00985	1030848	9.828083	0.212374	0.209060				-0.003466	0.000896	-0.001008				42.853542	-88.223321	179.478373
00986	1030898	9.825432	0.235806	0.204989				-0.003298	0.000142	-0.006246				42.889644	-88.222965	179.443515
00987	1030948	9.814185	0.238718	0.208202				-0.004475	0.000494	0.000532				42.881460	-88.223188	179.450261
00988	1030998	9.815602	0.230594	0.187677				-0.004242	-0.005292	-0.001428				42.919197	-88.224349	179.413894
00989	1031048	9.822841	0.214172	0.206689				-0.001869	-0.000920	-0.000446				42.927327	-88.224652	179.405084
00990	1031098	9.816181	0.205661	0.222913				-0.004891	-0.003048	-0.003240				42.962493	-88.225961	179.370416
00991	1031148	9.809119	0.227652	0.202394				-0.004897	-0.003555	0.000318				42.981710	-88.226316	179.350101
00992	1031198	9.813740	0.226410	0.189853				-0.003931	0.006210	-0.005344				42.973012	-88.225145	179.359689
00993	1031248	9.824306	0.197370	0.194503				-0.004404	0.000875	-0.001653				42.977510	-88.224650	179.353920
00994	1031298	9.821502	0.201021	0.219188				-0.001820	0.001438	-0.002039				42.977215	-88.225336	179.355551
00995	1031348	9.808871	0.207644	0.205539				-0.006948	-0.000423	-0.000013				42.978173	-88.225282	179.352705
00996	1031398	9.832299	0.204550	0.197462				-0.004619	-0.003298	-0.001352				43.001845	-88.227083	179.329545
00997	1031448	9.809825	0.229128	0.202620				-0.006453	-0.001232	-0.002841				43.026924	-88.226787	179.302604
00998	1031498	9.829901	0.217900	0.211648				-0.004736	-0.001815	-0.003107				43.053956	-88.227679	179.276245
00999	1031548	9.816113	0.223403	0.197420				-0.003575	0.001147	-0.002740				43.064121	-88.227057	179.264941
01000	1031598	9.817891	0.228621	0.207163				-0.007033	-0.000816	-0.000594				43.066782	-88.227921	179.262518
01001	1031648	9.817990	0.207055	0.197157				-0.005043	0.001963	-0.002635				43.071039	-88.226670	179.257045
01002	1031698	9.815119	0.223140	0.204001				-0.004745	-0.002094	0.002314				43.063191	-88.228243	179.265914
01003	1031748	9.816004	0.228643	0.204373				-0.001295	0.001194	-0.001562				43.065926	-88.227719	179.262788
01004	1031798	9.819849	0.217681	0.182518				-0.005522	0.000019	-0.001302				43.068481	-88.228819	179.260516
01005	1031848	9.817798	0.216922	0.207607				-0.002816	-0.001122	0.003274				43.052745	-88.229661	179.275479
01006	1031898	9.810376	0.208320	0.193186				-0.001450	0.004232	0.001762				43.008722	-88.230283	179.321118
01007	1031948	9.801222	0.227531	0.210671				-0.004699	0.001223	-0.004118				43.027448	-88.229194	179.301055
01008	1031998	9.805100	0.208455	0.198393				-0.005943	-0.000954	-0.001077				43.035085	-88.229913	179.294060
01009	1032048	9.809037	0.219436	0.194573				-0.003501	0.002156	0.000088				43.019807	-88.229592	179.308263
01010	1032098	9.797265	0.225502	0.198694				-0.006142	0.000130	-0.004213				43.041195	-88.229714	179.287265
01011	1032148	9.802835	0.241093	0.190213				-0.002547	-0.000998	-0.002242				43.062133	-88.229257	179.265751
01012	1032198	9.809972	0.214538	0.207522				-0.002071	0.001306	-0.001301				43.057376	-88.229816	179.271973
01013	1032248	9.807362	0.213419	0.208448				-0.003418	0.001019	-0.003956				43.076725	-88.228863	179.251612
01014	1032298	9.826641	0.235717	0.202881				-0.003464	0.002798	-0.002891				43.073253	-88.228924	179.256099
01015	1032348	9.820827	0.220151	0.211531				-0.002353	0.001069	-0.003290				43.088190	-88.228010	179.240515
01016	1032398	9.815425	0.219662	0.200228				-0.004689	-0.000805	0.001068				43.080205	-88.229263	179.249352
01017	1032448	9.820659	0.213151	0.215056				-0.005001	-0.003432	-0.001707				43.112109	-88.229597	179.216035
01018	1032498	9.800215	0.213249	0.208058				-0.005353	0.001766	-0.001196				43.102842	-88.230115	179.225796
01019	1032548	9.816158	0.218273	0.200695				-0.003807	-0.000437	-0.000148				43.105436	-88.230073	179.222185
01020	1032598	9.818434	0.228358	0.197828				-0.003769	0.000142	-0.001655				43.110416	-88.230902	179.218134
01021	1032648	9.816833	0.200947	0.204894				-0.006536	0.003782	-0.002173				43.099246	-88.229717	179.227416
01022	1032698	9.824686	0.198141	0.210002				-0.003882	-0.000218	-0.001208				43.103240	-88.230426	179.224509
01023	1032748	9.815013	0.213779	0.202727				-0.003908	0.001496	-0.002164				43.107323	-88.229594	179.219377
01024	1032798	9.811887	0.224514	0.184653				-0.002717	-0.001042	-0.004840				43.141492	-88.229891	179.186513
01025	1032848	9.791902	0.237609	0.193665				0.001974	0.001220	-0.001021				43.141373	-88.229106	179.187429
01026	1032898	9.822520	0.204667	0.200731				-0.003943	0.000460	-0.003961				43.159490	-88.229675	179.169980
01027	1032948	9.803317	0.238212	0.195570				-0.001258	0.000928	-0.002522				43.170310	-88.228914	179.158846
01028	1032998	9.833258	0.220845	0.202606				0.000347	0.003867	-0.002195				43.156517	-88.228629	179.174904
01029	1033048	9.812973	0.227427	0.195783				-0.003356	0.002279	-0.003728				43.166483	-88.227155	179.164160
01030	1033098	9.817925	0.231686	0.195213				-0.004971	-0.001365	-0.001532				43.179472	-88.228624	179.151555
01031	1033148	9.812794	0.230216	0.180574				-0.007207	-0.000598	-0.002613				43.198970	-88.227955	179.130181
01032	1033198	9.807555	0.219620	0.203473				-0.004249	0.002299	-0.003025				43.199319	-88.228198	179.130550
01033	1033248	9.804610	0.225698	0.203828				-0.005109	-0.003078	-0.000962				43.223645	-88.228838	179.104611
01034	1033298	9.805023	0.210944	0.206371				-0.005493	0.002252	-0.001192				43.211760	-88.228962	179.117221
01035	1033348	9.809630	0.202422	0.209674				-0.007743	0.002372	-0.000957				43.200767	-88.228489	179.125847
01036	1033398	9.822324	0.225745	0.228468				-0.003798	-0.001924	-0.000864				43.213299	-88.229528	179.114485
01037	1033448	9.815920	0.227625	0.182049				-0.003795	0.000077	-0.002105				43.226046	-88.228985	179.100722
01038	1033498	9.795432	0.221892	0.233272				-0.000884	0.003233	-0.002707				43.219458	-88.228666	179.109289
01039	1033548	9.823121	0.215612	0.196032				-0.007097	-0.003213	-0.002852				43.256587	-88.229256	179.069763
01040	1033598	9.805003	0.226094	0.217441				-0.006339	0.003289	-0.006346				43.272765	-88.228165	179.054020
01041	1033648	9.824706	0.210543	0.220832				-0.002208	0.000393	-0.002977				43.289490	-88.227860	179.036401
01042	1033698	9.820817	0.224034	0.206045				-0.003298	0.002576	-0.002509				43.285296	-88.227316	179.042125
01043	1033748	9.809268	0.233710	0.204273				-0.006103	-0.001766	0.001229				43.286387	-88.228136	179.039135
01044	1033798	9.796001	0.228199	0.204404				-0.005229	-0.000237	-0.001170				43.289990	-88.228812	179.036273
01045	1033848	9.816989	0.227308	0.201526				-0.001926	0.000695	-0.000568				43.288838	-88.228623	179.036826
01046	1033898	9.821399	0.221340	0.193444				-0.005573	-0.002699	-0.001990				43.313413	-88.229760	179.012800
01047	1033948	9.804394	0.228210	0.195292				-0.004045	0.000785	-0.003029				43.327602	-88.229134	178.997346
01048	1033998	9.822434	0.210066	0.203294				-0.004935	-0.002594	-0.003400				43.361582	-88.229410	178.964488
01049	1034048	9.802834	0.250066	0.211365				-0.006101	0.000841	-0.003343				43.376950	-88.228615	178.947342
01050	1034098	9.797431	0.237022	0.187904				-0.004236	0.001910	-0.002892				43.378786	-88.228856	178.946277
01051	1034148	9.789751	0.236104	0.198432				-0.002296	-0.000864	-0.003040				43.404142	-88.228336	178.920325
01052	1034198	9.803526	0.220492	0.197507				-0.002230	0.003505	0.000571				43.373043	-88.228806	178.952863
01053	1034248	9.818250	0.225073	0.194375				-0.002684	0.003556	-0.001708				43.360908	-88.227904	178.964109
01054	1034298	9.815385	0.221234	0.204110				-0.005314	0.000705	0.001909				43.337661	-88.228995	178.988068
01055	1034348	9.821284	0.205730	0.205796				-0.005071	0.001962	-0.002061				43.337530	-88.228326	178.986641
01056	1034398	9.824131	0.203744	0.211484				-0.000952	0.000555	-0.000248				43.331089	-88.229253	178.994863
01057	1034448	9.829301	0.196798	0.198321				-0.003500	0.001530	-0.006045				43.360983	-88.227792	178.963915
01058	1034498	9.824269	0.216749	0.200911				-0.001356	0.000093	0.000066				43.355319	-88.228865	178.971250
01059	1034548	9.803144	0.215633	0.192758				-0.003776	0.003667	-0.001895				43.343658	-88.227726	178.981835
01060	1034598	9.800652	0.223479	0.194110				-0.004396	0.001780	-0.002029				43.340325	-88.228157	178.985881
01061	1034648	9.821427	0.208164	0.215766				-0.002851	-0.001357	-0.000995				43.354729	-88.228292	178.970619
01062	1034698	9.818031	0.214870	0.212444				-0.003314	-0.001983	-0.001894				43.375415	-88.228922	178.951407
01063	1034748	9.809320	0.226265	0.211284				-0.001222	0.000198	0.002962				43.353589	-88.229573	178.972806
01064	1034798	9.811380	0.222850	0.193549				-0.002108	0.000496	-0.001237				43.354296	-88.230122	178.973707
01065	1034848	9.826979	0.216057	0.187927				-0.003096	-0.001140	-0.003206				43.382088	-88.229753	178.944998
01066	1034898	9.817064	0.226449	0.190371				-0.003488	-0.001496	0.001059				43.379444	-88.231363	178.948732
01067	1034948	9.801579	0.224249	0.197001				-0.002770	0.000636	-0.006982				43.421575	-88.229998	178.905684
01068	1034998	9.802747	0.214177	0.182641				-0.004403	0.002071	-0.001388				43.412388	-88.229909	178.916008
01069	1035048	9.807932	0.215874	0.187627				-0.001079	0.001881	0.004284				43.371086	-88.230559	178.956885
01070	1035098	9.828236	0.223485	0.200907				-0.002155	-0.001188	-0.003304				43.395972	-88.231249	178.933441
01071	1035148	9.806602	0.208424	0.186883				-0.000342	-0.000796	-0.002051				43.414655	-88.231254	178.914471
01072	1035198	9.804403	0.227244	0.196061				-0.002784	0.002685	0.000252				43.390533	-88.231947	178.939820
01073	1035248	9.808634	0.223745	0.211995				-0.003869	-0.001766	-0.002469				43.417291	-88.231711	178.912020
01074	1035298	9.821424	0.208133	0.216784				-0.007895	0.001340	0.001150				43.394878	-88.232354	178.934521
01075	1035348	9.802382	0.217544	0.196086				-0.005551	0.004927	-0.003964				43.388618	-88.230365	178.939324
01076	1035398	9.799465	0.225362	0.189578				-0.005132	0.001930	-0.001221				43.378818	-88.231073	178.949529
01077	1035448	9.800689	0.215950	0.204896				-0.002613	-0.001000	-0.002883				43.403793	-88.230731	178.923778
01078	1035498	9.828726	0.204539	0.198509				-0.002768	-0.001135	-0.002468				43.422844	-88.231217	178.906240
01079	1035548	9.817343	0.233319	0.209896				-0.005891	0.001728	0.000314				43.408086	-88.230891	178.919331
01080	1035598	9.819059	0.227147	0.212718				-0.002892	0.001968	-0.000849				43.395961	-88.231489	178.932651
01081	1035648	9.807666	0.216712	0.190710				-0.005107	-0.000077	-0.003159				43.416589	-88.230642	178.910717
01082	1035698	9.798335	0.231309	0.206375				-0.007289	0.001181	-0.002506				43.419494	-88.230733	178.908034
01083	1035748	9.802859	0.217176	0.195284				-0.003754	-0.000009	0.002290				43.402911	-88.231196	178.923542
01084	1035798	9.819605	0.213049	0.193318				-0.003165	0.001185	-0.002772				43.409039	-88.231344	178.918664
01085	1035848	9.821057	0.210389	0.194468				-0.007556	0.000497	-0.001322				43.412687	-88.230989	178.912846
01086	1035898	9.815679	0.235473	0.205081				-0.002538	0.002046	-0.000236				43.395705	-88.231674	178.931130
01087	1035948	9.801110	0.210230	0.223839				-0.001733	0.001500	-0.004895				43.418383	-88.230578	178.907820
01088	1035998	9.811388	0.219540	0.198625				-0.002876	0.001189	-0.004058				43.433479	-88.230447	178.894083
01089	1036048	9.832781	0.219362	0.205566				-0.003523	0.004806	-0.000539				43.405385	-88.229466	178.921087
01090	1036098	9.807445	0.225897	0.208341				-0.005282	0.004839	-0.001241				43.377564	-88.228867	178.949784
01091	1036148	9.822910	0.208653	0.205996				-0.004420	0.001456	-0.002448				43.383412	-88.228000	178.942721
01092	1036198	9.809564	0.246068	0.208902				-0.003878	-0.000311	-0.002269				43.395237	-88.228879	178.931726
01093	1036248	9.832073	0.201368	0.202353				-0.003051	0.000869	-0.001270				43.397484	-88.228109	178.928847
01094	1036298	9.816709	0.214777	0.194925				-0.001778	-0.000853	-0.000541				43.401837	-88.229439	178.925923
01095	1036348	9.825964	0.217984	0.193514				-0.004000	0.000700	0.001585				43.385601	-88.229671	178.940974
01096	1036398	9.808386	0.213537	0.194197				-0.004272	-0.004067	0.000056				43.405235	-88.231947	178.921921
01097	1036448	9.814303	0.212015	0.205266				-0.004844	-0.001198	-0.000411				43.414195	-88.232183	178.911518
01098	1036498	9.814629	0.220177	0.213240				-0.007031	0.002154	-0.002564				43.411944	-88.231615	178.914339
01099	1036548	9.817723	0.203238	0.208565				-0.006277	-0.000385	-0.000302				43.414689	-88.231667	178.909769
