// General information: 
//  MT Manager version: 2022.0.0 
//  XDA version: 2022.0.0 build 7085 rev 119802 built on 2022-11-08
// Device information: 
//  DeviceId: 037004D1
//  ProductCode: MTi-300-2A5G4
//  Firmware Version: 1.4.1
//  Hardware Version: 2.1.0
// Device settings: 
//  Filter Profile: general(39.16)
//  Option Flags: Orientation Smoother Disabled, Position/Velocity Smoother Disabled, Continuous Zero Rotation Update Disabled, AHS Disabled, ICC Disabled
// Coordinate system: ENU
PacketCounter	SampleTimeFine	Acc_X	Acc_Y	Acc_Z	AccHR_X	AccHR_Y	AccHR_Z	Gyr_X	Gyr_Y	Gyr_Z	GyrHR_X	GyrHR_Y	GyrHR_Z	Roll	Pitch	Yaw
00001	113174	-0.198309	-0.115410	9.806830				-0.003069	0.001122	0.000204				-1.459375	1.209996	-42.992383
00002	113224	-0.166464	-0.111415	9.817451				-0.003423	-0.002249	-0.000491				-1.460358	1.209348	-42.992503
00003	113274	-0.198360	-0.110660	9.820974				-0.004583	-0.001879	-0.000451				-1.459797	1.208547	-42.991616
00004	113324	-0.181375	-0.118944	9.815617				-0.006262	-0.000456	-0.002141				-1.461604	1.208401	-42.992226
00005	113374	-0.184748	-0.135602	9.813001				-0.007772	-0.000219	-0.000086				-1.461949	1.208089	-42.994410
00006	113424	-0.191602	-0.112701	9.802480				-0.007095	-0.000469	-0.001273				-1.463989	1.207945	-42.994768
00007	113474	-0.196895	-0.113273	9.805866				-0.003934	-0.000057	-0.000669				-1.463238	1.207668	-42.995142
00008	113524	-0.187216	-0.106836	9.802701				-0.000309	0.000649	-0.001579				-1.463336	1.207843	-42.995595
00009	113574	-0.165783	-0.125639	9.799724				-0.006226	0.002587	-0.001165				-1.463241	1.208314	-42.994672
00010	113624	-0.174640	-0.118265	9.793531				-0.006153	0.001134	-0.001138				-1.465010	1.208630	-42.995000
00011	113674	-0.203540	-0.107240	9.782175				-0.004161	0.002842	-0.002672				-1.464330	1.209167	-42.996160
00012	113724	-0.176713	-0.122310	9.799054				-0.002105	0.000653	-0.001794				-1.464944	1.209341	-42.996674
00013	113774	-0.190392	-0.123548	9.789298				-0.001828	-0.002331	0.006275				-1.463539	1.208444	-42.990263
00014	113824	-0.186501	-0.108182	9.820910				-0.005528	-0.002117	0.002114				-1.465110	1.207853	-42.989641
00015	113874	-0.186895	-0.115751	9.782334				-0.000656	-0.003254	0.003956				-1.463377	1.206700	-42.990814
00016	113924	-0.178576	-0.116158	9.782767				-0.001774	0.006769	0.000706				-1.463882	1.208643	-42.990657
00017	113974	-0.200602	-0.109641	9.785992				-0.001178	0.000702	-0.001152				-1.462328	1.208583	-42.993289
00018	114024	-0.184083	-0.128576	9.800293				-0.002129	-0.000578	-0.002540				-1.462953	1.208399	-42.994016
00019	114074	-0.195320	-0.101236	9.801057				-0.001844	-0.001510	-0.002123				-1.461593	1.207685	-42.992898
00020	114124	-0.190125	-0.111406	9.811337				-0.005873	0.001360	-0.002773				-1.463292	1.208054	-42.993701
00021	114174	-0.197771	-0.118679	9.806338				-0.001046	-0.000498	-0.002798				-1.461705	1.207613	-42.989445
00022	114224	-0.200946	-0.120380	9.789356				-0.004304	-0.001780	-0.002860				-1.462955	1.207082	-42.990259
00023	114274	-0.184585	-0.123861	9.809397				-0.004213	-0.000716	-0.003237				-1.462274	1.206597	-42.992125
00024	114324	-0.195838	-0.105162	9.802263				-0.005059	0.002089	-0.001071				-1.463730	1.207188	-42.992442
00025	114374	-0.173638	-0.123621	9.802157				-0.004682	-0.000981	-0.001218				-1.463167	1.206648	-42.995729
00026	114424	-0.185263	-0.124084	9.798857				-0.001354	0.000048	-0.004560				-1.463582	1.206629	-42.997031
00027	114474	-0.197469	-0.117992	9.799397				-0.006541	0.000186	-0.002201				-1.463557	1.206401	-42.996658
00028	114524	-0.195607	-0.119122	9.805383				-0.002327	-0.000454	-0.001991				-1.464235	1.206256	-42.997226
00029	114574	-0.191217	-0.113134	9.802965				-0.003686	0.001945	-0.003932				-1.463400	1.206517	-42.996670
00030	114624	-0.185153	-0.114787	9.796225				-0.001584	0.000437	-0.000834				-1.463858	1.206636	-42.996907
00031	114674	-0.194428	-0.117508	9.791482				-0.003325	0.001692	-0.003611				-1.462913	1.206840	-43.000027
00032	114724	-0.178523	-0.130172	9.797380				-0.003607	0.000197	-0.006316				-1.463984	1.206850	-43.001836
00033	114774	-0.194261	-0.128872	9.811129				-0.000901	-0.001618	0.001275				-1.462312	1.206140	-43.003094
00034	114824	-0.188004	-0.109964	9.801028				-0.003946	-0.002640	0.001434				-1.463434	1.205395	-43.002667
00035	114874	-0.195188	-0.118790	9.803217				-0.000142	0.001460	-0.001764				-1.461562	1.205515	-42.996759
00036	114924	-0.177388	-0.111902	9.806726				-0.005754	-0.000347	-0.000826				-1.463216	1.205410	-42.996996
00037	114974	-0.179449	-0.130910	9.799074				-0.001568	0.001018	-0.000544				-1.461739	1.205447	-43.000693
00038	115024	-0.203498	-0.113835	9.796550				-0.001690	-0.000208	-0.000803				-1.462228	1.205382	-43.000925
00039	115074	-0.185963	-0.124528	9.806055				-0.004541	-0.001197	-0.000194				-1.461599	1.204776	-43.001126
00040	115124	-0.196791	-0.119024	9.796763				-0.004494	-0.000651	-0.001635				-1.462896	1.204578	-43.001588
00041	115174	-0.167341	-0.117445	9.777921				-0.004002	-0.001359	-0.004945				-1.462138	1.203896	-43.004526
00042	115224	-0.188522	-0.112385	9.793599				-0.002034	0.000951	0.002600				-1.462705	1.204188	-43.003785
00043	115274	-0.176174	-0.115882	9.800970				-0.000571	0.002037	-0.001089				-1.460943	1.204454	-42.991465
00044	115324	-0.201982	-0.090618	9.814748				-0.002770	-0.000060	0.002921				-1.461719	1.204458	-42.990631
00045	115374	-0.182590	-0.104005	9.772721				-0.004279	0.003817	0.000571				-1.460999	1.205317	-42.997786
00046	115424	-0.187539	-0.112493	9.798631				-0.002676	-0.002265	0.000631				-1.461762	1.204673	-42.997583
00047	115474	-0.182037	-0.132167	9.813462				-0.004687	0.001679	0.000849				-1.461157	1.204879	-42.992797
00048	115524	-0.190621	-0.119036	9.801288				-0.005468	0.001953	-0.000301				-1.462725	1.205436	-42.992899
00049	115574	-0.188728	-0.124390	9.805827				0.000312	0.002240	-0.003719				-1.460711	1.205795	-42.996920
00050	115624	-0.174821	-0.123769	9.802403				-0.002082	-0.000324	-0.004911				-1.461336	1.205667	-42.998326
00051	115674	-0.177032	-0.126867	9.814404				-0.003469	0.002434	-0.002617				-1.460399	1.206074	-42.997893
00052	115724	-0.202820	-0.119758	9.780252				-0.002126	-0.000707	-0.001895				-1.461019	1.205858	-42.998419
00053	115774	-0.199202	-0.120517	9.805881				-0.000519	0.002300	-0.000378				-1.459219	1.206239	-42.996140
00054	115824	-0.194975	-0.112537	9.797224				-0.000586	0.000422	-0.000548				-1.459390	1.206356	-42.996291
00055	115874	-0.188016	-0.124876	9.814687				-0.002451	0.001419	-0.003170				-1.458155	1.206484	-43.000206
00056	115924	-0.185983	-0.096176	9.800767				-0.002667	0.002518	-0.000694				-1.458924	1.207200	-43.000421
00057	115974	-0.183217	-0.119158	9.804111				-0.000130	0.001008	-0.002439				-1.457018	1.207199	-42.999596
00058	116024	-0.190803	-0.108257	9.805354				-0.005724	0.001884	-0.000591				-1.458661	1.207734	-42.999778
00059	116074	-0.202703	-0.087974	9.806840				-0.002425	-0.000028	-0.000094				-1.457393	1.207470	-43.003000
00060	116124	-0.179924	-0.115937	9.803382				-0.006191	0.001453	-0.000498				-1.459170	1.207882	-43.003158
00061	116174	-0.181449	-0.115592	9.812498				-0.005886	0.000680	-0.002488				-1.458905	1.207787	-43.002550
00062	116224	-0.181865	-0.124156	9.787103				-0.004856	-0.001333	0.000481				-1.460293	1.207409	-43.002407
00063	116274	-0.193550	-0.129600	9.793876				-0.004555	0.000028	-0.002623				-1.459644	1.207143	-43.007011
00064	116324	-0.184960	-0.128779	9.776335				-0.003264	0.002927	-0.002293				-1.460593	1.207965	-43.007688
00065	116374	-0.175341	-0.119954	9.796172				-0.004804	0.001323	0.001487				-1.459991	1.208079	-43.005406
00066	116424	-0.209117	-0.111143	9.786512				-0.003079	-0.003085	-0.001840				-1.460883	1.207182	-43.005910
00067	116474	-0.163400	-0.136936	9.779580				-0.006721	0.001898	-0.002035				-1.460849	1.207417	-42.999475
00068	116524	-0.190246	-0.111294	9.803916				-0.006071	0.000615	-0.001751				-1.462600	1.207581	-42.999986
00069	116574	-0.199687	-0.122708	9.804684				-0.002684	0.002772	-0.003798				-1.461421	1.208017	-42.984603
00070	116624	-0.201221	-0.109474	9.803246				-0.003309	0.000600	0.000522				-1.462365	1.208193	-42.984455
00071	116674	-0.180366	-0.121547	9.802667				-0.003210	0.001115	-0.003424				-1.461325	1.208230	-42.988829
00072	116724	-0.198611	-0.113477	9.815224				-0.006532	-0.000011	-0.002170				-1.463210	1.208211	-42.989446
00073	116774	-0.200546	-0.121249	9.786471				-0.003202	0.001789	-0.005186				-1.462174	1.208439	-42.997124
00074	116824	-0.174253	-0.110209	9.802870				-0.001107	-0.001530	-0.002772				-1.462508	1.207980	-42.997914
00075	116874	-0.182759	-0.119576	9.801004				-0.001792	-0.000156	-0.003470				-1.461057	1.207637	-42.997891
00076	116924	-0.191930	-0.106638	9.797690				-0.003248	-0.000528	-0.000098				-1.461988	1.207485	-42.997929
00077	116974	-0.179200	-0.114086	9.800502				-0.001538	0.000683	-0.005807				-1.460475	1.207375	-43.001749
00078	117024	-0.189506	-0.104978	9.782818				-0.004376	0.001009	0.002225				-1.461715	1.207681	-43.001128
00079	117074	-0.165653	-0.129580	9.790851				-0.008790	-0.000471	-0.001018				-1.462249	1.207243	-42.994600
00080	117124	-0.184690	-0.123830	9.804849				-0.006173	0.002744	-0.001738				-1.464028	1.208016	-42.995117
00081	117174	-0.178934	-0.109137	9.803134				-0.002897	0.002445	-0.003004				-1.462882	1.208409	-42.992348
00082	117224	-0.186517	-0.119723	9.787609				-0.004369	0.001650	0.000753				-1.464130	1.208887	-42.992154
00083	117274	-0.191026	-0.125399	9.781148				-0.004397	0.004422	-0.001192				-1.463398	1.209888	-42.997245
00084	117324	-0.186956	-0.126563	9.809891				-0.007084	-0.001594	0.001607				-1.465417	1.209444	-42.996770
00085	117374	-0.189589	-0.118373	9.804874				-0.005157	-0.003021	-0.000937				-1.464900	1.208289	-42.994739
00086	117424	-0.184552	-0.141269	9.799583				-0.007064	-0.002868	-0.004752				-1.466952	1.207433	-42.996081
00087	117474	-0.178667	-0.111368	9.809607				-0.002848	0.004197	-0.000266				-1.465767	1.208356	-42.995590
00088	117524	-0.191422	-0.119032	9.792174				-0.001938	-0.002876	-0.004055				-1.466346	1.207503	-42.996731
00089	117574	-0.193611	-0.102122	9.796255				-0.002105	0.000781	-0.001117				-1.464950	1.207441	-42.996602
00090	117624	-0.196746	-0.107315	9.807302				-0.003905	0.000107	0.000678				-1.466065	1.207477	-42.996408
00091	117674	-0.200160	-0.113770	9.788384				-0.006336	0.001871	-0.002062				-1.465882	1.207718	-42.995624
00092	117724	-0.186371	-0.120494	9.809653				-0.002246	0.000001	-0.002184				-1.466538	1.207703	-42.996241
00093	117774	-0.185188	-0.121672	9.805326				-0.006277	0.002425	0.000667				-1.466320	1.208131	-42.997104
00094	117824	-0.186093	-0.112791	9.817553				-0.005134	0.002176	-0.005147				-1.467822	1.208716	-42.998598
00095	117874	-0.190771	-0.114001	9.807507				-0.008899	0.003153	0.000773				-1.468351	1.209352	-42.999168
00096	117924	-0.185639	-0.133836	9.794786				-0.003548	0.000785	-0.000858				-1.469372	1.209571	-42.999422
00097	117974	-0.193425	-0.119512	9.796505				-0.005376	-0.001150	-0.001219				-1.468901	1.208961	-43.000955
00098	118024	-0.189702	-0.114825	9.805824				-0.003338	-0.000855	-0.001028				-1.469863	1.208708	-43.001239
00099	118074	-0.186944	-0.111311	9.800058				-0.001436	0.001924	-0.003070				-1.468272	1.208941	-42.996622
00100	118124	-0.195087	-0.110056	9.804899				-0.001945	0.001790	-0.001660				-1.468840	1.209441	-42.997115
00101	118174	-0.179321	-0.125069	9.798109				-0.004859	0.001539	-0.003929				-1.468230	1.209567	-42.995666
00102	118224	-0.197187	-0.107947	9.802265				-0.002836	0.001444	-0.003359				-1.469063	1.209956	-42.996638
00103	118274	-0.177648	-0.120925	9.793549				-0.005152	-0.000918	0.001189				-1.468502	1.209444	-43.001511
00104	118324	-0.178756	-0.109806	9.790670				-0.009287	-0.000024	-0.001877				-1.471174	1.209424	-43.002046
00105	118374	-0.193537	-0.125766	9.791954				-0.002110	0.001106	0.000070				-1.469745	1.209456	-43.000078
00106	118424	-0.173542	-0.119190	9.806231				-0.005490	0.000169	-0.003327				-1.471339	1.209480	-43.001043
00107	118474	-0.200464	-0.106755	9.781444				-0.004044	0.003763	0.001375				-1.470454	1.210286	-43.000118
00108	118524	-0.192104	-0.108662	9.797448				-0.005997	-0.000676	-0.000571				-1.472176	1.210089	-43.000284
00109	118574	-0.176989	-0.115864	9.791624				-0.004898	-0.001209	-0.002471				-1.471555	1.209440	-42.999335
00110	118624	-0.176364	-0.111868	9.794496				-0.004369	-0.001783	-0.004111				-1.472832	1.208899	-43.000504
00111	118674	-0.187744	-0.117090	9.798870				-0.004143	-0.000742	-0.001478				-1.471983	1.208406	-43.003523
00112	118724	-0.180661	-0.113675	9.787325				-0.001249	0.000923	-0.003076				-1.472360	1.208647	-43.004409
00113	118774	-0.192136	-0.122341	9.815429				-0.004562	0.002647	-0.000940				-1.471627	1.209107	-43.001717
00114	118824	-0.179307	-0.121933	9.812012				-0.004844	0.002348	-0.002197				-1.473029	1.209763	-43.002365
00115	118874	-0.185807	-0.121912	9.809646				-0.004667	-0.000201	-0.000476				-1.472319	1.209431	-43.005242
00116	118924	-0.168716	-0.115644	9.800926				-0.004578	-0.000007	-0.001470				-1.473639	1.209418	-43.005657
00117	118974	-0.199409	-0.105927	9.786225				-0.006668	-0.003792	-0.000553				-1.473501	1.208038	-43.003701
00118	119024	-0.194779	-0.085086	9.819986				-0.001415	0.000244	-0.001219				-1.473914	1.208099	-43.004051
00119	119074	-0.188262	-0.108762	9.793593				-0.005092	-0.001887	0.000221				-1.473313	1.207281	-43.004629
00120	119124	-0.164712	-0.126127	9.817450				-0.005195	0.002377	-0.000305				-1.474803	1.207959	-43.004737
00121	119174	-0.177919	-0.107447	9.800497				-0.004018	0.000289	-0.004132				-1.473922	1.207694	-42.996495
00122	119224	-0.187945	-0.118043	9.797195				-0.003532	0.000335	-0.001182				-1.474941	1.207781	-42.996844
00123	119274	-0.183511	-0.112767	9.803640				-0.002786	-0.000371	-0.005677				-1.473709	1.207350	-42.999099
00124	119324	-0.194318	-0.111773	9.792191				-0.003930	0.002913	-0.001809				-1.474847	1.208171	-42.999631
00125	119374	-0.203177	-0.119525	9.790084				-0.005076	-0.000600	-0.002817				-1.474251	1.207698	-43.001813
00126	119424	-0.199194	-0.092939	9.792213				-0.004794	-0.001037	0.001128				-1.475617	1.207410	-43.001477
00127	119474	-0.196026	-0.107786	9.810892				-0.000857	-0.000396	-0.003664				-1.473813	1.206979	-43.001012
00128	119524	-0.170750	-0.121480	9.792553				-0.003367	0.001511	0.001968				-1.474767	1.207426	-43.000467
00129	119574	-0.160481	-0.125116	9.800650				-0.006000	-0.001975	-0.003500				-1.474431	1.206552	-43.002042
00130	119624	-0.191072	-0.121599	9.801761				-0.001452	0.001474	-0.000443				-1.474849	1.206970	-43.002177
00131	119674	-0.181845	-0.113524	9.792130				-0.003077	0.000148	-0.002405				-1.473667	1.206716	-43.004876
00132	119724	-0.197913	-0.101980	9.812576				-0.004370	0.004751	-0.001442				-1.474929	1.208066	-43.005328
00133	119774	-0.168934	-0.114398	9.795652				-0.002965	-0.000427	-0.000517				-1.473700	1.207641	-43.002015
00134	119824	-0.184119	-0.136018	9.796227				-0.005762	-0.000352	-0.004322				-1.475377	1.207508	-43.003256
00135	119874	-0.183266	-0.119669	9.774639				-0.002294	-0.001641	-0.003671				-1.473969	1.206739	-43.008613
00136	119924	-0.191116	-0.104478	9.812786				-0.003114	0.000527	0.001498				-1.474852	1.206901	-43.008186
00137	119974	-0.190297	-0.117692	9.797199				-0.001528	-0.003099	0.001186				-1.473195	1.205726	-43.005739
00138	120024	-0.194391	-0.101327	9.796260				-0.007594	0.001022	-0.002781				-1.475388	1.205999	-43.006543
00139	120074	-0.199867	-0.130108	9.804440				-0.003684	0.002962	-0.004230				-1.474378	1.206519	-43.005739
00140	120124	-0.199438	-0.103448	9.797728				-0.003513	0.001842	-0.000770				-1.475389	1.207041	-43.005972
00141	120174	-0.183354	-0.118424	9.796212				-0.003698	-0.001621	-0.002138				-1.474366	1.206271	-43.005751
00142	120224	-0.196845	-0.093392	9.784046				-0.000694	0.002696	-0.002182				-1.474579	1.207027	-43.006400
00143	120274	-0.197791	-0.119811	9.798202				-0.006062	0.002176	-0.004900				-1.474246	1.207329	-43.008840
00144	120324	-0.187029	-0.123148	9.780892				-0.003223	-0.000484	-0.001808				-1.475180	1.207177	-43.009351
00145	120374	-0.170169	-0.121550	9.797579				-0.002275	0.002253	0.001089				-1.473725	1.207519	-43.002951
00146	120424	-0.191004	-0.114357	9.803920				-0.004700	0.002819	-0.002398				-1.475087	1.208309	-43.003666
00147	120474	-0.192830	-0.111277	9.801291				-0.005680	0.000113	-0.003275				-1.474626	1.208038	-43.006983
00148	120524	-0.188243	-0.117004	9.807019				-0.006217	-0.001729	0.000820				-1.476402	1.207549	-43.006722
00149	120574	-0.179896	-0.131732	9.796192				0.000748	-0.002319	-0.000034				-1.474081	1.206576	-43.001615
00150	120624	-0.192482	-0.125773	9.805847				-0.003626	0.001126	-0.003563				-1.475141	1.206873	-43.002631
00151	120674	-0.196135	-0.111185	9.798673				-0.002546	-0.000699	-0.002582				-1.473774	1.206383	-43.008693
00152	120724	-0.169822	-0.124426	9.801181				-0.003215	0.000422	-0.001328				-1.474703	1.206494	-43.009076
00153	120774	-0.188539	-0.126424	9.806307				-0.003102	-0.002926	0.003435				-1.473457	1.205388	-43.007379
00154	120824	-0.179466	-0.111485	9.798343				-0.002445	-0.002532	0.002022				-1.474145	1.204677	-43.006785
00155	120874	-0.190666	-0.133134	9.777802				-0.003386	-0.002067	0.000621				-1.472993	1.203797	-43.006114
00156	120924	-0.167926	-0.108735	9.822734				-0.007305	0.005294	-0.002027				-1.475098	1.205298	-43.006730
00157	120974	-0.176804	-0.114255	9.788513				-0.006411	0.001409	0.001574				-1.474807	1.205408	-43.003158
00158	121024	-0.178523	-0.116106	9.804336				-0.005690	0.000735	-0.000833				-1.476442	1.205612	-43.003402
00159	121074	-0.190080	-0.123614	9.805347				-0.005764	-0.002078	-0.001333				-1.475976	1.204725	-43.006664
00160	121124	-0.197891	-0.127406	9.797486				-0.005262	0.001425	-0.001346				-1.477492	1.205123	-43.007063
00161	121174	-0.198691	-0.108386	9.809704				-0.005240	0.002944	-0.000694				-1.476871	1.205674	-43.008937
00162	121224	-0.194820	-0.115286	9.798181				-0.004809	0.004500	-0.000851				-1.478254	1.206956	-43.009211
00163	121274	-0.186740	-0.117258	9.798388				-0.004206	-0.000890	-0.002128				-1.477344	1.206363	-43.001854
00164	121324	-0.181251	-0.141721	9.789498				-0.002568	0.000345	0.001909				-1.478068	1.206476	-43.001321
00165	121374	-0.206873	-0.097186	9.818615				-0.004058	-0.001338	-0.003126				-1.477117	1.205774	-43.001659
00166	121424	-0.189753	-0.110531	9.792408				-0.002074	0.001830	-0.002732				-1.477728	1.206278	-43.002452
00167	121474	-0.202480	-0.117555	9.788634				-0.001671	0.000192	-0.001520				-1.476078	1.206031	-43.003757
00168	121524	-0.191669	-0.129216	9.796017				-0.004834	0.000978	-0.002086				-1.477476	1.206296	-43.004367
00169	121574	-0.181109	-0.115833	9.791166				-0.001529	0.000840	-0.002036				-1.475789	1.206203	-42.998170
00170	121624	-0.201149	-0.112938	9.797029				-0.003483	0.000773	-0.001899				-1.476798	1.206410	-42.998713
00171	121674	-0.184351	-0.115886	9.814431				-0.005459	0.001580	-0.002372				-1.476232	1.206569	-43.004083
00172	121724	-0.185363	-0.129432	9.813716				-0.006098	0.002339	-0.003909				-1.478003	1.207210	-43.005222
00173	121774	-0.196599	-0.103903	9.824075				-0.008715	-0.002000	-0.001482				-1.478361	1.206341	-43.007964
00174	121824	-0.180220	-0.119377	9.771276				-0.003962	-0.000501	-0.004505				-1.479523	1.206165	-43.009264
00175	121874	-0.180488	-0.125920	9.799557				-0.001947	-0.000066	0.000689				-1.477926	1.205860	-43.009950
00176	121924	-0.178304	-0.111970	9.802414				-0.001043	-0.002611	-0.003145				-1.478243	1.205089	-43.010823
00177	121974	-0.179125	-0.103977	9.806971				-0.002196	-0.002267	0.001063				-1.476712	1.204152	-43.010301
00178	122024	-0.194568	-0.122041	9.788840				-0.005952	0.000154	0.001631				-1.478407	1.204208	-43.009833
00179	122074	-0.193091	-0.117410	9.810402				-0.000023	0.002072	0.001046				-1.476252	1.204512	-43.009416
00180	122124	-0.186232	-0.115360	9.797428				-0.003488	-0.002466	-0.004546				-1.477278	1.203773	-43.010694
00181	122174	-0.191457	-0.127425	9.806318				-0.005274	-0.000358	-0.002123				-1.476643	1.203340	-43.006470
00182	122224	-0.170634	-0.126993	9.778181				-0.006382	0.000734	0.004070				-1.478448	1.203580	-43.005318
00183	122274	-0.185554	-0.120158	9.799580				-0.005776	0.000349	-0.000355				-1.477942	1.203374	-43.003761
00184	122324	-0.186389	-0.116656	9.802460				-0.007417	0.000808	0.000325				-1.480065	1.203608	-43.003671
00185	122374	-0.192703	-0.115717	9.786434				-0.003135	0.000810	-0.003244				-1.478813	1.203553	-43.014025
00186	122424	-0.196614	-0.116592	9.811621				0.000232	-0.000802	0.003310				-1.478727	1.203348	-43.013066
00187	122474	-0.185114	-0.123533	9.805084				-0.002911	-0.000420	-0.004922				-1.477428	1.202822	-42.995502
00188	122524	-0.188553	-0.104638	9.805101				-0.004566	0.004928	-0.000110				-1.478738	1.204232	-42.995576
00189	122574	-0.194574	-0.110753	9.803215				-0.002672	0.001366	-0.003696				-1.477351	1.204319	-43.002281
00190	122624	-0.200826	-0.119888	9.804449				-0.002100	-0.002234	0.001451				-1.477943	1.203690	-43.001847
00191	122674	-0.190426	-0.123858	9.805361				-0.006274	0.003018	-0.001112				-1.477568	1.204279	-43.010220
00192	122724	-0.197106	-0.087775	9.800834				-0.003767	-0.000528	-0.004052				-1.478672	1.204098	-43.011381
00193	122774	-0.185655	-0.124316	9.809887				-0.003868	0.001803	-0.003114				-1.477620	1.204279	-43.008365
00194	122824	-0.191770	-0.115399	9.797689				-0.001504	-0.001200	-0.002943				-1.478068	1.203913	-43.009205
00195	122874	-0.177586	-0.116203	9.815583				-0.001174	-0.002189	0.000546				-1.476221	1.202960	-43.000195
00196	122924	-0.182495	-0.121512	9.797406				-0.004683	0.002337	-0.001886				-1.477574	1.203615	-43.000762
00197	122974	-0.199244	-0.101047	9.793416				-0.006903	-0.003687	-0.002394				-1.477375	1.202278	-43.010942
00198	123024	-0.198909	-0.115884	9.791496				-0.003731	-0.001525	-0.001265				-1.478451	1.201832	-43.011301
00199	123074	-0.173748	-0.109951	9.799513				-0.003070	-0.002427	-0.004450				-1.477168	1.200781	-43.005679
00200	123124	-0.199269	-0.110091	9.799166				-0.004379	-0.001182	-0.000271				-1.478425	1.200440	-43.005755
00201	123174	-0.188514	-0.124411	9.785934				-0.002462	0.000791	-0.002351				-1.476951	1.200329	-43.000788
00202	123224	-0.181536	-0.124506	9.810824				-0.005206	-0.000586	-0.003152				-1.478462	1.200138	-43.001690
00203	123274	-0.205970	-0.129184	9.801602				-0.004588	0.001072	-0.004135				-1.477606	1.200098	-42.998303
00204	123324	-0.195774	-0.120577	9.804182				-0.004101	0.005388	-0.001357				-1.478790	1.201631	-42.998735
00205	123374	-0.185952	-0.112756	9.800539				-0.003085	0.001359	-0.002413				-1.477484	1.201738	-43.008454
00206	123424	-0.180275	-0.138101	9.800517				-0.003283	-0.001944	-0.004254				-1.478450	1.201150	-43.009657
00207	123474	-0.187331	-0.116660	9.801263				-0.004020	0.000504	-0.001582				-1.477411	1.200964	-43.005332
00208	123524	-0.188645	-0.136684	9.797197				-0.001524	-0.000484	-0.001171				-1.477854	1.200817	-43.005664
00209	123574	-0.183392	-0.115384	9.789496				-0.002521	-0.001509	-0.003072				-1.476388	1.200073	-43.009380
00210	123624	-0.181412	-0.110232	9.789484				-0.004019	0.002310	-0.004039				-1.477564	1.200705	-43.010548
00211	123674	-0.185103	-0.120216	9.791907				-0.004236	0.000008	-0.005626				-1.476602	1.200367	-43.012499
00212	123724	-0.173161	-0.137628	9.792091				-0.003063	-0.000053	0.002103				-1.477467	1.200367	-43.011898
00213	123774	-0.168944	-0.135381	9.800456				-0.004346	-0.001206	0.001267				-1.476493	1.199720	-43.008949
00214	123824	-0.169037	-0.143140	9.824901				-0.006142	0.001727	-0.002111				-1.478266	1.200199	-43.009568
00215	123874	-0.175191	-0.125255	9.784908				-0.003570	0.001545	-0.002539				-1.477093	1.200302	-43.005930
00216	123924	-0.189553	-0.113504	9.781864				-0.003661	-0.001951	-0.003871				-1.478165	1.199715	-43.007036
00217	123974	-0.179331	-0.122060	9.787326				-0.006754	0.001011	0.000577				-1.477882	1.199687	-43.002365
00218	124024	-0.198650	-0.107913	9.797964				-0.002821	0.002042	-0.002570				-1.478706	1.200253	-43.003117
00219	124074	-0.188076	-0.123603	9.819480				-0.005398	0.000743	0.000191				-1.478031	1.200164	-43.003549
00220	124124	-0.183441	-0.099377	9.790456				-0.006289	0.002336	-0.002781				-1.479850	1.200813	-43.004359
00221	124174	-0.201886	-0.102452	9.822901				-0.005344	-0.001267	-0.001903				-1.479168	1.200143	-43.007970
00222	124224	-0.181239	-0.127648	9.810820				-0.004978	-0.002547	-0.000472				-1.480596	1.199411	-43.008093
00223	124274	-0.179803	-0.116289	9.813207				-0.006094	0.001439	-0.000861				-1.480121	1.199513	-43.008974
00224	124324	-0.179590	-0.124242	9.812493				-0.002848	-0.003190	-0.001539				-1.480946	1.198589	-43.009385
00225	124374	-0.180803	-0.117200	9.795238				-0.004719	-0.001705	-0.000881				-1.480073	1.197777	-43.006673
00226	124424	-0.178952	-0.126430	9.811294				-0.004731	0.001786	-0.002854				-1.481445	1.198267	-43.007506
00227	124474	-0.213495	-0.108781	9.808583				-0.004148	0.001932	0.001574				-1.480389	1.198552	-43.014062
00228	124524	-0.194118	-0.118614	9.794827				-0.009171	0.000380	-0.001148				-1.483023	1.198652	-43.014387
00229	124574	-0.185969	-0.126528	9.794788				-0.005959	0.001024	-0.001445				-1.482507	1.198583	-43.002855
00230	124624	-0.201946	-0.113793	9.806849				-0.001904	0.000676	-0.001551				-1.483062	1.198765	-43.003306
00231	124674	-0.190960	-0.130433	9.801054				-0.004375	0.001398	-0.004490				-1.482100	1.198841	-43.008463
00232	124724	-0.194173	-0.099501	9.796497				-0.001157	0.000069	-0.002935				-1.482449	1.198839	-43.009306
00233	124774	-0.177541	-0.120693	9.818463				-0.000247	-0.001470	-0.004041				-1.480300	1.198085	-43.010988
00234	124824	-0.190980	-0.122363	9.786188				-0.003421	0.000907	0.000121				-1.481279	1.198346	-43.010970
00235	124874	-0.191607	-0.116628	9.801767				-0.002436	0.002152	-0.001059				-1.479738	1.198634	-43.007482
00236	124924	-0.189116	-0.117409	9.789290				-0.003486	-0.000267	-0.002836				-1.480754	1.198536	-43.008305
00237	124974	-0.191909	-0.100380	9.787377				-0.004467	-0.001705	-0.003452				-1.479804	1.197712	-43.008093
00238	125024	-0.203892	-0.103246	9.791519				-0.007618	0.000925	-0.002595				-1.482002	1.197958	-43.008843
00239	125074	-0.186715	-0.128241	9.801505				-0.004846	0.002397	-0.002915				-1.481154	1.198314	-43.009029
00240	125124	-0.185471	-0.116609	9.798620				-0.005686	-0.003234	0.001452				-1.482774	1.197399	-43.008592
00241	125174	-0.184374	-0.125155	9.802201				-0.003780	-0.000370	-0.005753				-1.481636	1.196930	-43.006658
00242	125224	-0.182932	-0.126127	9.791656				-0.003999	0.003125	0.000582				-1.482778	1.197829	-43.006517
00243	125274	-0.181726	-0.121770	9.796679				-0.006452	-0.000802	-0.003119				-1.482384	1.197287	-43.011868
00244	125324	-0.172802	-0.121409	9.805499				-0.001790	0.001194	0.000568				-1.482893	1.197632	-43.011718
00245	125374	-0.185130	-0.117780	9.776566				0.000805	-0.003324	-0.001933				-1.480412	1.196344	-43.008571
00246	125424	-0.191295	-0.123859	9.803208				-0.004481	0.002346	0.002024				-1.481683	1.197031	-43.008002
00247	125474	-0.177419	-0.116715	9.824700				-0.008610	0.000036	-0.001185				-1.481889	1.196743	-43.013449
00248	125524	-0.185442	-0.134303	9.797183				-0.001656	0.002676	-0.004077				-1.482388	1.197480	-43.014629
00249	125574	-0.199343	-0.102463	9.799881				-0.001693	-0.000065	-0.000498				-1.480608	1.197144	-43.013876
00250	125624	-0.186573	-0.117545	9.814916				-0.004461	-0.002701	-0.000954				-1.481892	1.196363	-43.014141
00251	125674	-0.192789	-0.117638	9.812312				-0.005998	-0.001790	-0.000429				-1.481338	1.195537	-43.013975
00252	125724	-0.216063	-0.095535	9.798528				-0.002208	-0.003012	0.000549				-1.481967	1.194679	-43.013784
00253	125774	-0.207382	-0.133206	9.802808				-0.001286	0.000529	0.001303				-1.480050	1.194543	-43.016612
00254	125824	-0.197750	-0.111203	9.797003				-0.004250	-0.004709	-0.004654				-1.481294	1.193161	-43.017902
00255	125874	-0.199745	-0.114024	9.791501				-0.003113	0.002398	-0.001184				-1.479914	1.193518	-43.014769
00256	125924	-0.189689	-0.111614	9.797921				-0.006056	-0.000919	-0.000263				-1.481651	1.193252	-43.014841
00257	125974	-0.192685	-0.102074	9.803677				-0.006314	-0.002930	-0.001656				-1.481187	1.192082	-43.012305
00258	126024	-0.197497	-0.099028	9.804420				-0.002623	-0.001825	0.001999				-1.481926	1.191575	-43.011710
00259	126074	-0.202083	-0.121546	9.805889				-0.000850	0.001760	-0.000104				-1.479883	1.191753	-43.006867
00260	126124	-0.181145	-0.123444	9.783257				-0.005779	-0.000425	0.000540				-1.481535	1.191635	-43.006711
00261	126174	-0.187554	-0.122621	9.806782				-0.004743	0.002139	-0.002469				-1.480615	1.191937	-43.011325
00262	126224	-0.187503	-0.120169	9.803426				-0.002791	-0.000795	-0.000852				-1.481420	1.191703	-43.011571
00263	126274	-0.198739	-0.135951	9.797732				-0.004621	0.002339	-0.000636				-1.480454	1.192057	-43.010610
00264	126324	-0.188840	-0.123991	9.786655				-0.003232	0.000004	0.000148				-1.481379	1.192059	-43.010560
00265	126374	-0.192811	-0.124012	9.800808				-0.002256	0.004907	0.000367				-1.479729	1.193141	-43.005384
00266	126424	-0.186467	-0.127253	9.798389				-0.004481	0.001180	0.001119				-1.481005	1.193487	-43.005064
00267	126474	-0.192520	-0.113307	9.791941				-0.007593	0.000118	-0.001923				-1.480894	1.193193	-43.003929
00268	126524	-0.184489	-0.110527	9.801484				0.000308	-0.000715	-0.002752				-1.480822	1.192968	-43.004712
00269	126574	-0.182068	-0.116376	9.801717				-0.003955	0.000607	0.000668				-1.479647	1.192845	-43.006053
00270	126624	-0.200513	-0.114275	9.818823				-0.006943	-0.000258	-0.002407				-1.481650	1.192754	-43.006732
00271	126674	-0.189087	-0.109522	9.801748				-0.004997	0.002433	0.000743				-1.480770	1.193148	-43.006412
00272	126724	-0.192884	-0.111924	9.802970				-0.002714	0.000693	-0.001708				-1.481558	1.193334	-43.006899
00273	126774	-0.187633	-0.124650	9.796948				-0.006171	-0.001472	-0.001360				-1.481024	1.192587	-43.005202
00274	126824	-0.174347	-0.133858	9.824448				-0.002640	-0.000767	-0.002712				-1.481796	1.192348	-43.005966
00275	126874	-0.190464	-0.103400	9.786900				-0.004953	-0.000616	-0.005046				-1.480930	1.191841	-43.011426
00276	126924	-0.189753	-0.114896	9.814453				-0.002043	-0.001241	-0.001498				-1.481524	1.191475	-43.011845
00277	126974	-0.195508	-0.106657	9.793869				-0.004492	-0.000634	-0.000814				-1.480500	1.190967	-43.009030
00278	127024	-0.185500	-0.108043	9.800776				-0.003909	0.000181	-0.001551				-1.481629	1.191008	-43.009482
00279	127074	-0.195382	-0.119941	9.800104				-0.002448	0.000799	0.000730				-1.480006	1.190923	-43.006438
00280	127124	-0.192564	-0.112700	9.789068				-0.003191	0.001782	0.000575				-1.480917	1.191438	-43.006283
00281	127174	-0.192181	-0.129488	9.818311				-0.002366	-0.002380	-0.004260				-1.479295	1.190406	-43.004661
00282	127224	-0.172349	-0.125511	9.790888				-0.003564	0.000387	-0.000781				-1.480321	1.190511	-43.004892
00283	127274	-0.191394	-0.116957	9.813990				-0.006308	-0.000114	-0.001092				-1.479807	1.190166	-43.006281
00284	127324	-0.190749	-0.127365	9.799846				-0.004716	0.002370	-0.001661				-1.481168	1.190833	-43.006769
00285	127374	-0.204251	-0.101290	9.811171				-0.002948	0.000201	-0.000715				-1.479685	1.190593	-43.011067
00286	127424	-0.186123	-0.120977	9.812050				-0.002286	0.001603	0.000410				-1.480338	1.191055	-43.010966
00287	127474	-0.209407	-0.119512	9.796583				-0.006405	0.000583	-0.005930				-1.479874	1.190856	-43.008911
00288	127524	-0.169859	-0.117884	9.791354				-0.002370	0.001986	-0.002155				-1.480566	1.191408	-43.009540
00289	127574	-0.183121	-0.121319	9.785429				-0.005085	0.000710	-0.002637				-1.479699	1.191299	-43.014158
00290	127624	-0.195473	-0.114576	9.796754				-0.006746	0.002520	-0.004832				-1.481661	1.191985	-43.015552
00291	127674	-0.186839	-0.100947	9.797661				-0.004539	0.001891	0.000449				-1.480620	1.192202	-43.010373
00292	127724	-0.180353	-0.128187	9.807700				-0.002197	0.002934	0.001088				-1.481243	1.193050	-43.010081
00293	127774	-0.191629	-0.127310	9.788340				0.000582	0.000906	-0.002324				-1.478746	1.192986	-43.011240
00294	127824	-0.200697	-0.102540	9.812830				-0.006255	0.002538	-0.000533				-1.480542	1.193709	-43.011406
00295	127874	-0.190533	-0.103873	9.790737				-0.002117	0.002186	-0.002442				-1.478816	1.194010	-43.012753
00296	127924	-0.197243	-0.124263	9.795320				-0.004415	0.000950	-0.001862				-1.480092	1.194268	-43.013280
00297	127974	-0.205330	-0.109986	9.801353				-0.006545	0.003396	-0.003831				-1.479638	1.194913	-43.016518
00298	128024	-0.182000	-0.116893	9.790929				-0.005502	-0.001103	-0.000110				-1.481215	1.194596	-43.016544
00299	128074	-0.197177	-0.123432	9.804193				-0.003887	-0.001051	-0.005114				-1.480004	1.193945	-43.016947
00300	128124	-0.187646	-0.109772	9.813971				-0.006238	-0.002854	0.003058				-1.481772	1.193150	-43.016048
00301	128174	-0.190936	-0.103745	9.781383				-0.003409	-0.000650	-0.002421				-1.480405	1.192631	-43.014647
00302	128224	-0.192435	-0.112662	9.802956				-0.001009	0.001857	0.001693				-1.480684	1.193175	-43.014173
00303	128274	-0.197131	-0.116100	9.802752				-0.005786	0.002965	-0.000019				-1.479980	1.193703	-43.010752
00304	128324	-0.174371	-0.118339	9.799521				-0.003509	-0.001157	0.002484				-1.480971	1.193390	-43.010030
00305	128374	-0.190602	-0.105270	9.782104				-0.005520	-0.001524	-0.000653				-1.480190	1.192642	-43.010862
00306	128424	-0.191260	-0.127759	9.794098				-0.005967	0.002407	-0.002656				-1.481916	1.193312	-43.011648
00307	128474	-0.179723	-0.130893	9.793562				-0.003166	0.001109	0.001181				-1.480448	1.193322	-43.009366
00308	128524	-0.182857	-0.134029	9.806757				-0.008304	-0.000765	0.000093				-1.482826	1.193103	-43.009343
00309	128574	-0.186468	-0.128433	9.805095				-0.000041	0.001477	-0.001267				-1.480474	1.193211	-43.010854
00310	128624	-0.185129	-0.123160	9.802212				-0.000723	0.002126	0.002912				-1.480665	1.193842	-43.010039
00311	128674	-0.169168	-0.135883	9.793505				-0.000387	0.001282	-0.000238				-1.478403	1.193895	-43.009664
00312	128724	-0.194598	-0.122657	9.799869				-0.003991	-0.001299	0.000209				-1.479545	1.193525	-43.009590
00313	128774	-0.177657	-0.126263	9.803369				-0.003509	-0.000519	-0.003257				-1.478192	1.193058	-43.014907
00314	128824	-0.187813	-0.124301	9.809422				-0.003540	0.002711	-0.000989				-1.479212	1.193827	-43.015210
00315	128874	-0.177863	-0.126559	9.807691				-0.004339	-0.002569	-0.000600				-1.478082	1.192755	-43.010022
00316	128924	-0.188727	-0.124554	9.789531				-0.004059	-0.001107	0.000244				-1.479243	1.192440	-43.009943
00317	128974	-0.188052	-0.102057	9.813005				-0.001492	0.001711	-0.001580				-1.477302	1.192571	-43.001825
00318	129024	-0.199541	-0.126642	9.797491				-0.003413	0.000448	-0.003277				-1.478299	1.192676	-43.002762
00319	129074	-0.175114	-0.120149	9.795452				-0.002822	0.001210	-0.000522				-1.476725	1.192719	-43.006378
00320	129124	-0.201342	-0.114998	9.793668				-0.002643	0.000560	-0.002733				-1.477498	1.192860	-43.007162
00321	129174	-0.189303	-0.102388	9.788331				-0.001104	0.000720	-0.001138				-1.475434	1.192733	-43.004228
00322	129224	-0.175388	-0.117381	9.799529				-0.003085	0.001129	-0.004531				-1.476345	1.193023	-43.005530
00323	129274	-0.187122	-0.131571	9.802704				-0.003347	0.000652	0.000123				-1.474909	1.192919	-43.011149
00324	129324	-0.192964	-0.117427	9.825505				-0.007617	0.002161	0.001966				-1.477080	1.193552	-43.010602
00325	129374	-0.181580	-0.114406	9.819683				-0.003726	0.003415	-0.003742				-1.475776	1.194178	-43.008878
00326	129424	-0.184861	-0.130846	9.802933				-0.004723	0.003632	-0.000341				-1.477131	1.195216	-43.008994
00327	129474	-0.195650	-0.122492	9.810655				-0.002804	0.000721	-0.000461				-1.475539	1.195116	-43.011972
00328	129524	-0.179133	-0.122226	9.800265				-0.002513	0.001565	-0.000677				-1.476264	1.195559	-43.012183
00329	129574	-0.209239	-0.105804	9.779566				-0.001170	0.001851	0.000763				-1.474196	1.195760	-43.007070
00330	129624	-0.182883	-0.102082	9.823045				-0.001302	-0.000126	-0.001077				-1.474575	1.195717	-43.007377
00331	129674	-0.187688	-0.129972	9.790006				-0.003284	0.006689	-0.002704				-1.473128	1.197305	-43.009860
00332	129724	-0.185005	-0.118093	9.806284				-0.002325	0.002702	-0.002021				-1.473807	1.198064	-43.010463
00333	129774	-0.206218	-0.117995	9.815733				-0.002671	0.000566	-0.001032				-1.472169	1.197912	-43.012638
00334	129824	-0.171234	-0.145718	9.803103				-0.007420	-0.000229	0.001276				-1.474287	1.197855	-43.012274
00335	129874	-0.198749	-0.099239	9.804428				-0.004840	0.000487	0.000164				-1.473264	1.197668	-43.008725
00336	129924	-0.191971	-0.108241	9.816386				-0.007650	-0.000994	-0.000380				-1.475457	1.197380	-43.008821
00337	129974	-0.188393	-0.131944	9.814455				-0.002835	0.001900	-0.001789				-1.473865	1.197618	-43.015048
00338	130024	-0.199295	-0.110774	9.797729				-0.002038	0.000817	-0.001895				-1.474460	1.197838	-43.015604
00339	130074	-0.195667	-0.113672	9.788361				-0.002390	0.003044	0.000782				-1.472726	1.198372	-43.008050
00340	130124	-0.193643	-0.108193	9.805844				-0.002103	0.000717	-0.002853				-1.473345	1.198557	-43.008866
00341	130174	-0.178602	-0.118875	9.777251				-0.001215	0.000285	0.000250				-1.471272	1.198324	-43.008430
00342	130224	-0.157995	-0.128812	9.790808				-0.000229	-0.000538	0.001334				-1.471329	1.198180	-43.008042
00343	130274	-0.171152	-0.112859	9.796633				-0.005595	-0.001220	-0.002829				-1.470526	1.197491	-43.008431
00344	130324	-0.195314	-0.124990	9.806342				-0.000772	0.000156	-0.002220				-1.470760	1.197519	-43.009064
00345	130374	-0.171104	-0.133229	9.795433				-0.004169	0.001560	0.001452				-1.469521	1.197640	-43.003527
00346	130424	-0.191862	-0.110041	9.785708				-0.005951	0.001043	0.001036				-1.471220	1.197947	-43.003240
00347	130474	-0.184940	-0.120909	9.803404				-0.004014	0.002527	-0.002616				-1.469957	1.198336	-43.004697
00348	130524	-0.174862	-0.112559	9.810787				-0.001340	0.002158	-0.000701				-1.470346	1.198948	-43.004920
00349	130574	-0.176653	-0.113485	9.806002				-0.005189	0.001149	-0.001658				-1.469411	1.198946	-43.005403
00350	130624	-0.192203	-0.111217	9.804166				-0.001720	0.000986	-0.001571				-1.469913	1.199217	-43.005858
00351	130674	-0.186702	-0.120415	9.787603				-0.003178	0.000311	-0.001410				-1.468396	1.198977	-43.006260
00352	130724	-0.181137	-0.114156	9.801234				-0.003656	0.000368	-0.000703				-1.469448	1.199077	-43.006468
00353	130774	-0.206351	-0.099091	9.792970				-0.000849	0.000902	-0.000610				-1.467255	1.199023	-43.009833
00354	130824	-0.189517	-0.109331	9.800555				-0.005369	-0.001577	-0.004334				-1.468819	1.198540	-43.011067
00355	130874	-0.178077	-0.116173	9.808163				-0.005246	0.000051	-0.000447				-1.467880	1.198232	-43.011517
00356	130924	-0.162387	-0.129074	9.814080				-0.003032	-0.003271	-0.000795				-1.468753	1.197289	-43.011718
00357	130974	-0.187850	-0.114148	9.807740				-0.005252	-0.000891	-0.001925				-1.467824	1.196690	-43.009826
00358	131024	-0.190146	-0.106113	9.800553				-0.001229	-0.003535	-0.001214				-1.468183	1.195669	-43.010146
00359	131074	-0.171739	-0.135881	9.783935				-0.003966	0.000007	0.000379				-1.466867	1.195338	-43.006623
00360	131124	-0.198853	-0.109789	9.799879				-0.000364	0.000653	-0.001483				-1.466980	1.195514	-43.007049
00361	131174	-0.194383	-0.115951	9.799626				-0.003511	-0.001216	-0.001419				-1.465541	1.194847	-43.011040
00362	131224	-0.183050	-0.126947	9.783749				-0.003609	-0.000312	-0.001962				-1.466586	1.194743	-43.011599
00363	131274	-0.194637	-0.116146	9.799146				-0.003673	0.000881	-0.001278				-1.465191	1.194668	-43.013124
00364	131324	-0.189175	-0.109428	9.819247				-0.008635	0.000958	-0.000782				-1.467669	1.194937	-43.013360
00365	131374	-0.195294	-0.125368	9.810173				-0.003374	-0.001663	-0.001518				-1.466189	1.194094	-43.005447
00366	131424	-0.199953	-0.112493	9.800129				-0.004357	-0.000582	0.000769				-1.467433	1.193933	-43.005229
00367	131474	-0.196634	-0.132528	9.796521				-0.003447	0.000786	-0.002630				-1.465975	1.193807	-43.003463
00368	131524	-0.179678	-0.116152	9.801939				-0.007021	-0.000660	-0.000190				-1.467987	1.193617	-43.003516
00369	131574	-0.184070	-0.117971	9.817301				-0.003585	0.001440	0.001159				-1.466543	1.193724	-43.005487
00370	131624	-0.178007	-0.142520	9.799543				-0.001703	0.001170	-0.004202				-1.467056	1.194028	-43.006695
00371	131674	-0.165162	-0.128593	9.809063				-0.003283	0.004162	0.001461				-1.465523	1.194909	-43.006766
00372	131724	-0.187775	-0.122442	9.795277				-0.002889	0.004682	-0.000845				-1.466357	1.196244	-43.007040
00373	131774	-0.197985	-0.112481	9.786461				-0.003713	0.001112	-0.000861				-1.464958	1.196218	-43.003922
00374	131824	-0.187962	-0.121932	9.809661				-0.002600	0.000255	-0.001925				-1.465714	1.196277	-43.004476
00375	131874	-0.202971	-0.107199	9.799660				-0.000919	0.002133	-0.000223				-1.463510	1.196533	-42.997516
00376	131924	-0.195650	-0.116796	9.807064				-0.003299	-0.000726	-0.001419				-1.464463	1.196315	-42.997913
00377	131974	-0.184625	-0.125766	9.807961				-0.006353	0.001644	-0.000276				-1.463811	1.196460	-42.998139
00378	132024	-0.173533	-0.110441	9.802152				-0.001032	0.000381	-0.000712				-1.464110	1.196564	-42.998341
00379	132074	-0.176794	-0.133338	9.787313				-0.002019	0.000267	-0.000939				-1.462211	1.196356	-43.010284
00380	132124	-0.189816	-0.122911	9.793607				-0.003944	0.001428	-0.001886				-1.463353	1.196750	-43.010839
00381	132174	-0.197390	-0.125128	9.792455				-0.002477	0.000352	-0.002889				-1.461603	1.196468	-43.002686
00382	132224	-0.172177	-0.132384	9.809341				-0.001584	0.000794	0.000449				-1.462055	1.196699	-43.002571
00383	132274	-0.205257	-0.123713	9.797040				-0.004752	-0.000396	-0.001186				-1.460941	1.196239	-43.000044
00384	132324	-0.190092	-0.118558	9.786185				-0.005381	0.001077	-0.002910				-1.462501	1.196526	-43.000893
00385	132374	-0.188588	-0.109923	9.792879				-0.005203	0.000568	-0.001822				-1.461515	1.196364	-43.005132
00386	132424	-0.186086	-0.113161	9.818510				-0.006896	0.002636	-0.002418				-1.463506	1.197101	-43.005845
00387	132474	-0.173130	-0.121574	9.792328				-0.004625	0.001578	-0.001948				-1.462354	1.197206	-43.004533
00388	132524	-0.178530	-0.122410	9.815596				-0.003970	0.000103	-0.001287				-1.463499	1.197225	-43.004909
00389	132574	-0.172183	-0.120614	9.783220				-0.002797	0.002842	0.000685				-1.461804	1.197734	-43.009033
00390	132624	-0.186017	-0.116812	9.792150				-0.000202	-0.001513	-0.001044				-1.461868	1.197293	-43.009319
00391	132674	-0.191893	-0.115733	9.807753				-0.000266	-0.000411	0.000889				-1.459450	1.196798	-42.995452
00392	132724	-0.183696	-0.139228	9.800529				-0.000456	0.001622	-0.000357				-1.459583	1.197260	-42.995563
00393	132774	-0.188897	-0.122071	9.790008				-0.000621	0.003520	-0.003614				-1.457283	1.197949	-43.005900
00394	132824	-0.172721	-0.109399	9.775070				-0.004774	-0.000014	-0.003915				-1.458675	1.197917	-43.007030
00395	132874	-0.188878	-0.107543	9.797199				-0.002920	0.000382	-0.000164				-1.457018	1.197636	-42.992111
00396	132924	-0.193935	-0.122178	9.801297				-0.006102	0.001583	-0.002645				-1.458782	1.198070	-42.992882
00397	132974	-0.195315	-0.105105	9.801538				-0.003369	-0.000828	-0.003473				-1.457263	1.197499	-42.999323
00398	133024	-0.181227	-0.108268	9.789968				-0.003814	0.002205	-0.001851				-1.458367	1.198117	-42.999861
00399	133074	-0.182053	-0.118104	9.797399				-0.002409	0.001328	-0.002563				-1.456567	1.198134	-42.996793
00400	133124	-0.199602	-0.127664	9.785994				-0.002759	-0.002524	0.001366				-1.457349	1.197421	-42.996387
00401	133174	-0.197154	-0.098794	9.803704				-0.006379	0.002813	0.001656				-1.456653	1.197957	-43.008214
00402	133224	-0.195788	-0.108487	9.805143				-0.004908	-0.000627	-0.002054				-1.458071	1.197763	-43.008808
00403	133274	-0.185346	-0.127223	9.807966				-0.005545	0.001336	-0.001114				-1.457159	1.197753	-42.995493
00404	133324	-0.182744	-0.117492	9.802681				-0.002737	-0.001556	-0.001420				-1.457951	1.197297	-42.995882
00405	133374	-0.190803	-0.120812	9.778754				-0.003704	0.002918	-0.001398				-1.456505	1.197785	-42.994689
00406	133424	-0.195401	-0.124529	9.817122				-0.005182	-0.000118	-0.002213				-1.458003	1.197735	-42.995317
00407	133474	-0.177996	-0.122387	9.782282				-0.003489	-0.002891	0.000814				-1.456476	1.196607	-43.001221
00408	133524	-0.175825	-0.115118	9.769095				-0.006532	-0.003346	-0.004727				-1.458375	1.195614	-43.002552
00409	133574	-0.186891	-0.110204	9.800537				-0.003540	-0.000208	0.000699				-1.456868	1.195190	-42.993039
00410	133624	-0.184058	-0.112684	9.809153				-0.004753	-0.000557	-0.001672				-1.458240	1.195019	-42.993520
00411	133674	-0.192857	-0.121166	9.795300				-0.006571	-0.001884	-0.001767				-1.457609	1.194123	-42.991285
00412	133724	-0.183617	-0.118067	9.791660				-0.003552	-0.000890	-0.000872				-1.458631	1.193861	-42.991528
00413	133774	-0.195510	-0.106219	9.804179				-0.000154	-0.001191	-0.002611				-1.456164	1.193164	-42.991132
00414	133824	-0.165992	-0.126531	9.804748				-0.001380	0.000077	-0.003539				-1.456580	1.193161	-42.992142
00415	133874	-0.172395	-0.127967	9.796639				-0.004172	0.001523	-0.000218				-1.455244	1.193293	-43.000102
00416	133924	-0.196240	-0.113554	9.807293				-0.004928	0.001417	0.000107				-1.456655	1.193699	-43.000076
00417	133974	-0.167921	-0.131250	9.808360				-0.005926	0.002199	-0.001494				-1.455830	1.193974	-42.997857
00418	134024	-0.189085	-0.127822	9.794086				-0.002444	0.002487	-0.002462				-1.456545	1.194668	-42.998588
00419	134074	-0.186593	-0.113730	9.800057				-0.001062	0.001670	-0.000127				-1.454316	1.194806	-42.997598
00420	134124	-0.174607	-0.106654	9.799043				-0.001857	0.001236	-0.002311				-1.454862	1.195143	-42.998279
00421	134174	-0.190019	-0.127574	9.806311				-0.001395	0.006670	-0.005523				-1.452759	1.196656	-42.994469
00422	134224	-0.190947	-0.117156	9.804400				-0.002670	0.002877	0.000913				-1.453519	1.197486	-42.994233
00423	134274	-0.174339	-0.111896	9.811022				-0.006838	0.002664	-0.003637				-1.452959	1.197898	-42.998217
00424	134324	-0.189047	-0.125228	9.802712				-0.004140	-0.001445	0.000890				-1.454139	1.197490	-42.997947
00425	134374	-0.183347	-0.126353	9.792141				-0.002947	0.001249	-0.001089				-1.452449	1.197473	-42.990732
00426	134424	-0.180682	-0.116542	9.812005				-0.004897	-0.000983	-0.002506				-1.453867	1.197174	-42.991432
00427	134474	-0.176367	-0.114745	9.794020				-0.005411	0.001178	-0.000987				-1.452875	1.197189	-42.997758
00428	134524	-0.181637	-0.100277	9.809861				-0.004972	0.000639	0.001029				-1.454293	1.197380	-42.997469
00429	134574	-0.183513	-0.097127	9.803163				-0.003141	0.001543	-0.000313				-1.452646	1.197474	-42.996036
00430	134624	-0.164561	-0.140885	9.802111				-0.001087	-0.002179	-0.003679				-1.452979	1.196823	-42.997071
00431	134674	-0.203189	-0.080411	9.834651				-0.006731	0.000671	0.000625				-1.452353	1.196658	-42.991607
00432	134724	-0.187307	-0.114796	9.793832				-0.003301	-0.000019	-0.004076				-1.453324	1.196623	-42.992776
00433	134774	-0.176162	-0.143741	9.788032				-0.001464	-0.000247	-0.003056				-1.451202	1.196212	-42.999276
00434	134824	-0.178757	-0.127051	9.798348				-0.007924	-0.001614	-0.001733				-1.453482	1.195738	-42.999766
00435	134874	-0.180967	-0.110698	9.796918				-0.000587	0.002687	-0.001021				-1.451096	1.196177	-43.004863
00436	134924	-0.189229	-0.112548	9.794798				-0.007287	0.001495	-0.002451				-1.453199	1.196588	-43.005581
00437	134974	-0.200070	-0.123223	9.807319				-0.002337	-0.000707	-0.000135				-1.451312	1.195995	-42.993570
00438	135024	-0.186184	-0.134647	9.788804				-0.002748	-0.003669	-0.006118				-1.452135	1.194899	-42.995299
00439	135074	-0.168112	-0.120798	9.786308				-0.000543	0.000061	-0.003060				-1.449745	1.194559	-42.997596
00440	135124	-0.191907	-0.095109	9.804873				-0.002307	0.000229	-0.001510				-1.450415	1.194613	-42.998029
00441	135174	-0.198579	-0.111026	9.795567				-0.006910	0.001050	-0.001077				-1.449832	1.194577	-43.001852
00442	135224	-0.182819	-0.116158	9.805314				-0.003476	0.001854	-0.001630				-1.450838	1.195097	-43.002327
00443	135274	-0.194988	-0.109599	9.801297				-0.003854	-0.001246	0.002591				-1.449358	1.194404	-42.998813
00444	135324	-0.207270	-0.100037	9.801121				-0.004830	0.000155	0.000454				-1.450739	1.194452	-42.998689
00445	135374	-0.193580	-0.119089	9.805854				-0.002208	0.004207	-0.002676				-1.448815	1.195275	-42.994437
00446	135424	-0.195028	-0.108869	9.794591				-0.006571	0.002416	-0.000779				-1.450703	1.195961	-42.994688
00447	135474	-0.190444	-0.118980	9.810623				-0.005400	0.001153	0.001550				-1.449665	1.195952	-42.991968
00448	135524	-0.208478	-0.114311	9.788195				-0.004722	0.001577	-0.001208				-1.451025	1.196394	-42.992319
00449	135574	-0.192480	-0.108010	9.786906				0.000618	-0.002177	-0.000470				-1.448272	1.195407	-42.987698
00450	135624	-0.195376	-0.125003	9.810170				-0.007667	0.000750	0.000367				-1.450466	1.195624	-42.987596
00451	135674	-0.191885	-0.130985	9.792901				-0.004278	0.000609	-0.004042				-1.449132	1.195433	-42.989949
00452	135724	-0.197598	-0.114523	9.802513				0.000268	0.001185	0.001503				-1.449046	1.195784	-42.989519
00453	135774	-0.171825	-0.129044	9.790157				-0.002246	-0.001805	-0.000785				-1.447113	1.194879	-42.979398
00454	135824	-0.179166	-0.116171	9.789964				-0.006544	0.001546	-0.001107				-1.448995	1.195314	-42.979724
00455	135874	-0.189607	-0.108959	9.809897				-0.003994	0.000075	0.000608				-1.447543	1.195041	-42.990258
00456	135924	-0.177752	-0.113282	9.793303				-0.002778	-0.000299	-0.002924				-1.448357	1.194934	-42.991097
00457	135974	-0.170303	-0.131451	9.808851				-0.003577	-0.000147	-0.000967				-1.446792	1.194581	-43.000847
00458	136024	-0.179847	-0.114873	9.794038				-0.000174	-0.001149	0.000975				-1.446835	1.194259	-43.000557
00459	136074	-0.176402	-0.126887	9.784436				-0.002369	0.001431	0.001220				-1.444918	1.194288	-42.988752
00460	136124	-0.179702	-0.123778	9.782772				-0.003157	-0.001273	-0.000557				-1.445826	1.193919	-42.988895
00461	136174	-0.188427	-0.126073	9.800078				-0.002553	0.002640	-0.005570				-1.443994	1.194302	-42.993572
00462	136224	-0.195275	-0.103296	9.822147				-0.004230	0.002394	-0.001813				-1.445217	1.194974	-42.994120
00463	136274	-0.171791	-0.116727	9.819160				-0.005236	0.002728	-0.003481				-1.444139	1.195389	-42.995856
00464	136324	-0.198424	-0.101839	9.793167				-0.003108	0.000509	0.000644				-1.445026	1.195539	-42.995687
00465	136374	-0.191964	-0.118308	9.829326				-0.005148	-0.001149	-0.002249				-1.443910	1.194866	-43.000777
00466	136424	-0.184637	-0.121034	9.795018				-0.004893	0.001160	0.000522				-1.445309	1.195202	-43.000641
00467	136474	-0.184302	-0.124183	9.807956				-0.000965	-0.004116	-0.004812				-1.443016	1.193585	-42.987730
00468	136524	-0.196304	-0.109032	9.806817				-0.005549	0.001563	-0.000053				-1.444606	1.194032	-42.987758
00469	136574	-0.190464	-0.105095	9.790008				-0.002620	0.000964	-0.002854				-1.442769	1.193913	-42.981338
00470	136624	-0.188954	-0.116121	9.799116				-0.001993	0.000531	0.000960				-1.443334	1.194072	-42.981075
00471	136674	-0.177717	-0.121536	9.806727				-0.003617	-0.000796	-0.000422				-1.441757	1.193544	-42.993357
00472	136724	-0.191951	-0.110550	9.805838				-0.003657	0.001334	-0.001916				-1.442816	1.193912	-42.993912
00473	136774	-0.174036	-0.136332	9.803597				-0.000485	0.002061	-0.005294				-1.440376	1.194094	-42.989722
00474	136824	-0.194721	-0.130366	9.790277				-0.005390	0.000233	-0.004327				-1.441946	1.194130	-42.990971
00475	136874	-0.185689	-0.130715	9.795274				-0.003180	0.001539	-0.001311				-1.440257	1.194148	-42.975037
00476	136924	-0.197413	-0.108116	9.798201				-0.003830	0.000981	0.000424				-1.441352	1.194433	-42.974918
00477	136974	-0.204346	-0.107008	9.786242				-0.001123	0.003316	-0.002880				-1.439075	1.195008	-42.974388
00478	137024	-0.190679	-0.134298	9.807514				-0.004333	-0.000779	-0.003282				-1.440335	1.194761	-42.975317
00479	137074	-0.198840	-0.102221	9.785501				-0.001802	0.000466	-0.001609				-1.438241	1.194534	-42.975014
00480	137124	-0.178357	-0.108599	9.797628				-0.002960	0.000470	-0.002442				-1.439104	1.194651	-42.975714
00481	137174	-0.173848	-0.112272	9.802147				-0.007080	0.000945	-0.005090				-1.438537	1.194569	-42.984670
00482	137224	-0.183358	-0.112758	9.800284				-0.004119	0.001778	-0.002942				-1.439734	1.195057	-42.985528
00483	137274	-0.178493	-0.102949	9.798821				-0.002473	0.003688	0.000527				-1.437802	1.195870	-43.010199
00484	137324	-0.185500	-0.125258	9.811563				-0.003511	0.005123	-0.000680				-1.438813	1.197332	-43.010428
00485	137374	-0.188481	-0.112487	9.802221				0.002275	-0.001853	-0.000639				-1.435549	1.196329	-42.981168
00486	137424	-0.182174	-0.112100	9.796922				-0.000864	0.003093	-0.003810				-1.435821	1.197187	-42.982290
00487	137474	-0.168325	-0.121023	9.778410				-0.004300	0.001225	-0.003459				-1.434444	1.197134	-42.975665
00488	137524	-0.197689	-0.112497	9.816656				-0.004639	-0.000010	-0.001374				-1.435781	1.197121	-42.976062
00489	137574	-0.205712	-0.108477	9.798239				-0.003701	0.001846	-0.002076				-1.434214	1.197332	-42.988298
00490	137624	-0.196617	-0.111891	9.797234				-0.001288	-0.000197	0.003487				-1.434562	1.197301	-42.987299
00491	137674	-0.193568	-0.107567	9.796973				-0.002515	0.000116	-0.007509				-1.432692	1.196908	-42.983899
00492	137724	-0.174045	-0.119475	9.818691				-0.001334	-0.001110	0.000271				-1.433072	1.196593	-42.983814
00493	137774	-0.174105	-0.117404	9.797361				-0.006044	-0.003299	-0.001682				-1.432169	1.195312	-42.990712
00494	137824	-0.200026	-0.130398	9.837999				-0.004234	0.001456	-0.001980				-1.433394	1.195715	-42.991293
00495	137874	-0.195790	-0.108958	9.797467				0.001030	0.002266	0.000770				-1.430458	1.195963	-42.977291
00496	137924	-0.179112	-0.124907	9.794991				-0.001057	0.000456	0.001922				-1.430749	1.196108	-42.976743
00497	137974	-0.178333	-0.115957	9.796905				-0.003800	0.003820	-0.003349				-1.429209	1.196870	-42.988337
00498	138024	-0.194892	-0.116639	9.796501				-0.004084	-0.000190	-0.000227				-1.430381	1.196814	-42.988411
00499	138074	-0.198307	-0.114509	9.797010				-0.001875	0.001085	0.002503				-1.428264	1.196709	-42.967073
00500	138124	-0.187304	-0.115356	9.798627				-0.003452	-0.000055	-0.002055				-1.429265	1.196678	-42.967659
00501	138174	-0.183680	-0.124126	9.798848				-0.003904	0.001875	-0.004641				-1.427758	1.196862	-42.976575
00502	138224	-0.192784	-0.128906	9.814713				-0.001202	0.001704	-0.001378				-1.428111	1.197340	-42.976976
00503	138274	-0.180888	-0.100648	9.817290				-0.003219	-0.001471	-0.003570				-1.426400	1.196548	-42.979438
00504	138324	-0.180466	-0.111478	9.804822				-0.006482	0.001577	-0.000787				-1.428262	1.196994	-42.979675
00505	138374	-0.190831	-0.105873	9.812062				-0.004900	0.000346	-0.000701				-1.427019	1.196699	-42.970812
00506	138424	-0.195742	-0.095131	9.814240				-0.004748	-0.000657	-0.001287				-1.428387	1.196502	-42.971183
00507	138474	-0.169417	-0.115117	9.793500				-0.005895	-0.000571	0.002404				-1.427401	1.196012	-42.972665
00508	138524	-0.216428	-0.107192	9.799009				-0.002975	-0.001043	-0.002187				-1.428266	1.195697	-42.973288
00509	138574	-0.171736	-0.121011	9.795436				-0.002109	0.001040	-0.001447				-1.426218	1.195622	-42.971036
00510	138624	-0.201794	-0.105411	9.805645				-0.000916	0.000871	-0.001611				-1.426490	1.195860	-42.971509
00511	138674	-0.195600	-0.118664	9.788846				-0.003223	0.001894	-0.000986				-1.424746	1.196118	-42.990488
00512	138724	-0.181224	-0.140802	9.789739				-0.005867	-0.000806	-0.003178				-1.426445	1.195865	-42.991376
00513	138774	-0.191964	-0.125812	9.799136				-0.002567	0.001323	-0.001922				-1.424529	1.195864	-42.988656
00514	138824	-0.185884	-0.120738	9.814198				-0.000673	-0.001652	-0.000277				-1.424723	1.195389	-42.988719
00515	138874	-0.186145	-0.132844	9.807008				-0.004938	-0.001919	-0.002062				-1.423486	1.194415	-42.975108
00516	138924	-0.194955	-0.113950	9.803699				-0.004502	-0.001527	-0.003310				-1.424796	1.193954	-42.976045
00517	138974	-0.187599	-0.118465	9.812770				-0.003780	0.000139	-0.001509				-1.423222	1.193590	-42.966817
00518	139024	-0.190727	-0.110357	9.806313				-0.004194	-0.000969	-0.001513				-1.424433	1.193302	-42.967259
00519	139074	-0.177693	-0.128696	9.815596				0.000697	-0.001262	0.001454				-1.421556	1.192553	-42.955676
00520	139124	-0.188883	-0.097635	9.816605				-0.003356	0.002657	-0.006563				-1.422557	1.193268	-42.957579
00521	139174	-0.192559	-0.118849	9.795539				0.000020	0.001726	-0.000386				-1.419873	1.193467	-42.972865
00522	139224	-0.193810	-0.104969	9.793622				-0.005251	-0.000384	-0.006121				-1.421414	1.193313	-42.974621
00523	139274	-0.166294	-0.136944	9.805240				0.000739	-0.001179	-0.003965				-1.418546	1.192596	-42.976175
00524	139324	-0.189078	-0.112512	9.793838				-0.004274	0.003815	-0.001518				-1.419781	1.193678	-42.976644
00525	139374	-0.192307	-0.122027	9.790504				-0.006928	-0.002664	-0.002475				-1.419100	1.192541	-42.976863
00526	139424	-0.188051	-0.131914	9.822598				-0.002207	0.002271	-0.000121				-1.419734	1.193190	-42.976914
00527	139474	-0.175244	-0.115312	9.803841				-0.003739	0.002749	-0.003964				-1.418146	1.193607	-42.981001
00528	139524	-0.194184	-0.119347	9.789078				-0.003114	0.002744	0.001166				-1.419031	1.194401	-42.980679
00529	139574	-0.180139	-0.125764	9.786614				-0.002925	-0.000690	-0.002927				-1.417201	1.193843	-42.985187
00530	139624	-0.181771	-0.118189	9.804353				-0.002443	-0.001846	-0.003508				-1.417922	1.193289	-42.986182
00531	139674	-0.211910	-0.112900	9.804737				-0.000767	0.000096	-0.001773				-1.415469	1.192919	-42.979317
00532	139724	-0.192109	-0.115328	9.800089				0.000169	0.001655	-0.006350				-1.415459	1.193348	-42.981144
00533	139774	-0.172490	-0.133454	9.799517				-0.002881	-0.002044	-0.001809				-1.413616	1.192297	-42.957576
00534	139824	-0.171029	-0.115541	9.806931				-0.003861	0.002719	-0.003419				-1.414743	1.193051	-42.958584
00535	139874	-0.199796	-0.106553	9.796769				-0.006551	-0.000425	-0.002749				-1.413954	1.192483	-42.941934
00536	139924	-0.197453	-0.113312	9.808026				-0.006174	0.003275	-0.000674				-1.415727	1.193416	-42.942147
00537	139974	-0.162073	-0.149345	9.793477				-0.003026	-0.000097	0.000740				-1.413892	1.193068	-42.949275
00538	140024	-0.183990	-0.117198	9.808197				-0.006352	-0.001288	-0.000831				-1.415717	1.192693	-42.949505
00539	140074	-0.196941	-0.113841	9.805624				-0.000787	0.002106	0.000522				-1.413247	1.192933	-42.946923
00540	140124	-0.190307	-0.116457	9.818053				-0.002822	0.001322	-0.002938				-1.414073	1.193291	-42.947774
00541	140174	-0.195625	-0.114810	9.802263				-0.002863	-0.000388	-0.002305				-1.412210	1.192802	-42.947487
00542	140224	-0.188137	-0.112275	9.811814				-0.003664	0.000828	0.000361				-1.413258	1.193042	-42.947397
00543	140274	-0.186475	-0.118164	9.808926				-0.004964	0.002490	-0.000846				-1.411989	1.193379	-42.944303
00544	140324	-0.184621	-0.125735	9.826657				-0.004286	-0.002805	0.000346				-1.413214	1.192578	-42.944174
00545	140374	-0.187097	-0.127280	9.800303				-0.003640	-0.003315	-0.003573				-1.411572	1.191286	-42.955169
00546	140424	-0.169238	-0.134183	9.800699				-0.003527	0.002277	-0.002902				-1.412600	1.191918	-42.956010
00547	140474	-0.182632	-0.118915	9.775360				-0.001160	0.002582	-0.001719				-1.410244	1.192263	-42.950929
00548	140524	-0.189343	-0.092274	9.806301				-0.003774	0.000379	0.001224				-1.411317	1.192381	-42.950578
00549	140574	-0.184030	-0.106946	9.789261				-0.006516	-0.000420	-0.000985				-1.410478	1.191952	-42.964914
00550	140624	-0.179630	-0.101655	9.804334				-0.006054	-0.000900	-0.003586				-1.412234	1.191669	-42.965940
00551	140674	-0.201830	-0.114337	9.789111				-0.006565	0.000224	-0.002550				-1.411427	1.191310	-42.955605
00552	140724	-0.210128	-0.115341	9.796587				-0.003242	0.000311	-0.003362				-1.412375	1.191376	-42.956575
00553	140774	-0.189948	-0.129462	9.804398				-0.001612	-0.000527	-0.001351				-1.410138	1.190826	-42.949451
00554	140824	-0.193699	-0.111960	9.789310				-0.001004	-0.001454	-0.000107				-1.410426	1.190409	-42.949463
00555	140874	-0.186359	-0.120228	9.809165				-0.002190	0.000755	-0.000569				-1.408344	1.190265	-42.950075
00556	140924	-0.181371	-0.120363	9.816335				-0.004742	-0.000385	0.001418				-1.409695	1.190164	-42.949680
00557	140974	-0.179001	-0.122556	9.786360				-0.007568	-0.001403	0.001066				-1.409140	1.189434	-42.954867
00558	141024	-0.189182	-0.103665	9.795037				-0.001791	0.002177	-0.003744				-1.409675	1.190031	-42.955947
00559	141074	-0.187056	-0.114058	9.794554				-0.000673	0.000098	-0.003050				-1.407176	1.189614	-42.941057
00560	141124	-0.191589	-0.108926	9.784503				-0.006980	0.001485	0.002044				-1.409164	1.190054	-42.940486
00561	141174	-0.196356	-0.105477	9.811854				-0.003852	0.003895	0.000831				-1.407541	1.190837	-42.945542
00562	141224	-0.188099	-0.114366	9.812288				-0.002793	-0.000022	0.003405				-1.408321	1.190855	-42.944563
00563	141274	-0.199263	-0.103747	9.792692				-0.000317	-0.000893	-0.001066				-1.405694	1.190254	-42.949984
00564	141324	-0.167293	-0.115454	9.795403				0.000874	0.000233	0.001854				-1.405432	1.190333	-42.949451
00565	141374	-0.183279	-0.110142	9.801240				-0.002073	-0.003182	-0.001493				-1.403311	1.189036	-42.946170
00566	141424	-0.193823	-0.109604	9.801534				-0.004365	0.001523	-0.001843				-1.404573	1.189460	-42.946712
00567	141474	-0.190412	-0.120639	9.825243				-0.006837	-0.003532	-0.002155				-1.403815	1.188090	-42.951616
00568	141524	-0.190729	-0.123545	9.799366				-0.004935	-0.001715	-0.000259				-1.405230	1.187596	-42.951681
00569	141574	-0.181049	-0.129487	9.777990				-0.003593	0.000243	-0.002783				-1.403547	1.187279	-42.950570
00570	141624	-0.192465	-0.123233	9.812078				-0.003755	-0.001960	-0.004172				-1.404648	1.186688	-42.951754
00571	141674	-0.192882	-0.104590	9.800330				-0.003058	-0.001036	0.000189				-1.402793	1.186013	-42.947155
00572	141724	-0.199997	-0.113803	9.801327				-0.008846	0.001444	-0.001702				-1.405337	1.186415	-42.947640
00573	141774	-0.198401	-0.101572	9.789576				-0.002098	-0.000247	-0.001889				-1.403222	1.185923	-42.936751
00574	141824	-0.194770	-0.137307	9.812328				-0.004821	-0.000230	-0.002110				-1.404616	1.185842	-42.937365
00575	141874	-0.182786	-0.104056	9.807232				-0.003935	0.003178	-0.002702				-1.403020	1.186414	-42.947975
00576	141924	-0.185698	-0.121520	9.778731				-0.005890	0.001077	-0.000819				-1.404713	1.186717	-42.948213
00577	141974	-0.167106	-0.132078	9.809073				-0.000820	-0.001491	-0.003733				-1.402229	1.185930	-42.955582
00578	142024	-0.196549	-0.111349	9.795793				-0.001458	-0.002337	-0.003223				-1.402666	1.185238	-42.956498
00579	142074	-0.198853	-0.107077	9.803713				-0.004277	0.000416	-0.006148				-1.401191	1.184929	-42.952308
00580	142124	-0.188446	-0.125104	9.801990				-0.002281	0.002527	-0.002201				-1.401858	1.185637	-42.952960
00581	142174	-0.193129	-0.113265	9.818545				-0.006768	-0.000618	-0.002456				-1.401074	1.185039	-42.942983
00582	142224	-0.200026	-0.110693	9.806362				-0.005228	0.000274	-0.004542				-1.402599	1.185086	-42.944285
00583	142274	-0.187528	-0.126738	9.781857				-0.001718	0.000019	-0.000480				-1.400350	1.184727	-42.944127
00584	142324	-0.179598	-0.123843	9.795715				-0.006612	0.000741	-0.002101				-1.402257	1.184925	-42.944736
00585	142374	-0.181995	-0.110166	9.801474				-0.005242	0.001927	-0.003158				-1.401032	1.185095	-42.945566
00586	142424	-0.186020	-0.116777	9.814677				-0.003317	0.000798	-0.001661				-1.401992	1.185312	-42.946049
00587	142474	-0.195285	-0.100443	9.802982				-0.005688	-0.002217	-0.001445				-1.400882	1.184314	-42.948466
00588	142524	-0.178023	-0.122482	9.808409				-0.003508	0.000088	0.001704				-1.401876	1.184351	-42.947979
00589	142574	-0.175404	-0.112250	9.803596				-0.003965	-0.002792	0.001367				-1.400255	1.183188	-42.944837
00590	142624	-0.182600	-0.108228	9.798362				-0.004528	-0.001193	0.000962				-1.401547	1.182853	-42.944561
00591	142674	-0.182106	-0.131717	9.800525				-0.004125	-0.000191	-0.003588				-1.400001	1.182376	-42.936780
00592	142724	-0.189974	-0.109733	9.807261				-0.007655	-0.003638	0.001089				-1.402187	1.181342	-42.936437
00593	142774	-0.192635	-0.115795	9.806559				-0.004350	0.002202	-0.002485				-1.400693	1.181593	-42.937233
00594	142824	-0.190571	-0.129271	9.812066				0.001401	0.000425	-0.003337				-1.400312	1.181691	-42.938197
00595	142874	-0.195755	-0.119483	9.797950				-0.001494	-0.002401	-0.002933				-1.398004	1.180588	-42.930791
00596	142924	-0.193301	-0.116311	9.808959				-0.002559	0.000098	-0.002883				-1.398755	1.180596	-42.931616
00597	142974	-0.184472	-0.114198	9.804605				-0.002456	-0.000326	-0.005038				-1.396722	1.180177	-42.950358
00598	143024	-0.176437	-0.113388	9.805756				-0.001504	0.000182	-0.001636				-1.397162	1.180217	-42.950830
00599	143074	-0.200711	-0.103856	9.827210				-0.003020	0.000742	0.000650				-1.395265	1.180060	-42.947661
00600	143124	-0.201794	-0.106790	9.798696				-0.001988	0.002307	-0.002295				-1.395848	1.180705	-42.948342
00601	143174	-0.180032	-0.130173	9.795000				-0.003479	0.003026	-0.000816				-1.394088	1.181197	-42.946937
00602	143224	-0.178193	-0.128916	9.805774				-0.003697	0.002928	-0.000656				-1.395152	1.182031	-42.947144
00603	143274	-0.193267	-0.121825	9.809443				-0.005303	0.002063	0.000117				-1.393903	1.182289	-42.954025
00604	143324	-0.194159	-0.110354	9.799135				-0.006768	0.002608	-0.003019				-1.395861	1.183015	-42.954909
00605	143374	-0.178720	-0.133831	9.790916				-0.000380	0.001206	-0.000962				-1.393217	1.182930	-42.940072
00606	143424	-0.165079	-0.121461	9.795402				-0.004701	-0.000873	0.000385				-1.394561	1.182683	-42.939951
00607	143474	-0.173619	-0.113020	9.819410				-0.006232	-0.000224	-0.002136				-1.393592	1.182231	-42.938146
00608	143524	-0.170144	-0.122763	9.798780				-0.002325	0.000915	-0.002047				-1.394271	1.182478	-42.938744
00609	143574	-0.192805	-0.107204	9.814237				-0.006430	0.003301	0.000706				-1.393337	1.183091	-42.944930
00610	143624	-0.188844	-0.127156	9.808463				-0.004280	-0.001224	-0.002791				-1.394579	1.182721	-42.945711
00611	143674	-0.186954	-0.116341	9.788796				-0.001016	0.000200	0.000452				-1.392101	1.182374	-42.935095
00612	143724	-0.190479	-0.101001	9.798163				-0.004931	-0.001913	-0.002406				-1.393527	1.181809	-42.935762
00613	143774	-0.180853	-0.126788	9.793086				-0.001434	-0.002983	-0.000818				-1.391172	1.180566	-42.931427
00614	143824	-0.175201	-0.113138	9.799285				-0.005653	-0.000147	-0.001146				-1.392798	1.180516	-42.931762
00615	143874	-0.169453	-0.131879	9.799500				-0.005923	0.000040	-0.002076				-1.391735	1.180125	-42.926965
00616	143924	-0.188404	-0.118272	9.815166				-0.003334	0.002446	-0.001875				-1.392702	1.180813	-42.927517
00617	143974	-0.181293	-0.119703	9.795240				-0.001558	0.001926	-0.000599				-1.390367	1.181064	-42.944741
00618	144024	-0.195487	-0.121901	9.819039				-0.002400	0.002529	0.000049				-1.391055	1.181788	-42.944755
00619	144074	-0.193752	-0.096362	9.793861				-0.002132	0.001148	0.001258				-1.388884	1.181722	-42.935274
00620	144124	-0.210680	-0.117809	9.816239				-0.003006	-0.002171	-0.003791				-1.389767	1.181074	-42.936349
00621	144174	-0.191549	-0.108854	9.802238				-0.002764	0.003047	0.000662				-1.387771	1.181619	-42.944084
00622	144224	-0.171071	-0.117835	9.784169				-0.006355	0.003044	0.000604				-1.389589	1.182495	-42.943935
00623	144274	-0.191411	-0.116991	9.805114				-0.003804	-0.000083	-0.002050				-1.387910	1.182070	-42.939439
00624	144324	-0.178460	-0.146534	9.814649				-0.002881	-0.000073	-0.003783				-1.388758	1.182023	-42.940523
00625	144374	-0.191715	-0.110216	9.796728				-0.004583	0.001390	-0.003067				-1.387312	1.181974	-42.926821
00626	144424	-0.183727	-0.126829	9.808680				-0.001295	0.002508	-0.004927				-1.387712	1.182658	-42.928247
00627	144474	-0.189457	-0.114179	9.796004				-0.003602	0.000464	-0.004097				-1.385986	1.182374	-42.923821
00628	144524	-0.178527	-0.122850	9.784687				-0.001036	-0.000519	-0.002220				-1.386296	1.182210	-42.924453
00629	144574	-0.185181	-0.122938	9.786396				-0.001132	-0.001688	-0.003570				-1.383851	1.181367	-42.933158
00630	144624	-0.189559	-0.128792	9.791690				-0.002750	0.003235	-0.000782				-1.384644	1.182288	-42.933406
00631	144674	-0.207220	-0.119733	9.790336				-0.001942	0.000014	-0.001503				-1.382420	1.181926	-42.936434
00632	144724	-0.186046	-0.112306	9.806052				-0.002251	0.003693	-0.002641				-1.383081	1.182965	-42.937214
00633	144774	-0.182424	-0.129373	9.797407				-0.006002	0.001750	-0.001199				-1.382017	1.183107	-42.941204
00634	144824	-0.185637	-0.116015	9.796458				-0.004513	0.001498	0.001395				-1.383301	1.183545	-42.940809
00635	144874	-0.185459	-0.113231	9.795739				-0.005759	0.001307	0.000726				-1.382158	1.183547	-42.937845
00636	144924	-0.183023	-0.116996	9.795968				-0.005229	0.002705	0.000406				-1.383654	1.184325	-42.937750
00637	144974	-0.181820	-0.141660	9.803399				-0.003164	0.002293	0.000014				-1.381769	1.184610	-42.936579
00638	145024	-0.204178	-0.102848	9.797512				-0.005218	0.001856	-0.004758				-1.383292	1.185108	-42.937947
00639	145074	-0.186167	-0.112666	9.798620				-0.002006	0.001120	0.000616				-1.381068	1.185076	-42.940246
00640	145124	-0.185906	-0.122406	9.810362				-0.001705	0.000637	0.000997				-1.381550	1.185266	-42.939955
00641	145174	-0.201154	-0.117305	9.807328				-0.004367	0.001884	-0.000078				-1.380007	1.185426	-42.937243
00642	145224	-0.202485	-0.118698	9.796305				-0.005886	0.000303	0.000143				-1.381692	1.185514	-42.937200
00643	145274	-0.189100	-0.121863	9.804389				-0.002792	-0.001076	-0.005324				-1.379723	1.184826	-42.944433
00644	145324	-0.196172	-0.120687	9.809698				-0.004307	0.002885	-0.001577				-1.380967	1.185641	-42.944905
00645	145374	-0.163659	-0.123834	9.808573				-0.007413	0.000627	-0.002065				-1.380303	1.185452	-42.948405
00646	145424	-0.183187	-0.117479	9.785901				-0.002396	0.000241	0.001451				-1.380981	1.185531	-42.947993
00647	145474	-0.187855	-0.113877	9.799347				-0.001866	0.002730	-0.001782				-1.378730	1.185899	-42.940038
00648	145524	-0.194751	-0.132279	9.796985				-0.003638	0.002895	-0.000620				-1.379776	1.186724	-42.940231
00649	145574	-0.172831	-0.133189	9.811740				-0.003224	-0.001302	-0.002185				-1.377908	1.185989	-42.946145
00650	145624	-0.192127	-0.109146	9.793861				-0.002522	0.001907	-0.003740				-1.378654	1.186510	-42.947234
00651	145674	-0.174680	-0.118096	9.800715				-0.002755	0.000456	0.000292				-1.376640	1.186262	-42.944180
00652	145724	-0.180505	-0.127853	9.809858				-0.006574	-0.001618	-0.001024				-1.378529	1.185792	-42.944463
00653	145774	-0.181677	-0.128627	9.797882				-0.003686	0.001273	-0.002554				-1.376802	1.185707	-42.929753
00654	145824	-0.179209	-0.132503	9.790442				-0.004803	-0.001109	-0.005003				-1.378208	1.185355	-42.931190
00655	145874	-0.187243	-0.118061	9.806540				-0.001196	-0.001594	-0.002930				-1.375757	1.184554	-42.943068
00656	145924	-0.205778	-0.111628	9.820042				-0.001508	-0.001925	-0.004949				-1.376218	1.183969	-42.944463
00657	145974	-0.184858	-0.109613	9.799332				-0.002085	0.002632	-0.000820				-1.374018	1.184310	-42.935586
00658	146024	-0.196342	-0.101152	9.804419				-0.002842	0.000963	-0.003069				-1.374851	1.184565	-42.936469
00659	146074	-0.184279	-0.118210	9.813955				-0.004485	0.001264	-0.001205				-1.373330	1.184586	-42.945751
00660	146124	-0.192709	-0.107658	9.807030				0.000563	0.000770	-0.001380				-1.373177	1.184797	-42.946146
00661	146174	-0.177777	-0.117611	9.796426				-0.004086	0.002117	0.000177				-1.371540	1.184991	-42.935097
00662	146224	-0.178810	-0.129248	9.792843				-0.005346	0.001185	-0.001268				-1.373080	1.185321	-42.935469
00663	146274	-0.186114	-0.118403	9.810841				-0.003324	-0.001045	-0.001765				-1.371229	1.184659	-42.940603
00664	146324	-0.192748	-0.112194	9.790746				-0.003159	-0.001107	-0.001896				-1.372145	1.184329	-42.941137
00665	146374	-0.190237	-0.117099	9.801763				-0.003418	0.004058	-0.002956				-1.370323	1.185147	-42.953132
00666	146424	-0.182543	-0.111934	9.791175				-0.005729	0.000072	-0.002490				-1.371979	1.185150	-42.953851
00667	146474	-0.191471	-0.117013	9.781389				-0.001017	0.001062	-0.001315				-1.369467	1.185033	-42.943963
00668	146524	-0.190315	-0.125404	9.801515				-0.002103	0.000719	-0.003362				-1.370090	1.185216	-42.944928
00669	146574	-0.185043	-0.120311	9.797419				-0.003579	-0.001180	-0.003237				-1.368319	1.184465	-42.941024
00670	146624	-0.187125	-0.122232	9.810606				-0.002563	0.000701	-0.008813				-1.369105	1.184606	-42.943549
00671	146674	-0.184755	-0.115465	9.804850				-0.003926	0.001886	-0.002324				-1.367416	1.184842	-42.964278
00672	146724	-0.195989	-0.109073	9.798431				-0.002014	0.001244	-0.001112				-1.368000	1.185191	-42.964604
00673	146774	-0.187586	-0.108171	9.783767				-0.008546	0.003161	-0.002466				-1.367646	1.185681	-42.958508
00674	146824	-0.195978	-0.095628	9.803217				-0.002460	0.003141	-0.003023				-1.368369	1.186560	-42.959395
00675	146874	-0.198519	-0.085536	9.811618				-0.002725	0.001588	-0.000116				-1.366332	1.186605	-42.949715
00676	146924	-0.192821	-0.125708	9.785960				-0.003608	0.000759	-0.002619				-1.367381	1.186804	-42.950470
00677	146974	-0.170368	-0.118212	9.799023				-0.002242	0.000236	0.000257				-1.365196	1.186508	-42.951480
00678	147024	-0.204056	-0.117735	9.816683				-0.001746	0.000985	0.000263				-1.365695	1.186792	-42.951404
00679	147074	-0.191394	-0.112293	9.796488				-0.001949	0.001245	-0.000507				-1.363439	1.186693	-42.931384
00680	147124	-0.191660	-0.122897	9.784749				-0.005921	0.001372	0.002588				-1.365120	1.187104	-42.930655
00681	147174	-0.172893	-0.124043	9.790406				-0.001651	-0.000077	-0.001156				-1.362770	1.186717	-42.934181
00682	147224	-0.196912	-0.111494	9.801550				-0.002543	0.001387	-0.004543				-1.363525	1.187084	-42.935491
00683	147274	-0.191271	-0.111600	9.807988				-0.006628	0.001995	-0.004724				-1.362616	1.187319	-42.953383
00684	147324	-0.179616	-0.122102	9.786365				-0.007486	0.003314	-0.000034				-1.364761	1.188268	-42.953417
00685	147374	-0.189372	-0.128188	9.804637				-0.002186	0.002364	-0.003739				-1.362584	1.188497	-42.941687
00686	147424	-0.170526	-0.124874	9.795432				-0.004371	0.003082	0.001661				-1.363827	1.189391	-42.941234
00687	147474	-0.189565	-0.113127	9.801032				-0.003304	0.002348	-0.002934				-1.361967	1.189598	-42.923918
00688	147524	-0.203133	-0.091238	9.800377				-0.006089	0.001492	-0.002098				-1.363724	1.190011	-42.924531
00689	147574	-0.192139	-0.107226	9.820461				-0.002763	0.003652	-0.002927				-1.361701	1.190657	-42.923018
00690	147624	-0.197955	-0.111828	9.810899				-0.001440	0.002582	0.000431				-1.362111	1.191399	-42.922911
00691	147674	-0.182791	-0.118658	9.790932				-0.000270	0.001827	-0.001055				-1.359360	1.191538	-42.921809
00692	147724	-0.179383	-0.128273	9.805062				-0.007077	0.003583	0.000482				-1.361385	1.192568	-42.921689
00693	147774	-0.193611	-0.114093	9.808956				0.000039	0.001017	-0.003526				-1.358554	1.192488	-42.928618
00694	147824	-0.194451	-0.128350	9.811366				-0.007961	-0.006358	-0.000210				-1.360835	1.190666	-42.928631
00695	147874	-0.184870	-0.115695	9.799578				-0.007363	-0.001052	-0.002718				-1.360127	1.189926	-42.917726
00696	147924	-0.195446	-0.110056	9.795312				-0.007284	0.000728	-0.001202				-1.362221	1.190126	-42.918075
00697	147974	-0.199877	-0.106695	9.810431				-0.000631	0.000742	-0.004778				-1.359571	1.190108	-42.962006
00698	148024	-0.201832	-0.118676	9.802772				-0.002868	0.000940	-0.001881				-1.360403	1.190365	-42.962549
00699	148074	-0.181389	-0.107836	9.791881				-0.003003	0.000488	0.002890				-1.358405	1.190153	-42.961461
00700	148124	-0.183899	-0.103343	9.806042				-0.004167	-0.000410	0.000487				-1.359596	1.190038	-42.961322
00701	148174	-0.191735	-0.111621	9.803204				-0.000824	0.002170	-0.001403				-1.357007	1.190185	-42.938718
00702	148224	-0.193190	-0.108482	9.806323				-0.004162	0.000397	-0.000343				-1.358201	1.190296	-42.938814
00703	148274	-0.193230	-0.120992	9.800815				-0.005930	0.000330	-0.001557				-1.357081	1.189851	-42.900372
00704	148324	-0.172502	-0.137195	9.796403				-0.001902	0.000632	-0.001344				-1.357634	1.190023	-42.900757
00705	148374	-0.195021	-0.112769	9.804416				-0.006063	-0.000318	-0.001335				-1.356523	1.189634	-42.921573
00706	148424	-0.199511	-0.126081	9.814509				0.001711	0.003193	0.001388				-1.356025	1.190557	-42.921202
00707	148474	-0.179205	-0.135585	9.802902				-0.005345	-0.000820	0.000068				-1.354714	1.189901	-42.908809
00708	148524	-0.183572	-0.119876	9.797170				-0.005787	0.006188	-0.001784				-1.356383	1.191662	-42.909363
00709	148574	-0.183485	-0.119156	9.796209				-0.004733	0.001363	0.002005				-1.354894	1.191556	-42.874938
00710	148624	-0.182847	-0.121659	9.821846				-0.006510	0.001618	-0.001068				-1.356766	1.192012	-42.875263
00711	148674	-0.186804	-0.129943	9.785689				-0.006717	0.001098	0.000212				-1.355845	1.191910	-42.864078
00712	148724	-0.167779	-0.127407	9.810756				-0.003343	0.001737	-0.001789				-1.356813	1.192395	-42.864606
00713	148774	-0.175413	-0.116513	9.784185				-0.005338	-0.003409	-0.002286				-1.355503	1.191049	-42.870156
00714	148824	-0.191398	-0.127120	9.787152				-0.004564	0.000579	-0.003452				-1.356831	1.191191	-42.871151
00715	148874	-0.195460	-0.116141	9.810410				-0.003193	-0.001071	-0.000995				-1.354904	1.190467	-42.862561
00716	148924	-0.182813	-0.128516	9.825930				-0.002523	0.000108	-0.001347				-1.355635	1.190489	-42.862951
00717	148974	-0.193516	-0.120368	9.791710				-0.003671	-0.003248	-0.000300				-1.353839	1.189160	-42.857721
00718	149024	-0.187532	-0.118374	9.791441				-0.005175	0.001098	0.001555				-1.355312	1.189485	-42.857282
00719	149074	-0.189083	-0.114735	9.813494				-0.005176	0.001928	-0.002292				-1.353954	1.189668	-42.862888
00720	149124	-0.189227	-0.111409	9.795282				-0.006466	-0.000542	0.002255				-1.355793	1.189529	-42.862240
00721	149174	-0.205539	-0.104359	9.795846				-0.002688	0.001596	0.001907				-1.353692	1.189670	-42.873044
00722	149224	-0.186125	-0.112542	9.780886				-0.006001	0.002888	0.000412				-1.355409	1.190500	-42.872941
00723	149274	-0.198104	-0.117870	9.780235				-0.003739	-0.000150	-0.002915				-1.353637	1.190092	-42.880885
00724	149324	-0.188240	-0.115961	9.804621				-0.001561	-0.001276	-0.003952				-1.354107	1.189700	-42.882004
00725	149374	-0.214423	-0.097415	9.803064				-0.001161	-0.001524	-0.002250				-1.351594	1.188884	-42.885149
00726	149424	-0.172793	-0.121081	9.809334				-0.003101	0.001061	-0.002332				-1.352497	1.189172	-42.885834
00727	149474	-0.186381	-0.114009	9.797428				-0.005263	0.000730	-0.001526				-1.351175	1.188815	-42.841574
00728	149524	-0.187689	-0.114701	9.786165				-0.005656	0.001021	-0.000332				-1.352797	1.189105	-42.841672
00729	149574	-0.185641	-0.115410	9.803654				-0.002096	-0.002345	-0.000460				-1.350542	1.188022	-42.833418
00730	149624	-0.184829	-0.104132	9.795979				-0.002687	0.001163	-0.002106				-1.351325	1.188341	-42.834031
00731	149674	-0.189542	-0.109871	9.792888				-0.004193	0.002071	-0.004824				-1.349703	1.188412	-42.806975
00732	149724	-0.171924	-0.116696	9.802142				-0.005879	0.002018	0.001077				-1.351381	1.188997	-42.806674
00733	149774	-0.187481	-0.117970	9.795508				-0.005016	-0.000103	-0.001305				-1.349950	1.188689	-42.832951
00734	149824	-0.186464	-0.129455	9.802699				-0.004847	0.001445	-0.003128				-1.351357	1.189082	-42.833863
00735	149874	-0.199213	-0.104062	9.795855				-0.003238	-0.000457	-0.000249				-1.349411	1.188653	-42.853484
00736	149924	-0.219136	-0.109059	9.792401				-0.000340	-0.001219	-0.002279				-1.349522	1.188289	-42.854125
00737	149974	-0.194567	-0.115308	9.820793				-0.007346	0.001727	-0.002117				-1.348772	1.188393	-42.854373
00738	150024	-0.167643	-0.118316	9.783037				-0.003837	0.005215	-0.001921				-1.349884	1.189874	-42.854962
00739	150074	-0.202784	-0.102768	9.788004				-0.006158	-0.000314	0.001489				-1.348768	1.189434	-42.858136
00740	150124	-0.200467	-0.121614	9.803331				-0.004257	-0.000801	-0.000441				-1.349990	1.189201	-42.858253
00741	150174	-0.198889	-0.104488	9.767616				-0.004125	0.002107	-0.002091				-1.348330	1.189276	-42.824264
00742	150224	-0.201149	-0.112039	9.807164				-0.005610	0.000399	-0.002936				-1.349955	1.189371	-42.825109
00743	150274	-0.195961	-0.115170	9.818168				-0.003127	0.002159	-0.001261				-1.347982	1.189648	-42.835655
00744	150324	-0.193431	-0.099550	9.783159				-0.006736	-0.001561	-0.002360				-1.349925	1.189185	-42.836321
00745	150374	-0.186451	-0.125824	9.808290				-0.005776	-0.000543	-0.003900				-1.348726	1.188651	-42.842349
00746	150424	-0.189449	-0.093982	9.802550				-0.004203	0.002082	0.002430				-1.349916	1.189263	-42.841671
00747	150474	-0.200061	-0.109098	9.795654				-0.000545	-0.000509	0.000862				-1.347193	1.188722	-42.834622
00748	150524	-0.195981	-0.127635	9.792048				-0.004860	0.005200	-0.002330				-1.348601	1.190196	-42.835329
00749	150574	-0.190798	-0.133874	9.801126				-0.006213	0.000594	0.002458				-1.347490	1.189998	-42.831579
00750	150624	-0.186708	-0.116773	9.803259				-0.005966	-0.001710	-0.003235				-1.349218	1.189486	-42.832500
00751	150674	-0.173587	-0.131554	9.821655				-0.002861	-0.001258	0.001348				-1.347156	1.188715	-42.820368
00752	150724	-0.163521	-0.145206	9.808903				-0.003893	-0.000151	0.000008				-1.348272	1.188672	-42.820363
00753	150774	-0.181170	-0.138816	9.795090				-0.002781	-0.000099	-0.001853				-1.346196	1.188300	-42.831550
00754	150824	-0.212757	-0.119353	9.819443				0.000520	-0.001074	-0.001642				-1.346057	1.187981	-42.832010
00755	150874	-0.176355	-0.126018	9.796503				-0.005522	0.000987	0.001208				-1.344773	1.187731	-42.790660
00756	150924	-0.165868	-0.128421	9.797649				-0.002448	0.000451	-0.005190				-1.345505	1.187825	-42.792146
00757	150974	-0.196600	-0.112073	9.801635				-0.002689	0.001457	0.000173				-1.343378	1.188027	-42.831224
00758	151024	-0.174058	-0.122324	9.791930				-0.004189	0.003107	-0.001253				-1.344586	1.188909	-42.831609
00759	151074	-0.170017	-0.124227	9.798151				-0.001331	0.002062	-0.000593				-1.342086	1.189170	-42.844442
00760	151124	-0.180221	-0.125554	9.803706				0.000912	0.000907	-0.001793				-1.341836	1.189418	-42.844964
00761	151174	-0.198565	-0.124814	9.802370				-0.008237	0.000519	-0.001225				-1.341323	1.189176	-42.843899
00762	151224	-0.190209	-0.119986	9.791057				-0.006186	-0.001708	-0.001501				-1.343104	1.188677	-42.844321
00763	151274	-0.200170	-0.097745	9.806676				-0.004075	0.004023	0.002118				-1.341402	1.189267	-42.794766
00764	151324	-0.189601	-0.116670	9.795130				-0.003785	0.001169	-0.004888				-1.342516	1.189569	-42.796179
00765	151374	-0.203630	-0.107340	9.808140				-0.006338	0.002327	-0.001635				-1.341459	1.189843	-42.795427
00766	151424	-0.184359	-0.114861	9.790069				-0.003771	0.000110	-0.000661				-1.342543	1.189870	-42.795616
00767	151474	-0.189941	-0.097797	9.803035				-0.004479	0.004198	-0.003237				-1.340956	1.190723	-42.808680
00768	151524	-0.187525	-0.112898	9.802066				-0.003382	0.001925	-0.002512				-1.341940	1.191258	-42.809415
00769	151574	-0.188791	-0.113328	9.809738				-0.006055	0.001727	0.001372				-1.340781	1.191376	-42.806689
00770	151624	-0.177753	-0.128927	9.795072				-0.005629	0.000914	-0.002159				-1.342407	1.191624	-42.807311
00771	151674	-0.195758	-0.097332	9.793714				-0.006825	-0.000556	-0.000688				-1.341464	1.191214	-42.839878
00772	151724	-0.199860	-0.097972	9.790383				-0.003484	0.003955	-0.004746				-1.342490	1.192315	-42.841255
00773	151774	-0.196423	-0.109373	9.810735				-0.003687	0.001434	-0.001615				-1.340678	1.192241	-42.817653
00774	151824	-0.181627	-0.115809	9.812813				-0.000190	0.001140	-0.001980				-1.340744	1.192554	-42.818227
00775	151874	-0.172630	-0.128999	9.810615				-0.003702	0.000294	-0.008360				-1.338979	1.192065	-42.785983
00776	151924	-0.190272	-0.121758	9.788661				-0.003058	0.004067	-0.001220				-1.339863	1.193222	-42.786357
00777	151974	-0.186654	-0.123788	9.799905				-0.003894	0.001147	0.000947				-1.338087	1.193131	-42.774168
00778	152024	-0.182727	-0.127302	9.794378				-0.005959	0.000230	-0.002547				-1.339810	1.193180	-42.774909
00779	152074	-0.201017	-0.094209	9.794462				-0.003061	0.000729	-0.003867				-1.337813	1.193020	-42.784954
00780	152124	-0.196416	-0.101593	9.805937				-0.000094	-0.002156	-0.004565				-1.337867	1.192372	-42.786243
00781	152174	-0.178167	-0.128762	9.790518				-0.003409	-0.001505	-0.003562				-1.335971	1.191530	-42.784726
00782	152224	-0.182586	-0.120897	9.785987				-0.002877	0.003228	-0.001866				-1.336806	1.192442	-42.785282
00783	152274	-0.189221	-0.131592	9.797285				-0.003631	0.002631	-0.002638				-1.334953	1.192919	-42.815520
00784	152324	-0.184706	-0.119256	9.801093				-0.001978	-0.002058	-0.001515				-1.335529	1.192319	-42.815943
00785	152374	-0.189237	-0.122821	9.800641				-0.000578	-0.001778	-0.003215				-1.332818	1.191410	-42.816675
00786	152424	-0.179479	-0.127705	9.794600				-0.006324	0.002781	-0.001154				-1.334637	1.192199	-42.817031
00787	152474	-0.162179	-0.111512	9.793546				-0.003460	-0.000695	-0.001535				-1.332745	1.191584	-42.810821
00788	152524	-0.169109	-0.130041	9.814672				-0.006972	0.001157	-0.000777				-1.334747	1.191910	-42.811056
00789	152574	-0.180368	-0.104878	9.792917				-0.002580	-0.002223	0.000699				-1.332601	1.190752	-42.774843
00790	152624	-0.185636	-0.118835	9.804689				-0.001220	0.002547	-0.001750				-1.332961	1.191470	-42.775356
00791	152674	-0.176814	-0.114929	9.802014				-0.003633	0.001731	-0.001809				-1.331103	1.191678	-42.802087
00792	152724	-0.202691	-0.117048	9.799992				-0.003626	0.000668	0.000208				-1.332141	1.191870	-42.802039
00793	152774	-0.187862	-0.123924	9.801115				-0.006459	0.002233	0.000449				-1.331094	1.192092	-42.792084
00794	152824	-0.173091	-0.122074	9.796958				-0.006713	0.000501	-0.005885				-1.333052	1.192196	-42.793771
00795	152874	-0.186334	-0.107422	9.800138				-0.003416	-0.002150	-0.002953				-1.331143	1.191224	-42.805943
00796	152924	-0.171344	-0.114519	9.787842				-0.001118	-0.002208	-0.003506				-1.331484	1.190568	-42.806944
00797	152974	-0.174614	-0.113743	9.801279				-0.004300	-0.000513	-0.001758				-1.329834	1.189938	-42.785197
00798	153024	-0.162605	-0.113843	9.804579				-0.003185	0.003836	-0.002956				-1.330765	1.191017	-42.786068
00799	153074	-0.190820	-0.111389	9.789380				-0.003993	0.000945	-0.001588				-1.328994	1.191074	-42.831515
00800	153124	-0.180220	-0.115221	9.776867				-0.000983	0.001968	-0.002357				-1.329290	1.191622	-42.832199
00801	153174	-0.170567	-0.126323	9.788320				-0.006171	0.000675	-0.004473				-1.328215	1.191113	-42.762409
00802	153224	-0.162710	-0.141051	9.806740				-0.000795	0.001965	-0.004637				-1.328471	1.191645	-42.763754
00803	153274	-0.193316	-0.130631	9.810488				-0.001756	0.002116	-0.002903				-1.326095	1.191779	-42.748468
00804	153324	-0.182715	-0.107526	9.792929				-0.004451	-0.001841	-0.001572				-1.327380	1.191241	-42.748910
00805	153374	-0.194200	-0.109865	9.797068				-0.005318	-0.000793	-0.003196				-1.326005	1.190717	-42.777950
00806	153424	-0.180432	-0.103125	9.802266				-0.003364	-0.002727	0.000668				-1.326964	1.189940	-42.777747
00807	153474	-0.186523	-0.118142	9.798710				-0.004704	0.003358	-0.000931				-1.325414	1.190482	-42.771623
00808	153524	-0.173247	-0.126604	9.790972				-0.003117	0.002443	-0.004087				-1.326332	1.191155	-42.772802
00809	153574	-0.172460	-0.105862	9.812294				-0.007161	0.001727	-0.003403				-1.325507	1.191153	-42.752453
00810	153624	-0.180166	-0.125958	9.796764				-0.000919	0.000232	0.001672				-1.325761	1.191230	-42.751976
00811	153674	-0.178574	-0.136295	9.783804				-0.003596	0.001535	-0.002196				-1.323904	1.191204	-42.737253
00812	153724	-0.176993	-0.132218	9.798420				-0.004381	0.001232	-0.000079				-1.325160	1.191556	-42.737290
00813	153774	-0.194838	-0.115424	9.804734				-0.004445	-0.001972	-0.001601				-1.323519	1.190720	-42.770023
00814	153824	-0.194610	-0.119433	9.803298				-0.003988	0.000718	-0.002933				-1.324679	1.190906	-42.770856
00815	153874	-0.196307	-0.123164	9.814817				-0.001252	0.002811	0.001112				-1.322121	1.191350	-42.775919
00816	153924	-0.189094	-0.120500	9.798716				-0.002567	0.000720	0.001199				-1.322850	1.191564	-42.775589
00817	153974	-0.201756	-0.121878	9.800224				-0.004813	0.003382	-0.005421				-1.321364	1.192014	-42.754028
00818	154024	-0.212823	-0.103911	9.805547				0.000615	-0.001109	-0.003952				-1.321211	1.191670	-42.755149
00819	154074	-0.186555	-0.109914	9.795351				-0.000602	0.001262	-0.000823				-1.318486	1.191571	-42.738772
00820	154124	-0.172101	-0.131591	9.807985				-0.003640	0.001051	0.000525				-1.319526	1.191875	-42.738623
00821	154174	-0.198244	-0.118085	9.817936				-0.005832	-0.001805	-0.003041				-1.318298	1.191005	-42.753490
00822	154224	-0.190532	-0.110059	9.786267				-0.002043	-0.000191	-0.003169				-1.318902	1.190930	-42.754399
00823	154274	-0.195747	-0.111711	9.781491				-0.000550	0.000557	-0.000380				-1.316145	1.190739	-42.765023
00824	154324	-0.189352	-0.118680	9.812622				0.000545	-0.001653	-0.000234				-1.315990	1.190264	-42.765076
00825	154374	-0.203798	-0.091625	9.807422				-0.003951	0.001754	-0.001903				-1.314190	1.190631	-42.831799
00826	154424	-0.180963	-0.108044	9.815450				-0.002442	-0.000512	-0.000992				-1.314895	1.190478	-42.832077
00827	154474	-0.184610	-0.118817	9.772816				-0.003658	-0.001305	0.001193				-1.313004	1.189863	-42.866477
00828	154524	-0.181685	-0.126203	9.804437				-0.004622	0.000575	-0.003161				-1.314347	1.190007	-42.867391
00829	154574	-0.173639	-0.123777	9.798402				-0.001771	0.004065	0.001565				-1.311947	1.190653	-42.832314
00830	154624	-0.180044	-0.137698	9.797721				-0.003728	0.001595	-0.001359				-1.313023	1.191101	-42.832713
00831	154674	-0.165096	-0.127152	9.787333				-0.003484	0.000215	0.000777				-1.311125	1.190589	-42.785988
00832	154724	-0.185165	-0.120892	9.791992				-0.005515	-0.000375	0.000140				-1.312704	1.190483	-42.785945
00833	154774	-0.187988	-0.112802	9.790565				-0.006495	0.001096	-0.001165				-1.311652	1.190446	-42.798468
00834	154824	-0.187574	-0.118537	9.808781				-0.004537	0.003971	-0.003783				-1.312974	1.191559	-42.799567
00835	154874	-0.178630	-0.099330	9.804173				-0.003286	0.001188	-0.000175				-1.311022	1.191334	-42.756788
00836	154924	-0.169242	-0.123432	9.807724				-0.002039	-0.002320	-0.003636				-1.311627	1.190645	-42.757811
00837	154974	-0.179005	-0.118101	9.792677				-0.002652	-0.002006	-0.001962				-1.309507	1.189450	-42.704837
00838	155024	-0.185831	-0.111565	9.781200				-0.002207	0.002167	-0.003798				-1.310162	1.190046	-42.705940
00839	155074	-0.182590	-0.132233	9.812114				-0.003746	0.002239	-0.004148				-1.308344	1.190248	-42.702549
00840	155124	-0.188268	-0.117958	9.816210				-0.006568	0.001455	0.000089				-1.310226	1.190666	-42.702530
00841	155174	-0.184086	-0.146357	9.816913				-0.004145	0.000787	0.000211				-1.308516	1.190316	-42.657101
00842	155224	-0.198567	-0.118563	9.802607				-0.005282	-0.003023	-0.002600				-1.310044	1.189434	-42.657830
00843	155274	-0.193176	-0.129121	9.811446				-0.007260	0.003055	-0.001440				-1.309225	1.189821	-42.637654
00844	155324	-0.177565	-0.119035	9.784048				-0.008021	0.000910	-0.000455				-1.311526	1.190079	-42.637794
00845	155374	-0.196091	-0.110029	9.800672				-0.007971	0.001231	-0.001412				-1.310917	1.189882	-42.601748
00846	155424	-0.188534	-0.107720	9.799431				-0.002982	0.001451	-0.000851				-1.311777	1.190292	-42.602006
00847	155474	-0.184285	-0.111726	9.804444				-0.004279	0.003011	-0.001799				-1.310100	1.190712	-42.593553
00848	155524	-0.188311	-0.112612	9.800390				-0.000821	0.003337	0.000595				-1.310332	1.191672	-42.593405
00849	155574	-0.183134	-0.121499	9.793180				-0.004316	0.003971	-0.005035				-1.308661	1.192530	-42.631898
00850	155624	-0.182299	-0.130843	9.799651				-0.003839	0.000402	0.001390				-1.309753	1.192654	-42.631510
00851	155674	-0.182929	-0.133794	9.801089				-0.007683	0.000109	-0.001387				-1.309028	1.192408	-42.664027
00852	155724	-0.194145	-0.117682	9.800422				-0.002750	0.003869	-0.006095				-1.309853	1.193476	-42.665807
00853	155774	-0.187357	-0.109688	9.814043				-0.000889	-0.000937	-0.001223				-1.307181	1.192904	-42.691007
00854	155824	-0.185189	-0.116880	9.788871				-0.008936	-0.001659	0.000110				-1.309741	1.192429	-42.690972
00855	155874	-0.193923	-0.127735	9.789159				-0.001138	0.001002	0.000232				-1.307102	1.192675	-42.779318
00856	155924	-0.169930	-0.122865	9.784244				-0.002390	0.000741	-0.004385				-1.307814	1.192859	-42.780585
00857	155974	-0.210782	-0.113829	9.795467				-0.004144	-0.000379	-0.001627				-1.306123	1.192061	-42.710333
00858	156024	-0.191325	-0.108736	9.821262				-0.004130	0.002567	0.000635				-1.307303	1.192800	-42.710175
00859	156074	-0.197156	-0.102039	9.807863				-0.004537	-0.002066	0.000195				-1.305686	1.191762	-42.697190
00860	156124	-0.186052	-0.107792	9.803253				-0.006334	-0.003237	-0.003848				-1.307523	1.190810	-42.698266
00861	156174	-0.201390	-0.109872	9.802612				-0.008336	0.000643	-0.001449				-1.306989	1.190650	-42.713905
00862	156224	-0.187641	-0.121455	9.803028				-0.002258	0.000849	-0.001144				-1.307643	1.190885	-42.714236
00863	156274	-0.167766	-0.120760	9.810353				-0.000237	0.002784	-0.002845				-1.304794	1.191341	-42.733353
00864	156324	-0.195760	-0.123829	9.811934				-0.001563	0.000153	-0.001276				-1.305250	1.191377	-42.733721
00865	156374	-0.197858	-0.118592	9.804038				-0.005264	-0.002439	-0.001603				-1.303866	1.190071	-42.683840
00866	156424	-0.192991	-0.118242	9.803775				-0.003614	0.002310	-0.001521				-1.304911	1.190723	-42.684296
00867	156474	-0.167803	-0.128380	9.802687				-0.003542	0.000763	-0.001370				-1.302951	1.191004	-42.801666
00868	156524	-0.190000	-0.102000	9.797285				-0.005536	0.000276	0.000334				-1.304535	1.191086	-42.801573
00869	156574	-0.176042	-0.134206	9.805606				-0.002813	-0.000206	-0.005385				-1.302475	1.190358	-42.743520
00870	156624	-0.191569	-0.130885	9.803528				-0.005430	0.000053	0.000786				-1.304026	1.190378	-42.743291
00871	156674	-0.160778	-0.134952	9.801931				-0.004784	-0.000363	-0.000441				-1.302469	1.189905	-42.751085
00872	156724	-0.204728	-0.124592	9.795436				-0.009417	0.001369	-0.002209				-1.305180	1.190283	-42.751718
00873	156774	-0.185221	-0.116650	9.814760				-0.002997	0.001065	-0.000403				-1.303183	1.189638	-42.613676
00874	156824	-0.164494	-0.129344	9.804821				-0.004411	0.000837	-0.003193				-1.304465	1.189857	-42.614596
00875	156874	-0.185624	-0.134699	9.810450				-0.006586	0.000162	0.001204				-1.303390	1.189754	-42.675280
00876	156924	-0.194218	-0.117809	9.787724				-0.005244	-0.002015	-0.000446				-1.304895	1.189174	-42.675386
00877	156974	-0.189435	-0.111183	9.798002				-0.004536	0.001872	-0.002640				-1.303347	1.188781	-42.547053
00878	157024	-0.180806	-0.130449	9.802510				-0.006822	-0.002853	-0.001633				-1.305311	1.187953	-42.547512
00879	157074	-0.179205	-0.134477	9.804185				-0.003953	0.001622	-0.003510				-1.303651	1.187085	-42.318940
00880	157124	-0.192378	-0.128998	9.811202				-0.003939	0.001599	0.001109				-1.304773	1.187550	-42.318636
00881	157174	-0.190257	-0.121760	9.800643				-0.005295	0.001337	-0.004403				-1.303423	1.187252	-42.256731
00882	157224	-0.194389	-0.111143	9.788921				-0.002348	0.001522	-0.002778				-1.304112	1.187670	-42.257541
00883	157274	-0.190439	-0.128534	9.806636				-0.006488	0.000740	-0.002322				-1.303064	1.187428	-42.248283
00884	157324	-0.189361	-0.129362	9.789612				-0.004929	-0.001720	0.000387				-1.304474	1.186938	-42.248159
00885	157374	-0.188320	-0.110180	9.807823				-0.003813	0.001603	0.001367				-1.302622	1.187090	-42.268908
00886	157424	-0.204924	-0.118993	9.812939				-0.004927	0.003190	-0.003077				-1.304052	1.187983	-42.269803
00887	157474	-0.189480	-0.104788	9.796797				-0.002743	0.000802	-0.003546				-1.301920	1.187888	-42.294128
00888	157524	-0.187505	-0.129954	9.799908				-0.004201	0.001460	0.000048				-1.303123	1.188306	-42.294123
00889	157574	-0.178717	-0.120716	9.792909				-0.003638	-0.002087	0.000573				-1.301176	1.187779	-42.411619
00890	157624	-0.186521	-0.125418	9.795835				-0.003812	-0.002634	0.000765				-1.302263	1.187029	-42.411389
00891	157674	-0.190514	-0.112019	9.790095				-0.002575	-0.001553	-0.002982				-1.300098	1.186110	-42.397933
00892	157724	-0.187917	-0.105265	9.811174				-0.005241	0.003124	-0.001121				-1.301607	1.186997	-42.398280
00893	157774	-0.178625	-0.119437	9.812085				-0.006139	-0.002163	-0.002145				-1.300414	1.186246	-42.470003
00894	157824	-0.165444	-0.125510	9.800998				-0.005443	-0.001020	-0.002655				-1.301989	1.185937	-42.470753
00895	157874	-0.182782	-0.114011	9.810188				-0.005108	0.000829	-0.001423				-1.300528	1.185787	-42.476729
00896	157924	-0.177650	-0.130713	9.795310				-0.002646	-0.001097	-0.001026				-1.301291	1.185466	-42.477010
00897	157974	-0.168664	-0.116487	9.805088				-0.002734	0.000612	-0.001338				-1.299137	1.185369	-42.512404
00898	158024	-0.189745	-0.106882	9.799912				-0.006215	0.000358	-0.002260				-1.300930	1.185457	-42.513053
00899	158074	-0.180092	-0.112799	9.802270				-0.002850	-0.000844	-0.002048				-1.298843	1.184691	-42.485953
00900	158124	-0.193979	-0.125504	9.796108				-0.003350	-0.000076	-0.001048				-1.299808	1.184663	-42.486253
00901	158174	-0.206320	-0.096259	9.798566				-0.003728	0.001658	-0.002640				-1.297974	1.184620	-42.462033
00902	158224	-0.194120	-0.109364	9.783168				-0.003814	0.000104	-0.003997				-1.299090	1.184624	-42.463179
00903	158274	-0.213051	-0.109184	9.801236				-0.001617	0.000827	-0.001945				-1.296628	1.184480	-42.472174
00904	158324	-0.207633	-0.123340	9.805283				-0.000426	-0.000284	-0.000831				-1.296755	1.184393	-42.472415
00905	158374	-0.191306	-0.121523	9.810472				0.000178	0.000662	-0.002726				-1.293798	1.184080	-42.451314
00906	158424	-0.193403	-0.118604	9.795144				-0.001842	0.001185	0.002450				-1.294311	1.184435	-42.450620
00907	158474	-0.196956	-0.123874	9.812660				-0.002605	0.000385	-0.003934				-1.292126	1.184288	-42.494195
00908	158524	-0.191977	-0.116862	9.805684				-0.004447	0.000262	-0.001077				-1.293407	1.184356	-42.494506
00909	158574	-0.169325	-0.116686	9.802686				-0.000779	-0.001454	-0.001611				-1.290665	1.183853	-42.576775
00910	158624	-0.169550	-0.097988	9.802210				-0.002574	-0.001390	-0.001092				-1.291409	1.183448	-42.577076
00911	158674	-0.194433	-0.114110	9.800184				-0.001062	0.001875	0.001587				-1.288840	1.183020	-42.430284
00912	158724	-0.190496	-0.099154	9.796573				-0.005466	-0.000148	-0.002775				-1.290422	1.182960	-42.431082
00913	158774	-0.185606	-0.108691	9.797503				-0.000893	-0.001005	-0.002953				-1.287750	1.182321	-42.449197
00914	158824	-0.163044	-0.129099	9.810575				-0.005216	-0.000853	-0.000987				-1.289250	1.182070	-42.449475
00915	158874	-0.179024	-0.113601	9.805139				-0.004082	0.003950	-0.001957				-1.287503	1.182720	-42.432774
00916	158924	-0.189049	-0.110978	9.813816				-0.003889	0.001755	-0.001967				-1.288629	1.183210	-42.433348
00917	158974	-0.204859	-0.117132	9.812944				-0.006019	0.000131	-0.002388				-1.287408	1.183009	-42.479459
00918	159024	-0.183641	-0.134484	9.795099				0.000481	0.000279	-0.002471				-1.287285	1.183073	-42.480163
00919	159074	-0.175528	-0.136028	9.797220				-0.005951	0.000744	-0.004500				-1.286090	1.182764	-42.457663
00920	159124	-0.190617	-0.134039	9.800169				-0.003737	0.000983	-0.002008				-1.287172	1.183033	-42.458245
00921	159174	-0.189713	-0.117536	9.807589				-0.002191	0.003954	-0.002120				-1.284844	1.184012	-42.525510
00922	159224	-0.186924	-0.113758	9.796074				-0.003737	-0.000922	0.000199				-1.285913	1.183749	-42.525443
00923	159274	-0.185528	-0.117713	9.806368				-0.002827	-0.002752	-0.003789				-1.283822	1.182420	-42.497088
00924	159324	-0.177674	-0.107488	9.788831				-0.007787	-0.002711	-0.001920				-1.286064	1.181632	-42.497623
00925	159374	-0.182355	-0.107183	9.806352				-0.001717	-0.000016	-0.000320				-1.283614	1.181266	-42.508832
00926	159424	-0.166696	-0.130115	9.792142				-0.005893	-0.002637	0.001058				-1.285296	1.180518	-42.508509
00927	159474	-0.165276	-0.144353	9.778954				-0.005768	-0.001666	0.000323				-1.283996	1.179740	-42.533975
00928	159524	-0.203081	-0.111124	9.810055				-0.004884	0.000900	-0.000719				-1.285399	1.179994	-42.534188
00929	159574	-0.194934	-0.112860	9.811454				-0.000867	0.001223	-0.003902				-1.282743	1.179826	-42.512333
00930	159624	-0.199305	-0.098961	9.806677				-0.004581	-0.001913	-0.003591				-1.284077	1.179255	-42.513350
00931	159674	-0.189272	-0.121348	9.792245				-0.001860	0.001501	-0.000117				-1.281680	1.179216	-42.496637
00932	159724	-0.173040	-0.124821	9.799354				-0.002543	-0.000452	-0.001893				-1.282419	1.179075	-42.497175
00933	159774	-0.183823	-0.120289	9.803245				-0.003733	0.000280	0.003472				-1.280519	1.178853	-42.516497
00934	159824	-0.178878	-0.127690	9.791249				-0.006889	0.000048	-0.003957				-1.282516	1.178842	-42.517629
00935	159874	-0.169342	-0.122035	9.801261				-0.008344	0.001417	-0.003944				-1.281976	1.178933	-42.547834
00936	159924	-0.192287	-0.116647	9.794895				-0.004102	0.003280	-0.001442				-1.283161	1.179863	-42.548268
00937	159974	-0.186097	-0.123007	9.796550				-0.001971	-0.000337	-0.000853				-1.280818	1.179134	-42.491151
00938	160024	-0.199213	-0.106318	9.811466				-0.001033	-0.002578	0.000861				-1.281109	1.178401	-42.490890
00939	160074	-0.191840	-0.117168	9.796099				-0.004750	-0.003877	-0.002886				-1.279567	1.176704	-42.449408
00940	160124	-0.188837	-0.121875	9.804234				-0.007757	0.000408	0.001151				-1.281782	1.176828	-42.449080
00941	160174	-0.197007	-0.133153	9.798046				-0.005448	0.003289	-0.000663				-1.280415	1.177297	-42.432777
00942	160224	-0.187692	-0.131618	9.798716				-0.003869	-0.000045	-0.000914				-1.281529	1.177278	-42.433046
00943	160274	-0.179993	-0.121113	9.791964				-0.000747	0.000691	0.000944				-1.278837	1.176763	-42.351278
00944	160324	-0.195636	-0.118312	9.823918				-0.002734	0.000623	-0.000942				-1.279625	1.176936	-42.351543
00945	160374	-0.207304	-0.121347	9.822058				-0.003838	0.001991	-0.001477				-1.277786	1.177157	-42.368052
00946	160424	-0.196476	-0.115113	9.803781				0.000615	-0.003166	-0.001580				-1.277619	1.176240	-42.368486
00947	160474	-0.190360	-0.109100	9.787221				-0.000372	0.002025	0.001209				-1.274744	1.176702	-42.439404
00948	160524	-0.187947	-0.128509	9.825800				-0.004579	0.000232	0.000437				-1.276053	1.176771	-42.439290
00949	160574	-0.196684	-0.115446	9.806187				-0.002118	0.004482	0.000229				-1.273695	1.177838	-42.486608
00950	160624	-0.186579	-0.126287	9.792717				-0.002252	0.000507	0.000402				-1.274338	1.177986	-42.486494
00951	160674	-0.184951	-0.124773	9.802534				-0.004516	-0.001060	-0.001814				-1.272663	1.177569	-42.564440
00952	160724	-0.179298	-0.124345	9.809695				-0.002592	0.000436	0.002452				-1.273392	1.177710	-42.563744
00953	160774	-0.190185	-0.132707	9.785310				-0.004913	-0.002812	-0.002687				-1.271869	1.176517	-42.572708
00954	160824	-0.172298	-0.116095	9.804626				-0.004382	0.002918	-0.003110				-1.273144	1.177333	-42.573624
00955	160874	-0.180440	-0.103625	9.798431				-0.006770	0.001911	0.001765				-1.272148	1.177366	-42.541245
00956	160924	-0.206183	-0.103266	9.802637				-0.003946	0.000985	-0.003917				-1.273302	1.177623	-42.542383
00957	160974	-0.180835	-0.121827	9.811853				-0.004806	0.001073	-0.002383				-1.271723	1.177742	-42.601988
00958	161024	-0.189111	-0.126058	9.814055				0.000431	0.002715	-0.001647				-1.271609	1.178509	-42.602474
00959	161074	-0.193319	-0.114682	9.816718				-0.005445	0.001187	-0.000262				-1.270247	1.178306	-42.566605
00960	161124	-0.174805	-0.115890	9.791459				-0.001898	0.001214	-0.002422				-1.270805	1.178638	-42.567314
00961	161174	-0.208287	-0.094437	9.769336				-0.005846	0.000725	-0.002186				-1.269549	1.178448	-42.572717
00962	161224	-0.190130	-0.109791	9.784822				-0.000459	0.002573	-0.000299				-1.269683	1.179183	-42.572817
00963	161274	-0.200062	-0.105441	9.799014				-0.005369	0.003873	-0.000725				-1.268296	1.179775	-42.544313
00964	161324	-0.173437	-0.120038	9.813258				-0.004064	0.001854	-0.003372				-1.269481	1.180285	-42.545288
00965	161374	-0.187821	-0.121417	9.792485				-0.005391	0.002284	-0.004136				-1.268108	1.180493	-42.541736
00966	161424	-0.187109	-0.126014	9.805662				-0.004200	-0.000696	-0.000948				-1.269317	1.180287	-42.542002
00967	161474	-0.183403	-0.125832	9.811393				-0.003224	0.000874	-0.000110				-1.267332	1.179865	-42.471949
00968	161524	-0.197341	-0.116284	9.810741				-0.004747	0.001292	-0.002954				-1.268710	1.180216	-42.472813
00969	161574	-0.179620	-0.133205	9.813532				-0.003318	-0.002298	-0.000668				-1.266686	1.179434	-42.545773
00970	161624	-0.186402	-0.122281	9.792480				-0.004123	0.003254	0.001288				-1.267860	1.180374	-42.545421
00971	161674	-0.193905	-0.112195	9.796583				-0.003748	-0.001117	-0.004993				-1.265995	1.179821	-42.599351
00972	161724	-0.200945	-0.119376	9.793265				-0.002846	-0.000798	0.002640				-1.266795	1.179609	-42.598589
00973	161774	-0.186540	-0.123907	9.775227				-0.003649	0.003095	-0.001792				-1.264923	1.179966	-42.568757
00974	161824	-0.181713	-0.131339	9.783587				-0.004062	0.000957	-0.000302				-1.266088	1.180238	-42.568856
00975	161874	-0.190671	-0.117314	9.819815				-0.004642	0.000811	-0.004947				-1.264498	1.180098	-42.586053
00976	161924	-0.186098	-0.119280	9.786002				-0.004009	-0.000023	-0.003221				-1.265666	1.180071	-42.586974
00977	161974	-0.182471	-0.119320	9.804437				-0.003542	0.001065	0.001629				-1.263735	1.179928	-42.571727
00978	162024	-0.178363	-0.127285	9.787163				-0.003028	-0.002749	-0.003114				-1.264621	1.179121	-42.572612
00979	162074	-0.194520	-0.118024	9.790601				-0.002824	0.002099	-0.003372				-1.262522	1.179180	-42.542448
00980	162124	-0.192489	-0.121524	9.803285				-0.002538	0.002371	-0.000969				-1.263254	1.179853	-42.542728
00981	162174	-0.195644	-0.105497	9.801143				-0.005471	-0.003306	-0.002467				-1.261895	1.178480	-42.541126
00982	162224	-0.178456	-0.128818	9.793392				-0.005044	-0.000453	-0.001269				-1.263348	1.178342	-42.541488
00983	162274	-0.174529	-0.139584	9.804403				-0.003190	-0.000091	0.001268				-1.261328	1.177785	-42.505430
00984	162324	-0.181346	-0.101634	9.813777				-0.003620	0.002125	-0.000712				-1.262370	1.178390	-42.505648
00985	162374	-0.185276	-0.115424	9.804214				-0.008190	-0.001354	-0.002544				-1.261764	1.177782	-42.558509
00986	162424	-0.191098	-0.105558	9.795850				-0.005524	-0.001263	0.002103				-1.263334	1.177433	-42.557910
00987	162474	-0.178095	-0.112648	9.789320				-0.005235	-0.001226	0.002389				-1.261863	1.176795	-42.583667
00988	162524	-0.205320	-0.101134	9.816532				-0.006372	-0.001028	-0.002675				-1.263704	1.176484	-42.584427
00989	162574	-0.193109	-0.123797	9.800662				-0.000940	0.001423	-0.003130				-1.261059	1.176376	-42.560732
00990	162624	-0.208874	-0.120342	9.798341				-0.005097	0.001965	-0.005002				-1.262549	1.176907	-42.562173
00991	162674	-0.178733	-0.115008	9.810169				-0.002965	0.001717	-0.001707				-1.260479	1.176877	-42.534075
00992	162724	-0.198622	-0.107140	9.818660				-0.004526	0.000527	-0.001098				-1.261782	1.177021	-42.534394
00993	162774	-0.166192	-0.126041	9.807232				-0.005480	0.001022	-0.002638				-1.260417	1.176937	-42.545907
00994	162824	-0.179134	-0.134421	9.802030				-0.003828	-0.000698	-0.005537				-1.261546	1.176703	-42.547490
00995	162874	-0.162192	-0.137515	9.803861				-0.002322	-0.000277	-0.000186				-1.259269	1.176211	-42.545161
00996	162924	-0.177729	-0.113536	9.801058				-0.005747	0.000304	-0.002895				-1.260933	1.176280	-42.545991
00997	162974	-0.197402	-0.104752	9.804275				-0.002318	0.000302	-0.003029				-1.258662	1.176017	-42.566046
00998	163024	-0.182704	-0.105887	9.783345				-0.001023	-0.000995	-0.001085				-1.258961	1.175725	-42.566342
00999	163074	-0.170617	-0.131406	9.803178				-0.001378	0.000364	0.001968				-1.256404	1.175403	-42.556700
01000	163124	-0.190389	-0.121716	9.820770				-0.001183	0.000367	0.002773				-1.256727	1.175526	-42.555907
01001	163174	-0.180403	-0.132327	9.806831				-0.001789	0.000700	-0.004284				-1.254334	1.175181	-42.526983
01002	163224	-0.185931	-0.104921	9.798460				-0.000379	0.001218	0.000562				-1.254440	1.175533	-42.526827
01003	163274	-0.166522	-0.119586	9.805313				-0.003697	0.000704	0.001078				-1.252548	1.175338	-42.527101
01004	163324	-0.176141	-0.129840	9.812553				-0.004332	0.000401	-0.001101				-1.253796	1.175446	-42.527422
01005	163374	-0.196028	-0.133585	9.799472				-0.002355	-0.001243	0.000197				-1.251525	1.174693	-42.529260
01006	163424	-0.193630	-0.121440	9.799466				-0.002080	0.001083	-0.001525				-1.252130	1.174993	-42.529709
01007	163474	-0.195916	-0.101887	9.796345				0.002000	-0.001198	-0.000516				-1.248641	1.174042	-42.476836
01008	163524	-0.189838	-0.113868	9.786979				-0.002440	0.001272	-0.002992				-1.249358	1.174388	-42.477696
01009	163574	-0.178191	-0.123067	9.814956				-0.007913	0.001108	-0.002246				-1.248664	1.174527	-42.542068
01010	163624	-0.201819	-0.092784	9.798543				-0.000330	0.001340	-0.002803				-1.248775	1.174893	-42.542882
01011	163674	-0.206248	-0.092846	9.813659				-0.000653	-0.004247	0.002395				-1.246029	1.173084	-42.488410
01012	163724	-0.195767	-0.122502	9.810740				-0.000514	-0.000695	-0.001086				-1.246182	1.172878	-42.488725
01013	163774	-0.198279	-0.123771	9.801398				-0.005630	-0.001110	-0.001392				-1.244842	1.172272	-42.521812
01014	163824	-0.186383	-0.105976	9.783122				-0.002076	-0.005250	-0.000530				-1.245439	1.170765	-42.521933
01015	163874	-0.182967	-0.128069	9.806836				-0.003030	-0.002356	-0.000130				-1.243369	1.169642	-42.510297
01016	163924	-0.176966	-0.115229	9.806085				-0.002316	-0.001768	-0.003365				-1.244051	1.169115	-42.511244
01017	163974	-0.183051	-0.126084	9.792701				-0.007172	0.003096	-0.001594				-1.243169	1.169597	-42.513926
01018	164024	-0.179308	-0.114294	9.803940				-0.003704	-0.003533	-0.001923				-1.244241	1.168573	-42.514452
01019	164074	-0.190680	-0.126253	9.805923				-0.002196	0.000827	0.000306				-1.241928	1.168367	-42.503451
01020	164124	-0.179350	-0.124569	9.786205				0.000278	-0.001455	0.001504				-1.241840	1.167959	-42.503014
01021	164174	-0.184364	-0.128505	9.818824				0.000186	0.002126	-0.003861				-1.238845	1.168301	-42.546798
01022	164224	-0.191096	-0.116173	9.806635				-0.003894	0.001536	-0.003436				-1.239980	1.168719	-42.547781
01023	164274	-0.195567	-0.100765	9.804502				-0.004764	0.001647	-0.003463				-1.238418	1.168798	-42.557138
01024	164324	-0.190235	-0.116415	9.792502				-0.004423	-0.000797	-0.001398				-1.239693	1.168561	-42.557534
01025	164374	-0.187608	-0.112362	9.779778				-0.003613	-0.001269	-0.001947				-1.237811	1.167655	-42.524509
01026	164424	-0.195033	-0.102215	9.808807				-0.003494	-0.000785	-0.000276				-1.238813	1.167429	-42.524585
01027	164474	-0.203527	-0.100181	9.791361				-0.003870	0.000386	0.003356				-1.236966	1.167088	-42.505327
01028	164524	-0.194690	-0.109112	9.813357				-0.001766	-0.001916	-0.001024				-1.237477	1.166533	-42.505602
01029	164574	-0.199746	-0.111519	9.800451				-0.006996	0.004351	-0.006589				-1.236556	1.167477	-42.544998
01030	164624	-0.210022	-0.120183	9.797632				-0.002428	0.001919	-0.001483				-1.237261	1.168017	-42.545439
01031	164674	-0.199380	-0.122205	9.811475				-0.002515	-0.000542	-0.003099				-1.235056	1.167417	-42.539616
01032	164724	-0.184132	-0.135098	9.774252				-0.000141	-0.001631	-0.001830				-1.235107	1.166939	-42.540130
01033	164774	-0.175455	-0.121259	9.808235				-0.004642	-0.002159	-0.001407				-1.233510	1.165825	-42.517440
01034	164824	-0.177463	-0.101297	9.805843				-0.006291	0.000755	-0.000101				-1.235313	1.166041	-42.517482
01035	164874	-0.197404	-0.113323	9.815055				-0.006694	0.004369	-0.000558				-1.234271	1.167033	-42.556516
01036	164924	-0.185185	-0.133543	9.771141				-0.003833	0.001703	-0.000169				-1.235370	1.167519	-42.556578
01037	164974	-0.190943	-0.125646	9.790343				-0.007050	0.002493	0.001065				-1.234391	1.168203	-42.653364
01038	165024	-0.183815	-0.122338	9.799415				-0.005558	0.001541	-0.001637				-1.235993	1.168634	-42.653846
01039	165074	-0.183593	-0.107256	9.810193				-0.000861	0.001975	-0.001809				-1.233296	1.168874	-42.677486
01040	165124	-0.187140	-0.111469	9.814764				-0.003245	0.000651	0.001786				-1.234214	1.169072	-42.676969
01041	165174	-0.176339	-0.108632	9.789785				-0.005204	0.001511	-0.002088				-1.232761	1.169182	-42.702065
01042	165224	-0.178664	-0.133743	9.802983				-0.005075	-0.000355	-0.000048				-1.234215	1.169080	-42.702082
01043	165274	-0.186658	-0.108205	9.806851				-0.004079	0.001701	0.001088				-1.232453	1.169014	-42.659196
01044	165324	-0.187294	-0.103230	9.819317				-0.004355	0.002246	0.000256				-1.233699	1.169659	-42.659132
01045	165374	-0.183482	-0.129810	9.789111				-0.005022	0.002740	-0.004327				-1.232234	1.169890	-42.626550
01046	165424	-0.199628	-0.102676	9.818898				-0.003695	-0.000429	0.000051				-1.233292	1.169768	-42.626534
01047	165474	-0.175175	-0.116787	9.789056				-0.002524	-0.000314	-0.002743				-1.231082	1.169286	-42.634339
01048	165524	-0.197519	-0.120052	9.787258				0.001758	-0.001888	-0.002605				-1.230593	1.168729	-42.635069
01049	165574	-0.198610	-0.115756	9.805954				-0.003444	-0.001491	-0.000887				-1.228659	1.167735	-42.592069
01050	165624	-0.179882	-0.123133	9.791726				-0.002452	-0.001341	-0.000348				-1.229364	1.167349	-42.592167
01051	165674	-0.202254	-0.116966	9.807892				-0.001336	0.000580	-0.003318				-1.226821	1.167090	-42.592004
01052	165724	-0.189040	-0.098804	9.805426				-0.004964	-0.003232	-0.001696				-1.228253	1.166153	-42.592474
01053	165774	-0.183862	-0.102201	9.807077				-0.009099	-0.001749	0.000790				-1.227881	1.165470	-42.649519
01054	165824	-0.199892	-0.127739	9.794703				-0.005344	0.001899	-0.002469				-1.229427	1.165999	-42.650237
01055	165874	-0.183618	-0.127327	9.816910				-0.003869	0.001021	-0.001166				-1.227601	1.165843	-42.639343
01056	165924	-0.187616	-0.109709	9.812607				-0.001571	0.001092	-0.002292				-1.228065	1.166142	-42.640010
01057	165974	-0.195444	-0.120160	9.816249				-0.005649	0.002575	-0.002146				-1.226765	1.166349	-42.609043
01058	166024	-0.180069	-0.129985	9.789089				-0.004815	0.000454	-0.000620				-1.228148	1.166476	-42.609226
01059	166074	-0.191667	-0.099757	9.802802				-0.006437	-0.002065	-0.002038				-1.227063	1.165443	-42.601785
01060	166124	-0.194922	-0.102450	9.825585				-0.002585	0.000883	-0.001619				-1.227813	1.165686	-42.602255
01061	166174	-0.192994	-0.120289	9.812403				-0.004768	0.002303	0.001765				-1.226222	1.165965	-42.603901
01062	166224	-0.169873	-0.122745	9.776577				-0.004431	0.001297	-0.003826				-1.227513	1.166314	-42.604995
01063	166274	-0.191125	-0.107169	9.797053				-0.002458	-0.000150	-0.000788				-1.225273	1.165896	-42.613253
01064	166324	-0.178780	-0.105997	9.793634				-0.001782	0.002740	-0.001096				-1.225790	1.166674	-42.613587
01065	166374	-0.187494	-0.122773	9.802063				-0.006849	0.004370	0.001333				-1.224803	1.167501	-42.604210
01066	166424	-0.170580	-0.105058	9.796947				-0.005842	0.005440	-0.003734				-1.226499	1.169036	-42.605310
01067	166474	-0.182340	-0.113523	9.810903				-0.004029	0.000857	-0.002479				-1.224721	1.168866	-42.605723
01068	166524	-0.183797	-0.098097	9.797733				-0.002851	0.000071	-0.001139				-1.225545	1.168879	-42.606056
01069	166574	-0.184872	-0.133283	9.795105				-0.007103	0.004541	-0.006780				-1.224666	1.169794	-42.623527
01070	166624	-0.179022	-0.121133	9.801539				-0.005383	-0.001174	-0.003900				-1.226231	1.169434	-42.624633
01071	166674	-0.191445	-0.107920	9.798007				-0.004167	0.003313	-0.002081				-1.224505	1.169864	-42.596639
01072	166724	-0.195923	-0.111331	9.786049				-0.002399	-0.001118	-0.002462				-1.225206	1.169529	-42.597334
01073	166774	-0.181176	-0.120813	9.807069				-0.004850	-0.000612	-0.001556				-1.223661	1.168925	-42.592828
01074	166824	-0.188536	-0.105428	9.806861				-0.004266	-0.000372	0.001558				-1.224874	1.168829	-42.592375
01075	166874	-0.191277	-0.137262	9.804243				-0.007016	0.000126	-0.001255				-1.223958	1.168348	-42.563058
01076	166924	-0.202335	-0.123450	9.794954				-0.004339	0.000496	-0.002189				-1.225215	1.168476	-42.563698
01077	166974	-0.203243	-0.115642	9.809813				-0.005607	0.000054	-0.002251				-1.223871	1.168218	-42.602417
01078	167024	-0.209905	-0.090610	9.802173				-0.000750	-0.001638	-0.002305				-1.224099	1.167735	-42.603064
01079	167074	-0.188080	-0.119592	9.795364				-0.006905	0.000709	-0.001381				-1.223135	1.167569	-42.613514
01080	167124	-0.197611	-0.108772	9.804993				-0.002176	0.000121	0.000178				-1.223757	1.167605	-42.613462
01081	167174	-0.181804	-0.118613	9.816658				-0.005430	-0.000232	0.000597				-1.222365	1.167125	-42.608079
01082	167224	-0.174162	-0.111411	9.795765				-0.009611	0.000075	-0.002760				-1.225134	1.167130	-42.608873
01083	167274	-0.186536	-0.091913	9.796303				-0.001742	0.000676	0.000142				-1.222674	1.167022	-42.635338
01084	167324	-0.188530	-0.104969	9.793921				-0.002271	0.001953	-0.002990				-1.223342	1.167564	-42.636204
01085	167374	-0.183133	-0.127683	9.808757				-0.003643	0.001898	-0.001995				-1.221445	1.167739	-42.648279
01086	167424	-0.195330	-0.110408	9.820553				-0.002380	0.002669	0.000154				-1.222126	1.168504	-42.648256
01087	167474	-0.190459	-0.118745	9.790821				-0.004374	-0.000409	-0.002874				-1.220448	1.167982	-42.651769
01088	167524	-0.202730	-0.105928	9.783445				-0.002467	-0.000021	-0.002743				-1.221170	1.167959	-42.652552
01089	167574	-0.189342	-0.121357	9.803992				-0.006018	-0.000884	0.001109				-1.219941	1.167308	-42.650054
01090	167624	-0.196776	-0.113146	9.794683				-0.004802	0.001906	-0.003595				-1.221338	1.167832	-42.651093
01091	167674	-0.180388	-0.123592	9.802997				-0.005069	-0.000843	-0.001588				-1.219857	1.167144	-42.640446
01092	167724	-0.203817	-0.120510	9.791609				-0.002921	0.000330	-0.001971				-1.220705	1.167226	-42.641013
01093	167774	-0.205218	-0.102335	9.789690				-0.004098	0.001115	-0.002091				-1.218944	1.167144	-42.643626
01094	167824	-0.189507	-0.107783	9.807827				-0.003307	0.001518	0.001371				-1.219883	1.167587	-42.643244
01095	167874	-0.198134	-0.100347	9.795883				-0.002035	0.001734	-0.000618				-1.217528	1.167643	-42.631977
01096	167924	-0.197013	-0.108706	9.798275				-0.002658	-0.004133	-0.002862				-1.218306	1.166442	-42.632770
01097	167974	-0.220877	-0.125018	9.808226				-0.002429	-0.001479	-0.004739				-1.216065	1.165712	-42.666792
01098	168024	-0.187761	-0.096461	9.807092				-0.005203	0.000443	-0.003185				-1.217574	1.165820	-42.667698
01099	168074	-0.188725	-0.127555	9.795846				-0.003175	0.001495	0.001980				-1.215526	1.165851	-42.662830
01100	168124	-0.195983	-0.124568	9.781745				-0.003073	-0.001933	0.001644				-1.216396	1.165307	-42.662342
01101	168174	-0.191286	-0.117120	9.807117				-0.006096	0.000035	-0.006296				-1.215228	1.164916	-42.672421
01102	168224	-0.192468	-0.111913	9.798491				-0.001792	0.001089	-0.000846				-1.215746	1.165223	-42.672664
01103	168274	-0.194809	-0.121502	9.805218				0.000357	-0.000969	0.000256				-1.212698	1.164530	-42.666112
01104	168324	-0.198841	-0.105909	9.814585				-0.005023	0.000966	-0.001992				-1.214149	1.164795	-42.666686
01105	168374	-0.190867	-0.106158	9.792252				-0.003248	-0.000517	-0.000722				-1.212152	1.164128	-42.632857
01106	168424	-0.187389	-0.116464	9.802064				-0.005014	-0.001524	-0.002652				-1.213603	1.163675	-42.633601
01107	168474	-0.196060	-0.103968	9.809529				-0.006463	0.000618	-0.003435				-1.212548	1.163272	-42.587947
01108	168524	-0.195592	-0.091338	9.802334				0.001515	-0.001111	-0.000360				-1.212116	1.162951	-42.588049
01109	168574	-0.192402	-0.107067	9.806637				-0.001732	-0.000040	-0.003260				-1.209674	1.162591	-42.606051
01110	168624	-0.191650	-0.120302	9.796576				-0.005133	-0.000750	-0.002966				-1.211161	1.162358	-42.606894
01111	168674	-0.174714	-0.134017	9.787625				-0.007512	-0.001468	-0.001233				-1.210385	1.161430	-42.576631
01112	168724	-0.192476	-0.113076	9.804006				-0.006495	-0.002126	-0.000530				-1.212249	1.160818	-42.576775
01113	168774	-0.175487	-0.131533	9.817106				-0.005080	0.000476	-0.004888				-1.210769	1.160652	-42.611092
01114	168824	-0.198282	-0.127667	9.804039				-0.006299	-0.000279	-0.001647				-1.212583	1.160562	-42.611559
