// General information: 
//  MT Manager version: 2022.0.0 
//  XDA version: 2022.0.0 build 7085 rev 119802 built on 2022-11-08
// Device information: 
//  DeviceId: 037004D1
//  ProductCode: MTi-300-2A5G4
//  Firmware Version: 1.4.1
//  Hardware Version: 2.1.0
// Device settings: 
//  Filter Profile: general(39.16)
//  Option Flags: Orientation Smoother Disabled, Position/Velocity Smoother Disabled, Continuous Zero Rotation Update Disabled, AHS Disabled, ICC Disabled
// Coordinate system: ENU
PacketCounter	SampleTimeFine	Acc_X	Acc_Y	Acc_Z	AccHR_X	AccHR_Y	AccHR_Z	Gyr_X	Gyr_Y	Gyr_Z	GyrHR_X	GyrHR_Y	GyrHR_Z	Roll	Pitch	Yaw
00001	13894512	-0.247541	9.823826	0.327686				-0.006317	-0.000716	-0.000305				87.558917	1.301731	-37.945969
00002	13894562	-0.245743	9.807915	0.299555				-0.003831	0.000618	-0.001907				87.560136	1.301483	-37.946080
00003	13894612	-0.232209	9.809978	0.330514				-0.005715	0.001324	-0.003468				87.558508	1.302494	-37.945745
00004	13894662	-0.246169	9.807972	0.341820				-0.007661	0.001523	0.000191				87.558660	1.301652	-37.945584
00005	13894712	-0.244972	9.811564	0.325007				-0.005269	-0.000376	0.000179				87.557154	1.301598	-37.945689
00006	13894762	-0.234914	9.812623	0.325890				-0.003470	0.002927	0.002565				87.558500	1.300093	-37.945062
00007	13894812	-0.228692	9.817239	0.323877				-0.001911	-0.000195	-0.001632				87.557936	1.300555	-37.945128
00008	13894862	-0.219838	9.819087	0.318824				-0.004082	0.002713	-0.002158				87.559128	1.300402	-37.944647
00009	13894912	-0.234420	9.824290	0.323692				-0.002682	0.001930	-0.001422				87.558372	1.300835	-37.944107
00010	13894962	-0.236156	9.839645	0.326194				-0.006519	-0.001668	-0.003903				87.558803	1.301127	-37.944882
00011	13895012	-0.187720	9.802712	0.329728				-0.003450	-0.000088	0.000263				87.557814	1.301049	-37.944908
00012	13895062	-0.209954	9.800360	0.310410				-0.003098	0.002922	-0.000522				87.559257	1.300426	-37.944324
00013	13895112	-0.233006	9.810194	0.315847				-0.006132	-0.002497	-0.000510				87.557491	1.300545	-37.945053
00014	13895162	-0.206291	9.801682	0.320089				0.000649	-0.002114	-0.000268				87.560007	1.299796	-37.945915
00015	13895212	-0.201190	9.821543	0.328610				-0.004473	-0.001136	0.001257				87.558716	1.299421	-37.946222
00016	13895262	-0.224947	9.814612	0.312695				-0.003652	0.000937	-0.002580				87.560009	1.299372	-37.946233
00017	13895312	-0.225838	9.822111	0.317683				-0.004904	0.002012	-0.004112				87.558613	1.300574	-37.945705
00018	13895362	-0.213956	9.810456	0.329564				-0.002231	-0.000094	0.000842				87.560291	1.299526	-37.945965
00019	13895412	-0.232080	9.805691	0.316095				-0.004204	-0.000948	-0.003909				87.559084	1.300635	-37.946287
00020	13895462	-0.224122	9.807150	0.335784				-0.008275	0.001374	-0.003561				87.559026	1.300861	-37.946165
00021	13895512	-0.248662	9.824135	0.306775				-0.003157	0.001431	-0.004217				87.558123	1.302085	-37.945801
00022	13895562	-0.242667	9.815673	0.322056				-0.001757	0.001810	-0.002742				87.559961	1.302085	-37.945582
00023	13895612	-0.242724	9.815891	0.323303				-0.005109	0.001527	-0.003311				87.558508	1.303053	-37.945178
00024	13895662	-0.225900	9.815240	0.317247				-0.006004	0.003911	0.000618				87.559150	1.302123	-37.944307
00025	13895712	-0.230562	9.824013	0.344876				-0.006021	0.004999	-0.005408				87.557462	1.303732	-37.942941
00026	13895762	-0.236330	9.806689	0.324710				-0.003816	0.000194	-0.001656				87.558680	1.303402	-37.943166
00027	13895812	-0.231400	9.816978	0.354124				-0.004000	-0.001066	-0.000765				87.557533	1.303610	-37.943484
00028	13895862	-0.224793	9.807712	0.329439				-0.004572	0.000694	-0.002742				87.558542	1.303598	-37.943583
00029	13895912	-0.238985	9.832262	0.325593				-0.001651	-0.001308	0.001153				87.558073	1.303255	-37.943944
00030	13895962	-0.221221	9.808045	0.325836				-0.003348	0.002462	-0.003473				87.559447	1.303468	-37.943537
00031	13896012	-0.234454	9.827647	0.305528				-0.003641	0.002212	0.002562				87.558423	1.302764	-37.942876
00032	13896062	-0.197262	9.813544	0.327346				-0.003190	0.000589	-0.003907				87.559830	1.303080	-37.942987
00033	13896112	-0.210028	9.803178	0.328063				0.000592	0.003302	-0.006367				87.560020	1.304941	-37.942125
00034	13896162	-0.202713	9.801754	0.317827				-0.006133	0.000446	-0.001006				87.560596	1.304434	-37.942257
00035	13896212	-0.225758	9.801685	0.320067				-0.004091	0.003037	-0.000358				87.559451	1.304572	-37.941396
00036	13896262	-0.225309	9.796112	0.327527				-0.003602	-0.001610	-0.001667				87.560720	1.304228	-37.942116
00037	13896312	-0.212448	9.811794	0.320694				-0.002202	-0.001661	-0.005262				87.560068	1.305711	-37.942657
00038	13896362	-0.210233	9.800723	0.317632				-0.002863	-0.001593	-0.000323				87.561577	1.304982	-37.943385
00039	13896412	-0.213205	9.804125	0.310050				-0.008166	0.000629	-0.004496				87.559250	1.306277	-37.943266
00040	13896462	-0.219517	9.816539	0.299110				-0.001304	0.000753	-0.003329				87.561195	1.306438	-37.943330
00041	13896512	-0.238689	9.813194	0.332594				-0.001333	0.000559	-0.002747				87.560816	1.307231	-37.943201
00042	13896562	-0.244850	9.839688	0.316375				-0.003321	-0.003451	-0.002929				87.562145	1.307218	-37.944482
00043	13896612	-0.244401	9.802629	0.336299				-0.007332	0.001010	0.000381				87.560052	1.307121	-37.944187
00044	13896662	-0.228912	9.823035	0.317091				-0.006580	0.002506	-0.001409				87.560519	1.306758	-37.943725
00045	13896712	-0.221366	9.813813	0.320825				-0.005136	0.000791	0.002103				87.559054	1.306165	-37.943471
00046	13896762	-0.242775	9.823567	0.333136				-0.004056	0.004008	-0.000221				87.560241	1.305470	-37.942587
00047	13896812	-0.244870	9.816854	0.336220				-0.003217	0.003699	-0.000545				87.559351	1.305672	-37.941537
00048	13896862	-0.224416	9.807692	0.315706				-0.001098	-0.000596	-0.000448				87.561343	1.304990	-37.941975
00049	13896912	-0.231740	9.815569	0.322451				-0.001856	0.000872	-0.003100				87.560812	1.305889	-37.941762
00050	13896962	-0.211174	9.792374	0.320007				-0.003843	0.005205	-0.000571				87.562069	1.305307	-37.940518
00051	13897012	-0.216386	9.803471	0.334612				-0.001565	0.000915	-0.001367				87.561632	1.305711	-37.940275
00052	13897062	-0.225346	9.815691	0.334667				-0.002589	0.002028	-0.000689				87.563223	1.305131	-37.939955
00053	13897112	-0.212354	9.811757	0.323347				-0.002509	0.001580	0.000593				87.562501	1.304976	-37.939493
00054	13897162	-0.208744	9.796189	0.304971				-0.006647	0.001206	-0.004593				87.562955	1.305504	-37.939483
00055	13897212	-0.207709	9.816432	0.300044				-0.000350	0.003235	0.000434				87.562889	1.305419	-37.938563
00056	13897262	-0.203815	9.796935	0.307066				-0.004742	-0.000150	-0.002746				87.563848	1.305399	-37.938882
00057	13897312	-0.208759	9.821590	0.334859				-0.005200	-0.000671	-0.001884				87.562354	1.305929	-37.939097
00058	13897362	-0.225848	9.798759	0.324844				-0.003266	0.002982	-0.002892				87.563764	1.305994	-37.938537
00059	13897412	-0.212865	9.798321	0.317544				-0.001048	0.001924	-0.001363				87.563480	1.306411	-37.938002
00060	13897462	-0.236147	9.809039	0.326771				-0.000512	0.000092	-0.000896				87.565643	1.305853	-37.938227
00061	13897512	-0.221228	9.825583	0.312173				-0.004867	0.004413	-0.000088				87.564281	1.305931	-37.936970
00062	13897562	-0.227984	9.829566	0.324941				-0.005127	-0.001696	0.001386				87.565122	1.304708	-37.937695
00063	13897612	-0.223354	9.808730	0.326427				-0.008561	-0.001962	-0.003805				87.562658	1.305775	-37.938305
00064	13897662	-0.247121	9.814851	0.341022				-0.001682	0.002394	-0.005141				87.564519	1.306474	-37.937946
00065	13897712	-0.236987	9.820561	0.316846				-0.005219	0.000010	-0.001811				87.563028	1.306993	-37.937968
00066	13897762	-0.231587	9.826026	0.320689				-0.000311	0.001944	-0.001016				87.565262	1.306497	-37.937687
00067	13897812	-0.252658	9.832587	0.324557				-0.002710	0.000729	-0.002291				87.564481	1.307158	-37.937502
00068	13897862	-0.211723	9.795248	0.317358				-0.001992	0.002328	-0.001360				87.566262	1.306779	-37.937128
00069	13897912	-0.226638	9.795444	0.307927				-0.004817	-0.001866	-0.003976				87.564862	1.307893	-37.937712
00070	13897962	-0.236909	9.810823	0.318216				-0.003371	0.002006	-0.004981				87.566226	1.308545	-37.937435
00071	13898012	-0.238969	9.826686	0.318335				-0.006095	0.001449	-0.001641				87.564493	1.309033	-37.937043
00072	13898062	-0.222896	9.796265	0.334819				-0.007027	0.000659	0.000826				87.564805	1.307993	-37.937086
00073	13898112	-0.212615	9.801944	0.313792				-0.005756	-0.000191	-0.000530				87.563150	1.308141	-37.937147
00074	13898162	-0.214294	9.815357	0.319277				-0.003196	-0.002185	-0.000486				87.564560	1.307453	-37.938050
00075	13898212	-0.234960	9.816483	0.321811				-0.005101	0.001535	0.000119				87.563106	1.307439	-37.937608
00076	13898262	-0.217512	9.807407	0.324573				-0.002878	0.002929	-0.001708				87.564633	1.307157	-37.937036
00077	13898312	-0.216055	9.811972	0.337377				-0.006147	0.000993	-0.002736				87.562874	1.307951	-37.936787
00078	13898362	-0.215196	9.807311	0.316647				-0.003555	-0.000259	-0.005509				87.564175	1.308714	-37.937176
00079	13898412	-0.211625	9.811261	0.310431				-0.003225	-0.000250	-0.001404				87.563243	1.309114	-37.937258
00080	13898462	-0.222164	9.816906	0.320127				-0.008176	0.002412	-0.001986				87.563238	1.308905	-37.936857
00081	13898512	-0.226277	9.821618	0.319108				-0.002787	-0.003149	-0.002252				87.562420	1.309510	-37.937792
00082	13898562	-0.215235	9.816964	0.337417				-0.001074	-0.001768	-0.005781				87.564421	1.310339	-37.938611
00083	13898612	-0.241565	9.822681	0.330001				-0.003594	0.003500	-0.001090				87.563421	1.310694	-37.937630
00084	13898662	-0.224025	9.809529	0.335417				-0.004263	-0.001615	0.002250				87.564509	1.309227	-37.938314
00085	13898712	-0.229520	9.790758	0.317447				-0.004753	0.001272	-0.003893				87.563164	1.310358	-37.938001
00086	13898762	-0.228382	9.813923	0.323856				-0.001135	0.002535	-0.002932				87.565183	1.310422	-37.937568
00087	13898812	-0.229514	9.822241	0.337807				-0.003135	0.005151	-0.002240				87.564314	1.311126	-37.936115
00088	13898862	-0.241104	9.820844	0.326848				-0.003117	0.000203	-0.002968				87.565746	1.311171	-37.936334
00089	13898912	-0.219640	9.809006	0.311600				-0.002281	0.002354	-0.002163				87.565111	1.311819	-37.935686
00090	13898962	-0.227624	9.799901	0.341663				-0.002947	0.004188	-0.001604				87.566610	1.311525	-37.934749
00091	13899012	-0.232163	9.800432	0.318956				-0.003891	0.001684	0.000373				87.565509	1.311438	-37.934267
00092	13899062	-0.205199	9.801359	0.311139				-0.003722	0.000428	0.000270				87.566779	1.310562	-37.934401
00093	13899112	-0.231686	9.812013	0.322038				-0.002808	0.001666	-0.003446				87.565979	1.311569	-37.933965
00094	13899162	-0.236413	9.803238	0.302431				-0.004791	0.003734	-0.002144				87.566956	1.311423	-37.933173
00095	13899212	-0.214345	9.805719	0.313525				-0.002192	-0.002453	0.000728				87.566318	1.311183	-37.933871
00096	13899262	-0.212392	9.805041	0.312597				-0.004257	-0.002071	-0.000065				87.567421	1.310372	-37.934702
00097	13899312	-0.217304	9.822718	0.316174				-0.002408	-0.000048	-0.004741				87.566727	1.311727	-37.934773
00098	13899362	-0.222147	9.813983	0.324772				-0.002036	0.002911	0.000308				87.568491	1.310871	-37.934167
00099	13899412	-0.217955	9.816679	0.322496				-0.004801	-0.001348	-0.004902				87.567099	1.312256	-37.934610
00100	13899462	-0.217983	9.820281	0.335143				-0.002849	0.000092	0.000302				87.568611	1.311368	-37.934831
00101	13899512	-0.241169	9.829754	0.332913				-0.005377	-0.001896	0.000972				87.567065	1.311069	-37.935367
00102	13899562	-0.219088	9.815586	0.331064				-0.004070	-0.000843	-0.000923				87.568213	1.310516	-37.935888
00103	13899612	-0.210121	9.806410	0.318105				-0.004140	0.000317	-0.001628				87.567024	1.310983	-37.935814
00104	13899662	-0.226679	9.811124	0.321854				-0.006245	-0.001340	-0.003997				87.567550	1.311307	-37.936499
00105	13899712	-0.224558	9.819823	0.313591				-0.003966	-0.001396	-0.003624				87.566411	1.312328	-37.936945
00106	13899762	-0.230271	9.807960	0.324441				-0.004078	-0.001919	-0.004525				87.567565	1.312798	-37.937789
00107	13899812	-0.231347	9.818645	0.338613				-0.004731	-0.001276	-0.002495				87.566195	1.313497	-37.938181
00108	13899862	-0.243649	9.818161	0.297940				-0.005260	0.001381	0.000184				87.567022	1.312656	-37.938045
00109	13899912	-0.250538	9.818740	0.316432				-0.004095	0.001797	-0.002764				87.565862	1.313471	-37.937562
00110	13899962	-0.224718	9.810645	0.324136				-0.002974	0.000045	0.000904				87.567338	1.312409	-37.937791
00111	13900012	-0.212670	9.798013	0.337791				-0.005682	0.001778	0.001434				87.565717	1.312019	-37.937260
00112	13900062	-0.233861	9.822779	0.314487				-0.008432	0.002465	-0.001438				87.565656	1.311660	-37.936844
00113	13900112	-0.241460	9.831060	0.324682				-0.003223	-0.000419	-0.003137				87.564730	1.312553	-37.936999
00114	13900162	-0.234506	9.817124	0.310997				-0.002871	0.002760	-0.002158				87.566247	1.312397	-37.936505
00115	13900212	-0.236973	9.813261	0.329273				-0.006504	0.004111	-0.004003				87.564400	1.313592	-37.935372
00116	13900262	-0.214411	9.818131	0.323873				-0.005584	0.001284	-0.002995				87.565157	1.313665	-37.935314
00117	13900312	-0.201235	9.805099	0.317980				-0.000615	-0.000657	0.000826				87.564979	1.313422	-37.935490
00118	13900362	-0.211338	9.796907	0.333717				-0.004815	0.000298	-0.001884				87.565906	1.313157	-37.935681
00119	13900412	-0.212132	9.815095	0.322699				-0.005443	-0.002167	-0.001024				87.564331	1.313424	-37.936313
00120	13900462	-0.210721	9.796683	0.317647				-0.004625	0.004569	-0.001313				87.565374	1.313051	-37.935281
00121	13900512	-0.212585	9.806273	0.324599				-0.004061	0.002929	-0.001033				87.564220	1.313383	-37.934449
00122	13900562	-0.217173	9.815935	0.325756				-0.002265	0.002930	-0.000494				87.565932	1.312750	-37.933894
00123	13900612	-0.223865	9.823442	0.310229				-0.002018	-0.002208	-0.003569				87.565332	1.313744	-37.934565
00124	13900662	-0.217430	9.792748	0.336658				-0.004696	0.000659	-0.000758				87.566336	1.313166	-37.934654
00125	13900712	-0.221181	9.792877	0.325275				-0.003445	0.000679	-0.001045				87.565340	1.313471	-37.934467
00126	13900762	-0.230524	9.817161	0.327568				-0.004594	-0.001508	-0.000381				87.566364	1.312761	-37.935163
00127	13900812	-0.241885	9.807113	0.323729				-0.002792	-0.000896	-0.002854				87.565555	1.313571	-37.935450
00128	13900862	-0.230164	9.807816	0.318451				-0.004552	0.001079	-0.000944				87.566580	1.313042	-37.935406
00129	13900912	-0.239010	9.820642	0.309924				-0.007067	-0.001222	0.001550				87.564542	1.312584	-37.935731
00130	13900962	-0.223710	9.810418	0.308605				-0.004064	-0.001110	-0.001473				87.565707	1.312190	-37.936337
00131	13901012	-0.245581	9.821258	0.326429				-0.003267	0.000136	-0.000375				87.564775	1.312302	-37.936302
00132	13901062	-0.229330	9.794817	0.331604				-0.003238	0.002268	-0.000844				87.566195	1.311763	-37.935932
00133	13901112	-0.228080	9.810391	0.322749				-0.003043	0.000878	-0.002167				87.565327	1.312392	-37.935710
00134	13901162	-0.232252	9.825745	0.323395				-0.000621	0.000633	-0.000539				87.567485	1.311756	-37.935791
00135	13901212	-0.215089	9.804905	0.319508				-0.002566	0.000243	0.000488				87.566751	1.311619	-37.935718
00136	13901262	-0.230802	9.816628	0.315783				-0.003578	-0.001497	-0.004493				87.568047	1.312080	-37.936470
00137	13901312	-0.232936	9.821471	0.322754				-0.004139	0.001444	0.000788				87.566873	1.311871	-37.936049
00138	13901362	-0.205554	9.804289	0.320872				-0.001623	0.001911	-0.000082				87.568742	1.311107	-37.935743
00139	13901412	-0.223769	9.806962	0.317438				-0.003831	0.002511	-0.003830				87.567657	1.312233	-37.935068
00140	13901462	-0.205132	9.811207	0.318756				-0.005029	-0.001062	-0.000570				87.568562	1.311585	-37.935631
00141	13901512	-0.214520	9.810374	0.303492				-0.003045	0.002303	0.001366				87.567712	1.311223	-37.934960
00142	13901562	-0.221761	9.819226	0.323859				-0.003123	0.003526	-0.002222				87.569166	1.311098	-37.934235
00143	13901612	-0.214774	9.802350	0.300676				-0.006413	-0.001961	-0.002629				87.567309	1.311827	-37.934820
00144	13901662	-0.209200	9.790320	0.331230				-0.000166	0.000476	0.000770				87.569586	1.310803	-37.934929
00145	13901712	-0.216222	9.821961	0.320004				-0.003934	0.002261	0.000822				87.568478	1.310594	-37.934273
00146	13901762	-0.203843	9.806995	0.315750				-0.006685	0.001082	0.001690				87.568910	1.309325	-37.934209
00147	13901812	-0.219477	9.790511	0.326518				-0.002604	0.000405	0.000135				87.568166	1.309290	-37.934089
00148	13901862	-0.230381	9.812598	0.316083				-0.005135	-0.000641	-0.000471				87.569034	1.308615	-37.934532
00149	13901912	-0.231702	9.815897	0.316289				-0.005030	0.001333	0.000438				87.567603	1.308505	-37.934150
00150	13901962	-0.228830	9.812658	0.328464				-0.004128	0.002024	-0.002223				87.568754	1.308365	-37.933825
00151	13902012	-0.241123	9.813743	0.309814				-0.002689	-0.000152	-0.001694				87.567986	1.308848	-37.933897
00152	13902062	-0.235797	9.799544	0.327298				-0.003396	0.002201	-0.001005				87.569366	1.308357	-37.933535
00153	13902112	-0.236743	9.828831	0.303628				-0.003289	0.001880	0.000501				87.568434	1.308238	-37.932989
00154	13902162	-0.238914	9.808708	0.315174				-0.005256	-0.000938	-0.001111				87.569251	1.307737	-37.933512
00155	13902212	-0.225124	9.808678	0.312608				-0.002146	-0.000913	-0.000579				87.568629	1.307892	-37.933776
00156	13902262	-0.233948	9.809968	0.314185				-0.004492	0.004409	-0.000346				87.569697	1.307239	-37.932776
00157	13902312	-0.225450	9.827116	0.332495				-0.002263	-0.002114	-0.000329				87.569033	1.307305	-37.933388
00158	13902362	-0.228530	9.808206	0.325345				-0.001206	-0.002190	-0.000781				87.571019	1.306701	-37.934276
00159	13902412	-0.214895	9.818877	0.321149				-0.001241	0.002649	-0.003868				87.570681	1.307839	-37.933567
00160	13902462	-0.222175	9.818582	0.319149				-0.003387	-0.003523	-0.002321				87.572022	1.307655	-37.934845
00161	13902512	-0.208618	9.811093	0.338745				-0.003590	-0.000813	-0.000962				87.570986	1.307920	-37.935089
00162	13902562	-0.206898	9.811357	0.323044				-0.002511	0.000369	-0.002018				87.572599	1.307697	-37.935238
00163	13902612	-0.219330	9.819540	0.320581				-0.006133	0.000535	-0.001745				87.570856	1.308205	-37.935109
00164	13902662	-0.221562	9.814522	0.337058				-0.004295	0.002214	-0.001328				87.571952	1.307805	-37.934743
00165	13902712	-0.219003	9.817915	0.333971				-0.005536	-0.003497	-0.003467				87.570345	1.308757	-37.935791
00166	13902762	-0.214584	9.821029	0.320168				-0.000689	0.000530	-0.002824				87.572508	1.308773	-37.935948
00167	13902812	-0.215854	9.809094	0.323685				-0.005324	0.001493	-0.000462				87.570990	1.308926	-37.935517
00168	13902862	-0.217443	9.806373	0.329845				-0.002826	-0.003000	-0.003670				87.572494	1.309134	-37.936679
00169	13902912	-0.215000	9.812231	0.321385				-0.000770	-0.002056	-0.001933				87.572258	1.309662	-37.937294
00170	13902962	-0.237919	9.826345	0.326105				-0.002914	0.001878	-0.005274				87.573776	1.310392	-37.937071
00171	13903012	-0.245982	9.808466	0.325382				-0.001997	0.000279	-0.003010				87.573215	1.311260	-37.937028
00172	13903062	-0.241052	9.821291	0.328321				-0.003452	0.000974	-0.000753				87.574570	1.310688	-37.937004
00173	13903112	-0.231620	9.815248	0.343169				-0.004676	-0.001156	-0.002722				87.573229	1.311451	-37.937372
00174	13903162	-0.245767	9.818114	0.315064				-0.001419	-0.000708	-0.001408				87.575135	1.311042	-37.937832
00175	13903212	-0.220242	9.802974	0.316453				-0.002221	0.003809	0.001760				87.574522	1.310581	-37.936725
00176	13903262	-0.220648	9.792564	0.330578				-0.003965	0.001194	0.002292				87.575750	1.309138	-37.936620
00177	13903312	-0.239194	9.826270	0.329497				-0.004294	-0.001819	-0.000345				87.574510	1.309212	-37.937152
00178	13903362	-0.223262	9.801949	0.335576				-0.000823	-0.002410	-0.001325				87.576595	1.308761	-37.938104
00179	13903412	-0.219825	9.816072	0.329645				-0.005241	0.000681	-0.001267				87.575105	1.309132	-37.937931
00180	13903462	-0.228307	9.810310	0.327738				-0.003080	0.001433	-0.000337				87.576547	1.308444	-37.937768
00181	13903512	-0.217037	9.810020	0.324561				-0.001154	0.002412	0.001910				87.576226	1.307927	-37.937046
00182	13903562	-0.227165	9.825729	0.312702				-0.005121	0.003107	-0.000578				87.577121	1.307328	-37.936437
00183	13903612	-0.207402	9.794913	0.296773				-0.006352	-0.001761	-0.000478				87.575292	1.307441	-37.936948
00184	13903662	-0.228515	9.812264	0.323437				-0.003524	-0.002646	0.002559				87.576597	1.305870	-37.937935
00185	13903712	-0.211267	9.810762	0.342741				-0.003207	0.002462	-0.000398				87.575700	1.306016	-37.937244
00186	13903762	-0.233562	9.816932	0.339862				-0.006434	-0.001448	-0.004866				87.576180	1.306589	-37.937951
00187	13903812	-0.212917	9.808940	0.321244				-0.003393	-0.000769	0.002569				87.575210	1.305843	-37.938145
00188	13903862	-0.243233	9.814349	0.330423				-0.001811	0.001513	-0.004092				87.577039	1.306234	-37.938022
00189	13903912	-0.224326	9.823090	0.301655				-0.004531	0.000463	-0.002199				87.575741	1.306868	-37.937918
00190	13903962	-0.212181	9.801382	0.319759				-0.002615	0.001729	-0.000563				87.577350	1.306248	-37.937705
00191	13904012	-0.233844	9.811517	0.321776				-0.002567	-0.000121	-0.004262				87.576617	1.307468	-37.937790
00192	13904062	-0.232476	9.811296	0.337009				-0.008394	-0.001896	-0.000502				87.576524	1.306780	-37.938592
00193	13904112	-0.228191	9.831093	0.333465				-0.002825	0.001171	-0.003388				87.575722	1.307765	-37.938299
00194	13904162	-0.232232	9.820152	0.332404				-0.004858	0.003051	0.000672				87.576687	1.306808	-37.937668
00195	13904212	-0.211092	9.805664	0.319813				-0.005629	0.001772	-0.000365				87.575091	1.306934	-37.937170
00196	13904262	-0.230364	9.799062	0.332052				-0.003701	0.002682	-0.001128				87.576389	1.306484	-37.936675
00197	13904312	-0.244529	9.814226	0.321876				-0.002603	-0.000567	-0.000925				87.575633	1.306738	-37.936845
00198	13904362	-0.242720	9.818972	0.323674				-0.001563	0.002973	-0.002321				87.577533	1.306637	-37.936270
00199	13904412	-0.236393	9.813334	0.324651				-0.001637	-0.000937	-0.000577				87.577064	1.306793	-37.936548
00200	13904462	-0.227902	9.794453	0.325269				0.000572	-0.000867	-0.001741				87.579568	1.306478	-37.937050
00201	13904512	-0.232892	9.819204	0.316437				-0.001310	0.000975	-0.001945				87.579200	1.307048	-37.936797
00202	13904562	-0.208280	9.805172	0.307341				-0.005470	-0.001164	0.000454				87.579951	1.306098	-37.937359
00203	13904612	-0.236793	9.824939	0.310242				-0.002451	0.002629	-0.003925				87.579263	1.307253	-37.936648
00204	13904662	-0.211282	9.809149	0.308742				-0.003572	0.000483	-0.002617				87.580594	1.307205	-37.936811
00205	13904712	-0.209986	9.802510	0.340675				0.002937	0.001305	-0.002413				87.581437	1.307912	-37.936461
00206	13904762	-0.212561	9.806695	0.297487				-0.002677	0.000826	0.000236				87.583026	1.307052	-37.936481
00207	13904812	-0.224299	9.812949	0.313364				-0.003782	0.000056	-0.002688				87.581945	1.307825	-37.936496
00208	13904862	-0.218019	9.807183	0.322886				-0.002662	-0.003027	-0.002291				87.583474	1.307631	-37.937638
00209	13904912	-0.211963	9.803974	0.320663				-0.002773	0.001726	-0.000691				87.582684	1.307849	-37.937146
00210	13904962	-0.226232	9.809451	0.338749				-0.003666	0.001677	-0.000883				87.584004	1.307319	-37.936958
00211	13905012	-0.237991	9.814448	0.328483				-0.002591	0.000790	-0.003904				87.583257	1.308443	-37.936773
00212	13905062	-0.240712	9.817973	0.312772				-0.007673	0.001700	-0.001830				87.583428	1.308194	-37.936547
00213	13905112	-0.233987	9.821944	0.337878				-0.004563	-0.001573	-0.002275				87.582113	1.308826	-37.937030
00214	13905162	-0.248927	9.812088	0.349863				-0.002287	0.004873	-0.000381				87.583818	1.308187	-37.935890
00215	13905212	-0.253653	9.812033	0.333647				-0.004692	-0.001608	-0.002561				87.582459	1.308896	-37.936386
00216	13905262	-0.224459	9.812583	0.337310				-0.002462	0.003698	-0.004787				87.584108	1.309511	-37.935635
00217	13905312	-0.247066	9.802402	0.333140				-0.003921	-0.003757	-0.002319				87.582953	1.310125	-37.936742
00218	13905362	-0.225601	9.807914	0.315751				-0.003036	0.000979	-0.000019				87.584446	1.309344	-37.936715
00219	13905412	-0.215599	9.807829	0.344756				-0.004794	0.001717	-0.003542				87.583081	1.310375	-37.936270
00220	13905462	-0.226400	9.804738	0.305368				-0.001048	0.000013	-0.000191				87.585113	1.309629	-37.936487
00221	13905512	-0.219126	9.813844	0.320815				-0.005865	0.000922	-0.003926				87.583439	1.310764	-37.936274
00222	13905562	-0.231054	9.805746	0.313615				-0.002976	0.002076	-0.001137				87.584948	1.310312	-37.935944
00223	13905612	-0.232973	9.815453	0.328561				-0.006346	0.001014	-0.002608				87.583143	1.311072	-37.935683
00224	13905662	-0.209776	9.790107	0.314040				-0.006073	-0.000202	0.001968				87.583722	1.309701	-37.935963
00225	13905712	-0.237121	9.817381	0.323330				-0.006116	0.000118	0.000273				87.581965	1.309623	-37.935928
00226	13905762	-0.218356	9.808722	0.330688				-0.007419	-0.001558	-0.003742				87.582163	1.309877	-37.936663
00227	13905812	-0.216843	9.798365	0.326824				-0.006001	0.000741	0.003673				87.580463	1.308836	-37.936412
00228	13905862	-0.219093	9.806943	0.322367				-0.008256	0.003219	0.002700				87.580464	1.307292	-37.935726
00229	13905912	-0.231588	9.822087	0.330623				-0.002979	0.003210	-0.001545				87.579637	1.307774	-37.934828
00230	13905962	-0.204657	9.796139	0.311619				-0.004359	0.002250	-0.000942				87.580730	1.307274	-37.934420
00231	13906012	-0.236390	9.807403	0.324939				-0.003751	-0.000878	-0.001796				87.579651	1.307778	-37.934695
00232	13906062	-0.221293	9.822276	0.326319				-0.005579	0.001452	-0.000011				87.580409	1.306995	-37.934551
00233	13906112	-0.214949	9.810964	0.326579				-0.007313	0.000355	-0.000653				87.578317	1.307186	-37.934458
00234	13906162	-0.213471	9.799671	0.321663				-0.001878	0.001214	-0.005505				87.580130	1.307974	-37.934425
00235	13906212	-0.246402	9.822725	0.338635				-0.004032	0.003193	-0.001127				87.578994	1.308335	-37.933517
00236	13906262	-0.224848	9.812296	0.340046				-0.006388	0.003599	-0.001761				87.579528	1.308080	-37.932766
00237	13906312	-0.240136	9.818424	0.329993				-0.003444	0.002589	-0.001000				87.578562	1.308398	-37.932034
00238	13906362	-0.236104	9.802158	0.326908				-0.006444	0.001304	-0.002254				87.579058	1.308255	-37.931929
00239	13906412	-0.242527	9.793660	0.334193				0.000609	-0.001222	-0.003245				87.579206	1.309165	-37.932315
00240	13906462	-0.244043	9.806200	0.319840				-0.000524	0.000307	-0.002947				87.581413	1.309211	-37.932518
00241	13906512	-0.240229	9.817070	0.309964				-0.007392	0.001870	-0.002664				87.579312	1.309997	-37.932020
00242	13906562	-0.241864	9.819670	0.324890				-0.004552	0.000539	0.002452				87.580349	1.308496	-37.932088
00243	13906612	-0.208448	9.822951	0.323841				-0.006257	-0.000634	-0.001244				87.578552	1.308846	-37.932283
00244	13906662	-0.224869	9.821334	0.323031				-0.006219	0.000111	-0.001331				87.579104	1.308423	-37.932484
00245	13906712	-0.205134	9.809587	0.316119				-0.002442	0.003411	-0.001775				87.578420	1.308973	-37.931527
00246	13906762	-0.207970	9.792310	0.311149				-0.005417	0.000260	-0.000405				87.579219	1.308291	-37.931709
00247	13906812	-0.232109	9.817959	0.305257				-0.003193	-0.002356	-0.001381				87.578285	1.308657	-37.932396
00248	13906862	-0.214326	9.803933	0.321523				-0.004941	-0.001772	-0.000127				87.579186	1.307860	-37.933173
00249	13906912	-0.216527	9.805490	0.311145				-0.001479	0.000097	-0.002536				87.578761	1.308587	-37.933176
00250	13906962	-0.217852	9.825236	0.337277				-0.003204	0.001303	-0.000017				87.580205	1.307806	-37.933054
00251	13907012	-0.212141	9.803461	0.323357				-0.001810	-0.001228	0.000929				87.579671	1.307527	-37.933388
00252	13907062	-0.225292	9.826176	0.332063				-0.002545	-0.002870	-0.004530				87.581271	1.307982	-37.934509
00253	13907112	-0.222221	9.811458	0.335244				-0.005880	-0.002694	-0.003592				87.579567	1.308980	-37.935323
00254	13907162	-0.217169	9.815984	0.322443				-0.004918	-0.000482	-0.002555				87.580491	1.308897	-37.935747
00255	13907212	-0.213588	9.820038	0.308059				-0.002861	0.002336	-0.001264				87.579689	1.309286	-37.935098
00256	13907262	-0.221732	9.818792	0.321014				-0.003545	-0.001328	-0.001281				87.581006	1.308837	-37.935736
00257	13907312	-0.214456	9.792621	0.316903				-0.002444	0.002413	-0.000818				87.580322	1.309097	-37.935061
00258	13907362	-0.235428	9.817616	0.324700				-0.004112	0.002940	0.002784				87.581499	1.307536	-37.934426
00259	13907412	-0.227854	9.808539	0.334788				-0.005821	0.001962	-0.000809				87.579853	1.307798	-37.933876
00260	13907462	-0.226003	9.810100	0.296882				-0.005534	-0.000325	-0.001720				87.580589	1.307475	-37.934244
00261	13907512	-0.222513	9.797407	0.322750				-0.004313	-0.001671	-0.005359				87.579334	1.308989	-37.934783
00262	13907562	-0.220070	9.802404	0.323340				-0.001250	-0.002699	0.002293				87.581303	1.307497	-37.935784
00263	13907612	-0.224193	9.807214	0.316219				-0.003447	-0.000485	-0.002948				87.580317	1.308338	-37.935959
00264	13907662	-0.233966	9.805681	0.331140				-0.002986	0.003568	-0.001094				87.581834	1.307885	-37.935220
00265	13907712	-0.237668	9.807367	0.310638				-0.006258	0.002572	0.000160				87.580053	1.307866	-37.934485
00266	13907762	-0.217691	9.812082	0.344236				-0.003614	0.002137	0.000598				87.581377	1.306921	-37.934113
00267	13907812	-0.223768	9.814250	0.321722				-0.000682	0.000706	0.000969				87.581186	1.306656	-37.933894
00268	13907862	-0.207698	9.817905	0.328169				-0.006499	-0.001897	0.000391				87.581655	1.305713	-37.934690
00269	13907912	-0.225243	9.810991	0.331838				-0.003413	0.000713	-0.000212				87.580685	1.305784	-37.934489
00270	13907962	-0.232241	9.822113	0.312665				-0.004486	0.003014	-0.003630				87.581756	1.306056	-37.933913
00271	13908012	-0.224004	9.813731	0.324334				-0.001864	-0.000486	0.001316				87.581212	1.305673	-37.934034
00272	13908062	-0.229813	9.798759	0.321216				-0.008479	0.000521	-0.003087				87.581125	1.305758	-37.934189
00273	13908112	-0.218635	9.817444	0.318354				-0.003330	0.003136	-0.002450				87.580177	1.306494	-37.933315
00274	13908162	-0.222550	9.808672	0.315229				-0.001331	0.000454	-0.002205				87.582152	1.306329	-37.933477
00275	13908212	-0.210518	9.794575	0.331285				-0.005007	0.002626	-0.000201				87.580735	1.306417	-37.932723
00276	13908262	-0.215764	9.798416	0.292931				-0.004033	0.001158	0.001235				87.581929	1.305275	-37.932638
00277	13908312	-0.228938	9.821497	0.324149				-0.004018	0.003607	-0.000996				87.580796	1.305600	-37.931620
00278	13908362	-0.212425	9.807625	0.330092				-0.003139	0.002846	-0.004789				87.582286	1.306210	-37.931113
00279	13908412	-0.243345	9.807922	0.331884				-0.000849	-0.001571	-0.001675				87.582042	1.306673	-37.931583
00280	13908462	-0.227868	9.806178	0.334230				-0.004015	-0.000759	-0.003748				87.583207	1.306927	-37.932130
00281	13908512	-0.215830	9.783036	0.321324				-0.004695	-0.001347	-0.001093				87.581855	1.307222	-37.932526
00282	13908562	-0.216703	9.821356	0.312605				-0.004033	0.000894	-0.001299				87.583045	1.306802	-37.932520
00283	13908612	-0.218216	9.823058	0.324308				-0.003294	0.001002	-0.001850				87.582109	1.307344	-37.932254
00284	13908662	-0.236602	9.814281	0.324649				-0.000997	0.003608	0.001597				87.584188	1.306125	-37.931452
00285	13908712	-0.229142	9.812224	0.310074				-0.003906	-0.000041	-0.001433				87.583066	1.306535	-37.931476
00286	13908762	-0.218905	9.809941	0.312541				0.001128	0.002086	-0.000923				87.585750	1.306024	-37.931143
00287	13908812	-0.219559	9.802432	0.322188				-0.003637	0.006013	0.000811				87.584750	1.305863	-37.929411
00288	13908862	-0.230590	9.807387	0.315238				-0.001752	0.001677	-0.002425				87.586588	1.305775	-37.929218
00289	13908912	-0.221995	9.806755	0.316908				-0.003011	-0.002123	-0.001511				87.585713	1.306182	-37.929848
00290	13908962	-0.224880	9.822534	0.322240				-0.005655	-0.002465	-0.001155				87.586421	1.305676	-37.930811
00291	13909012	-0.222435	9.806341	0.312543				-0.001290	0.000431	-0.000314				87.586058	1.305773	-37.930686
00292	13909062	-0.217491	9.810259	0.308581				-0.004923	-0.000054	0.000171				87.586983	1.304918	-37.930919
00293	13909112	-0.226266	9.803219	0.311898				-0.002556	-0.001216	-0.001606				87.586241	1.305364	-37.931290
00294	13909162	-0.234710	9.817070	0.314291				0.000218	-0.001610	0.000565				87.588645	1.304381	-37.932003
00295	13909212	-0.210074	9.803008	0.323126				-0.003553	0.002201	0.001080				87.587640	1.304102	-37.931357
00296	13909262	-0.212714	9.808251	0.319411				-0.006465	-0.001150	0.000266				87.588112	1.303199	-37.931961
00297	13909312	-0.225363	9.801205	0.320251				-0.002952	0.001135	-0.002681				87.587260	1.303976	-37.931660
00298	13909362	-0.217895	9.799191	0.318642				-0.005699	-0.001271	-0.001468				87.587986	1.303584	-37.932303
00299	13909412	-0.247352	9.840109	0.333550				-0.002175	0.000891	-0.003808				87.587372	1.304687	-37.932091
00300	13909462	-0.233414	9.821672	0.324710				-0.003138	0.000041	0.000009				87.588813	1.303880	-37.932339
00301	13909512	-0.230525	9.821259	0.323008				-0.004470	0.001895	0.002076				87.587550	1.303311	-37.931770
00302	13909562	-0.245085	9.822227	0.325908				-0.003301	0.001231	-0.001363				87.588957	1.302908	-37.931668
00303	13909612	-0.242505	9.811651	0.306043				-0.002643	0.001563	-0.002293				87.588218	1.303581	-37.931252
00304	13909662	-0.228652	9.821049	0.322990				-0.005083	0.000682	-0.001907				87.589102	1.303329	-37.931353
00305	13909712	-0.226417	9.808010	0.324189				-0.003507	-0.001847	-0.003627				87.588094	1.304346	-37.931930
00306	13909762	-0.218042	9.797938	0.307293				-0.002302	0.001860	-0.002197				87.589775	1.304197	-37.931653
00307	13909812	-0.233437	9.811684	0.311051				-0.004908	0.002598	0.001919				87.588380	1.303677	-37.930888
00308	13909862	-0.222318	9.819320	0.323995				-0.004735	-0.001320	-0.002658				87.589372	1.303620	-37.931551
00309	13909912	-0.231746	9.823135	0.332181				-0.003793	0.000641	0.000302				87.588284	1.303540	-37.931364
00310	13909962	-0.201287	9.807949	0.326081				-0.005665	-0.000133	-0.000758				87.589008	1.302954	-37.931655
00311	13910012	-0.219528	9.828248	0.302353				-0.001378	-0.000835	-0.001091				87.588610	1.303256	-37.931910
00312	13910062	-0.210141	9.811040	0.333565				-0.005386	0.001393	-0.000333				87.589432	1.302565	-37.931784
00313	13910112	-0.226478	9.808030	0.315899				-0.004952	0.001656	-0.001105				87.588018	1.302901	-37.931318
00314	13910162	-0.232536	9.798120	0.307259				-0.003521	0.000834	-0.003902				87.589365	1.303223	-37.931390
00315	13910212	-0.242283	9.822687	0.321672				-0.003004	-0.001661	0.003980				87.588496	1.302064	-37.931818
00316	13910262	-0.229576	9.806915	0.308668				-0.003500	0.000156	-0.002782				87.589817	1.302050	-37.932049
00317	13910312	-0.214824	9.803781	0.324311				-0.008012	-0.000922	-0.002261				87.587518	1.302685	-37.932350
00318	13910362	-0.210243	9.803140	0.322992				-0.003640	0.001837	-0.000723				87.588815	1.302113	-37.932078
00319	13910412	-0.214191	9.801500	0.334243				-0.002863	0.002299	-0.004669				87.588013	1.303475	-37.931483
00320	13910462	-0.229284	9.817513	0.313752				-0.004124	0.000530	-0.004189				87.589185	1.303874	-37.931645
00321	13910512	-0.227532	9.805517	0.308662				-0.002584	0.002861	-0.001195				87.588463	1.304250	-37.930847
00322	13910562	-0.221620	9.794660	0.325416				-0.002822	-0.001831	-0.000548				87.589975	1.303581	-37.931612
00323	13910612	-0.231668	9.778872	0.325605				-0.007402	-0.002076	-0.003010				87.587846	1.304419	-37.932242
00324	13910662	-0.244095	9.811857	0.315244				-0.006019	0.001184	0.000245				87.588473	1.303560	-37.932155
00325	13910712	-0.228167	9.812883	0.307485				-0.003342	0.000356	-0.000983				87.587520	1.303847	-37.932068
00326	13910762	-0.247788	9.827534	0.326162				0.000861	0.001007	-0.004070				87.590104	1.304215	-37.932092
00327	13910812	-0.220924	9.801353	0.322516				-0.002452	0.000698	-0.000986				87.589405	1.304505	-37.931904
00328	13910862	-0.241004	9.822637	0.326109				-0.007343	0.003356	-0.002078				87.589695	1.304340	-37.931225
00329	13910912	-0.230538	9.810309	0.303124				-0.002066	0.000536	-0.003073				87.589103	1.305226	-37.931108
00330	13910962	-0.214436	9.815395	0.324938				-0.004844	0.001501	0.000212				87.590072	1.304378	-37.930929
00331	13911012	-0.223992	9.797045	0.322424				-0.005849	0.002670	-0.002375				87.588407	1.305088	-37.930188
00332	13911062	-0.215818	9.793353	0.307166				-0.003774	0.003531	0.003812				87.589700	1.303239	-37.929393
00333	13911112	-0.227058	9.793813	0.329573				-0.005141	-0.000186	0.000623				87.588228	1.303057	-37.929444
00334	13911162	-0.223342	9.814250	0.346071				-0.004338	0.001699	0.000855				87.589340	1.302029	-37.929191
00335	13911212	-0.235125	9.792959	0.316864				-0.002694	0.002044	-0.003286				87.588576	1.302990	-37.928652
00336	13911262	-0.236535	9.807143	0.319057				-0.004952	0.002622	-0.002925				87.589513	1.303060	-37.928175
00337	13911312	-0.219383	9.829901	0.318329				-0.007906	0.003893	-0.003523				87.587278	1.304116	-37.927107
00338	13911362	-0.219788	9.799899	0.325279				-0.006168	-0.000470	-0.002879				87.587856	1.304135	-37.927522
00339	13911412	-0.222114	9.811055	0.307747				-0.005980	0.000960	0.000086				87.586145	1.304118	-37.927248
00340	13911462	-0.238753	9.818931	0.322388				-0.002247	0.001480	0.000015				87.587854	1.303331	-37.927057
00341	13911512	-0.249773	9.811645	0.308578				-0.004773	0.001235	-0.000717				87.586499	1.303550	-37.926714
00342	13911562	-0.243471	9.815014	0.310898				-0.002085	-0.001016	-0.002792				87.588243	1.303534	-37.927304
00343	13911612	-0.248602	9.817588	0.339719				-0.004864	-0.002154	-0.000896				87.586829	1.303763	-37.927931
00344	13911662	-0.217971	9.809566	0.315445				-0.007951	-0.001860	-0.002623				87.586883	1.303690	-37.928726
00345	13911712	-0.235412	9.818411	0.312166				-0.006966	-0.001547	-0.001401				87.584883	1.304072	-37.929191
00346	13911762	-0.220566	9.804808	0.329604				-0.006618	0.000425	-0.003605				87.585323	1.304302	-37.929382
00347	13911812	-0.229944	9.816921	0.321122				-0.003979	0.002282	-0.003409				87.584205	1.305307	-37.928775
00348	13911862	-0.254867	9.820500	0.299953				-0.004072	0.003351	-0.001573				87.585398	1.304996	-37.928087
00349	13911912	-0.240371	9.821626	0.330798				-0.004157	0.000630	-0.003833				87.584223	1.306104	-37.927957
00350	13911962	-0.216344	9.817830	0.318936				-0.003576	0.000710	-0.001243				87.585536	1.305661	-37.928007
00351	13912012	-0.209266	9.808125	0.308131				-0.004087	0.000606	-0.000794				87.584360	1.305897	-37.927834
00352	13912062	-0.200508	9.805882	0.322408				-0.002585	0.002889	-0.002159				87.585993	1.305741	-37.927285
00353	13912112	-0.227343	9.823750	0.311307				-0.004674	-0.000992	-0.001343				87.584648	1.306112	-37.927590
00354	13912162	-0.217334	9.815184	0.321008				-0.001125	0.003208	-0.001875				87.586700	1.305890	-37.926944
00355	13912212	-0.239106	9.825120	0.320161				-0.000566	-0.000114	-0.001509				87.586529	1.306319	-37.926994
00356	13912262	-0.217891	9.811974	0.297845				-0.003140	0.000808	-0.004450				87.587998	1.306801	-37.927089
00357	13912312	-0.224638	9.816478	0.323473				-0.001898	0.002752	0.001845				87.587475	1.306303	-37.926283
00358	13912362	-0.228723	9.813308	0.341268				-0.004034	0.000691	-0.005346				87.588676	1.307046	-37.926428
00359	13912412	-0.218281	9.799752	0.320708				-0.005750	-0.003362	0.001311				87.587018	1.306632	-37.927381
00360	13912462	-0.221289	9.811910	0.329985				-0.003790	0.001614	0.000658				87.588271	1.305657	-37.927138
00361	13912512	-0.228025	9.813662	0.318746				-0.002236	-0.005440	-0.002240				87.587597	1.306236	-37.928721
00362	13912562	-0.216019	9.792341	0.311017				-0.005051	0.000548	-0.003736				87.588502	1.306511	-37.928876
00363	13912612	-0.212120	9.802902	0.321592				-0.004499	0.000630	0.000305				87.587216	1.306428	-37.928693
00364	13912662	-0.223790	9.821291	0.319673				-0.004660	0.000624	-0.000404				87.588232	1.305749	-37.928789
00365	13912712	-0.215119	9.809630	0.329277				-0.004851	0.001495	-0.001071				87.586847	1.306072	-37.928374
00366	13912762	-0.235131	9.811702	0.317124				-0.002987	0.001105	-0.003835				87.588362	1.306384	-37.928361
00367	13912812	-0.242728	9.809570	0.310667				-0.004780	0.000070	-0.003932				87.586996	1.307513	-37.928389
00368	13912862	-0.237182	9.819222	0.335426				-0.007633	0.000343	-0.001547				87.587157	1.307154	-37.928554
00369	13912912	-0.243828	9.820325	0.335747				-0.000098	-0.000680	0.000190				87.587119	1.307090	-37.928746
00370	13912962	-0.222807	9.797497	0.325422				-0.003302	0.000133	-0.001916				87.588532	1.306838	-37.928991
00371	13913012	-0.220986	9.813994	0.318051				-0.005640	-0.000679	0.001293				87.586916	1.306462	-37.929169
00372	13913062	-0.206834	9.819614	0.318721				-0.005675	0.001416	0.000501				87.587639	1.305528	-37.929006
00373	13913112	-0.216441	9.809684	0.324002				-0.002629	0.000572	0.002667				87.586889	1.304770	-37.928807
00374	13913162	-0.226966	9.807220	0.321837				-0.003507	-0.000389	-0.000698				87.588239	1.304165	-37.929171
00375	13913212	-0.219875	9.823450	0.320901				-0.005499	-0.000523	-0.003322				87.586669	1.305112	-37.929365
00376	13913262	-0.208640	9.798084	0.313434				-0.005137	-0.001480	0.000935				87.587522	1.304021	-37.930036
00377	13913312	-0.214601	9.813892	0.314399				-0.004402	0.003800	0.000575				87.586276	1.303900	-37.928934
00378	13913362	-0.212889	9.808544	0.308578				-0.003676	0.002803	-0.001487				87.587587	1.303552	-37.928421
00379	13913412	-0.221045	9.808235	0.322075				-0.000977	0.004663	-0.002828				87.587333	1.304418	-37.927120
00380	13913462	-0.228010	9.809447	0.330475				-0.002482	-0.001434	-0.001126				87.588970	1.303925	-37.927804
00381	13913512	-0.241747	9.820981	0.325073				-0.004722	0.000492	-0.002389				87.587623	1.304616	-37.927690
00382	13913562	-0.236292	9.830170	0.318541				-0.004636	0.002891	-0.000743				87.588653	1.304051	-37.927131
00383	13913612	-0.220874	9.794368	0.329534				-0.003239	-0.000399	-0.008589				87.587716	1.306505	-37.927345
00384	13913662	-0.214896	9.817953	0.358986				-0.004654	0.001498	-0.000981				87.588773	1.306006	-37.927193
00385	13913712	-0.233058	9.819494	0.320801				-0.006332	0.001858	-0.000901				87.586964	1.306286	-37.926671
00386	13913762	-0.216155	9.827701	0.310033				-0.002579	0.002933	0.001626				87.588592	1.305051	-37.926060
00387	13913812	-0.238589	9.817742	0.322301				-0.000764	-0.000182	-0.002530				87.588361	1.305768	-37.926138
00388	13913862	-0.224094	9.806894	0.314427				-0.004265	0.000048	-0.002816				87.589508	1.305782	-37.926427
00389	13913912	-0.232385	9.817966	0.328291				-0.001687	0.001806	-0.002845				87.589046	1.306619	-37.925948
00390	13913962	-0.213780	9.810262	0.319831				-0.001464	-0.000555	-0.004263				87.590948	1.307022	-37.926399
00391	13914012	-0.236803	9.815618	0.323208				-0.007015	0.002365	-0.000707				87.588943	1.307251	-37.925722
00392	13914062	-0.239458	9.834437	0.315707				-0.005943	-0.000269	-0.000563				87.589606	1.306605	-37.926075
00393	13914112	-0.264806	9.833704	0.312490				-0.003993	-0.001106	0.000107				87.588457	1.306560	-37.926389
00394	13914162	-0.233656	9.811754	0.314564				-0.007302	0.003195	-0.000991				87.588734	1.306083	-37.925753
00395	13914212	-0.229476	9.812862	0.322838				-0.004495	0.000303	-0.002171				87.587444	1.306708	-37.925690
00396	13914262	-0.227733	9.814568	0.336913				-0.002784	-0.001256	-0.004619				87.588983	1.307213	-37.926356
00397	13914312	-0.219804	9.805170	0.322279				-0.002259	0.000507	-0.001951				87.588349	1.307778	-37.926236
00398	13914362	-0.218953	9.813394	0.312654				-0.001971	0.002480	-0.003608				87.590163	1.308041	-37.925832
00399	13914412	-0.209603	9.802658	0.324229				-0.007074	0.002743	-0.004398				87.588148	1.309332	-37.925092
00400	13914462	-0.209169	9.807630	0.325034				-0.001001	-0.000697	-0.001798				87.590218	1.309033	-37.925576
00401	13914512	-0.226254	9.808178	0.306487				-0.001327	0.001424	-0.002490				87.589841	1.309764	-37.925191
00402	13914562	-0.219724	9.794821	0.331713				-0.006233	0.000468	-0.002035				87.590417	1.309549	-37.925333
00403	13914612	-0.223794	9.815722	0.311444				-0.000943	0.000197	-0.006445				87.590149	1.311396	-37.925361
00404	13914662	-0.230813	9.813625	0.303192				-0.004053	0.000374	-0.003964				87.591336	1.311740	-37.925552
00405	13914712	-0.227042	9.791343	0.320929				-0.004528	0.002370	-0.002960				87.590048	1.312615	-37.924909
00406	13914762	-0.216107	9.810722	0.319158				-0.004140	0.000177	-0.002971				87.591206	1.312663	-37.925127
00407	13914812	-0.236711	9.808276	0.322475				-0.005548	0.000353	0.000018				87.589613	1.312662	-37.925019
00408	13914862	-0.242310	9.813422	0.322732				-0.007640	0.000674	-0.000329				87.589808	1.311966	-37.925108
00409	13914912	-0.241557	9.809537	0.329151				-0.005060	0.000070	-0.001110				87.588348	1.312284	-37.925098
00410	13914962	-0.222915	9.809001	0.317509				-0.002526	0.001217	0.000206				87.589991	1.311436	-37.925008
00411	13915012	-0.231546	9.812071	0.326589				-0.000205	0.002737	-0.001141				87.589959	1.311795	-37.924245
00412	13915062	-0.234285	9.816361	0.323452				-0.000509	0.002991	-0.002711				87.592172	1.311807	-37.923665
00413	13915112	-0.240902	9.816582	0.318811				-0.004451	0.005119	-0.003456				87.590922	1.312857	-37.922236
00414	13915162	-0.221093	9.808083	0.301205				-0.002871	-0.000180	0.001226				87.592460	1.311705	-37.922529
00415	13915212	-0.240537	9.816361	0.318172				-0.007416	0.003348	-0.005125				87.590354	1.313212	-37.921632
00416	13915262	-0.219662	9.821984	0.308672				-0.005161	0.003432	-0.000963				87.591270	1.312732	-37.920906
00417	13915312	-0.232230	9.806723	0.319459				-0.003321	-0.002358	-0.001127				87.590308	1.313026	-37.921600
00418	13915362	-0.227594	9.814861	0.333230				-0.007892	0.001406	-0.002059				87.590404	1.312828	-37.921474
00419	13915412	-0.236621	9.814322	0.330321				-0.006230	0.000601	-0.000619				87.588623	1.313012	-37.921309
00420	13915462	-0.201791	9.812363	0.316615				-0.000522	-0.000791	-0.002191				87.590821	1.312829	-37.921812
00421	13915512	-0.225701	9.817535	0.315417				-0.003131	0.000776	-0.003486				87.589919	1.313833	-37.921629
00422	13915562	-0.229588	9.826968	0.315704				-0.006597	0.002113	-0.001254				87.590411	1.313418	-37.921290
00423	13915612	-0.223735	9.820361	0.318227				-0.002723	0.000373	0.001035				87.589625	1.313124	-37.921164
00424	13915662	-0.225415	9.804336	0.341305				-0.003859	-0.001497	-0.001830				87.590875	1.312838	-37.921880
00425	13915712	-0.219584	9.816589	0.335985				-0.004847	0.000294	-0.001721				87.589477	1.313329	-37.921817
00426	13915762	-0.221788	9.809165	0.307735				-0.005708	-0.002082	-0.004200				87.590172	1.313703	-37.922726
00427	13915812	-0.235807	9.832172	0.311692				-0.006457	0.000660	-0.000721				87.588322	1.313918	-37.922550
00428	13915862	-0.226094	9.804214	0.302428				-0.003927	-0.000364	-0.001563				87.589577	1.313556	-37.922941
00429	13915912	-0.243125	9.813160	0.338920				-0.002537	0.002405	-0.002166				87.588865	1.314206	-37.922276
00430	13915962	-0.228067	9.796054	0.322199				-0.006976	-0.000258	-0.001844				87.589218	1.313929	-37.922654
00431	13916012	-0.226493	9.810625	0.317032				-0.003859	0.001710	-0.000881				87.588124	1.314201	-37.922172
00432	13916062	-0.246009	9.813785	0.327312				-0.006326	0.000927	0.001661				87.588669	1.312934	-37.922138
00433	13916112	-0.222083	9.818007	0.318291				-0.007490	0.000770	-0.002124				87.586535	1.313551	-37.921951
00434	13916162	-0.221676	9.811063	0.338634				-0.004888	-0.001515	-0.002564				87.587466	1.313464	-37.922664
00435	13916212	-0.231236	9.820360	0.327873				-0.003116	-0.000836	-0.002053				87.586570	1.314044	-37.922929
00436	13916262	-0.231647	9.819757	0.320407				-0.002635	0.003439	-0.002546				87.588199	1.314012	-37.922234
00437	13916312	-0.222720	9.798906	0.310307				-0.002071	-0.000137	0.000741				87.587608	1.313801	-37.922261
00438	13916362	-0.208013	9.801420	0.313618				-0.004052	0.001705	-0.000048				87.588790	1.313030	-37.922047
00439	13916412	-0.228761	9.822091	0.340941				-0.000064	-0.000978	-0.003534				87.588756	1.314029	-37.922362
00440	13916462	-0.206405	9.804543	0.327492				-0.002883	0.000472	0.002543				87.590315	1.312510	-37.922473
00441	13916512	-0.229798	9.813025	0.312268				-0.002783	-0.001118	-0.000029				87.589520	1.312509	-37.922802
00442	13916562	-0.221161	9.802292	0.323257				-0.003867	-0.001071	0.000420				87.590743	1.311567	-37.923316
00443	13916612	-0.215626	9.824267	0.302107				-0.001336	0.000782	-0.000861				87.590367	1.311824	-37.923105
00444	13916662	-0.224065	9.824200	0.330762				-0.004199	0.001575	0.001431				87.591555	1.310635	-37.922887
00445	13916712	-0.241389	9.823650	0.321912				-0.003430	0.001296	-0.000172				87.590577	1.310701	-37.922515
00446	13916762	-0.231456	9.812222	0.300988				-0.003787	0.000251	-0.000981				87.591835	1.310177	-37.922704
00447	13916812	-0.227695	9.822295	0.328373				-0.005233	-0.000613	-0.000759				87.590331	1.310385	-37.922894
00448	13916862	-0.218937	9.810383	0.323061				-0.004470	-0.003578	-0.002606				87.591384	1.310290	-37.924153
00449	13916912	-0.235773	9.807878	0.333863				-0.000849	0.000861	0.000715				87.591142	1.310093	-37.923897
00450	13916962	-0.210757	9.786942	0.327326				-0.005892	0.001155	-0.000272				87.591846	1.309387	-37.923829
00451	13917012	-0.207522	9.802006	0.306400				-0.004824	0.000654	-0.001686				87.590466	1.309875	-37.923667
00452	13917062	-0.230224	9.830048	0.300359				-0.006444	0.001434	-0.001196				87.590994	1.309436	-37.923530
00453	13917112	-0.236459	9.826999	0.323865				-0.006015	0.002091	0.001565				87.589292	1.309016	-37.922913
00454	13917162	-0.234622	9.806993	0.330508				-0.002714	0.002020	0.000180				87.590870	1.308182	-37.922586
00455	13917212	-0.241385	9.811178	0.314698				-0.001109	-0.000678	-0.005133				87.590541	1.309639	-37.922841
00456	13917262	-0.227438	9.804015	0.329439				-0.000696	0.000858	-0.001183				87.592701	1.309189	-37.922885
00457	13917312	-0.220380	9.815104	0.323521				-0.002559	-0.000143	-0.001700				87.591966	1.309675	-37.922946
00458	13917362	-0.253664	9.822865	0.301416				-0.004260	0.001187	-0.000817				87.593122	1.309124	-37.922876
00459	13917412	-0.226657	9.813295	0.312711				-0.001777	-0.000388	0.000323				87.592599	1.309024	-37.922978
00460	13917462	-0.239306	9.819077	0.312289				-0.002736	0.003269	-0.005588				87.594200	1.309862	-37.922372
00461	13917512	-0.209236	9.806709	0.338761				-0.002627	-0.000118	-0.003267				87.593447	1.310797	-37.922445
00462	13917562	-0.225113	9.806215	0.327107				-0.003449	-0.000391	-0.002052				87.594823	1.310581	-37.922840
00463	13917612	-0.237002	9.824079	0.328375				-0.003346	0.001652	-0.001682				87.593876	1.311083	-37.922388
00464	13917662	-0.226918	9.816515	0.334803				-0.003148	0.002526	-0.000716				87.595344	1.310513	-37.921915
00465	13917712	-0.217401	9.819568	0.329013				-0.003082	0.001299	-0.002489				87.594464	1.311242	-37.921566
00466	13917762	-0.209728	9.784978	0.316987				-0.003921	-0.002429	0.000797				87.595681	1.310176	-37.922511
00467	13917812	-0.210288	9.805750	0.322928				-0.001965	0.000544	-0.000861				87.595125	1.310430	-37.922368
00468	13917862	-0.233513	9.814738	0.321388				-0.002208	0.001995	-0.001551				87.596861	1.310098	-37.922057
00469	13917912	-0.232552	9.808378	0.303430				-0.003985	-0.001622	0.000125				87.595704	1.310044	-37.922510
00470	13917962	-0.231479	9.820776	0.300005				-0.002906	-0.000986	0.001539				87.597224	1.308785	-37.923044
00471	13918012	-0.222488	9.807655	0.328086				-0.003777	-0.002301	-0.001800				87.596125	1.309271	-37.923730
00472	13918062	-0.222938	9.789043	0.334780				-0.003466	0.001360	-0.000338				87.597495	1.308583	-37.923576
00473	13918112	-0.221477	9.790812	0.313447				-0.002324	0.001704	-0.001398				87.596835	1.309002	-37.923100
00474	13918162	-0.220530	9.814232	0.334263				-0.002725	0.003275	-0.002290				87.598438	1.308894	-37.922431
00475	13918212	-0.208952	9.813223	0.316477				-0.003011	-0.002227	-0.002761				87.597566	1.309657	-37.923108
00476	13918262	-0.218570	9.803246	0.309523				-0.001758	0.001772	-0.003327				87.599431	1.309826	-37.922905
00477	13918312	-0.228997	9.822093	0.324730				-0.002228	0.000965	0.000881				87.598801	1.309587	-37.922618
00478	13918362	-0.238173	9.808950	0.323779				-0.000996	-0.000665	-0.000194				87.600864	1.308831	-37.923077
00479	13918412	-0.220212	9.800210	0.320706				-0.006618	0.003725	-0.002563				87.598995	1.309609	-37.922043
00480	13918462	-0.221817	9.810603	0.322563				-0.002391	-0.001341	-0.001957				87.600654	1.309350	-37.922696
00481	13918512	-0.226072	9.811128	0.330748				-0.004884	0.000786	0.000210				87.599268	1.309301	-37.922471
00482	13918562	-0.229276	9.803111	0.325293				-0.005837	0.001385	0.000727				87.599960	1.308301	-37.922320
00483	13918612	-0.224866	9.805499	0.327465				-0.007491	0.000898	-0.001742				87.597819	1.308810	-37.922086
00484	13918662	-0.225076	9.820736	0.323752				-0.002147	0.004124	-0.003855				87.599591	1.309163	-37.921220
00485	13918712	-0.212220	9.812700	0.316786				-0.004597	0.000695	-0.000565				87.598272	1.309332	-37.921025
00486	13918762	-0.220383	9.816471	0.327278				-0.001293	-0.001280	0.002112				87.600240	1.307910	-37.921616
00487	13918812	-0.224692	9.813212	0.335295				-0.004425	0.000440	0.000851				87.598982	1.307671	-37.921485
00488	13918862	-0.214864	9.811915	0.319388				-0.003190	0.000685	-0.001239				87.600424	1.307233	-37.921543
00489	13918912	-0.224298	9.819299	0.325603				-0.002039	0.003872	-0.001417				87.599865	1.307686	-37.920448
00490	13918962	-0.206423	9.803032	0.333046				-0.002624	-0.000951	0.000738				87.601459	1.306658	-37.920950
00491	13919012	-0.222628	9.809108	0.310455				-0.008171	-0.001793	0.001293				87.599107	1.306266	-37.921449
00492	13919062	-0.231100	9.813412	0.316877				-0.005874	-0.000561	-0.001624				87.599799	1.305929	-37.921867
00493	13919112	-0.203850	9.804356	0.326501				-0.001621	0.002910	-0.000913				87.599352	1.306223	-37.921048
00494	13919162	-0.237033	9.813095	0.317569				-0.002955	-0.000768	-0.002018				87.600871	1.305992	-37.921554
00495	13919212	-0.221523	9.808808	0.315582				-0.002182	0.000017	-0.003683				87.600236	1.307047	-37.921587
00496	13919262	-0.219755	9.798572	0.334602				-0.006606	0.002564	0.000930				87.600722	1.306005	-37.921100
00497	13919312	-0.222893	9.820326	0.336689				-0.003508	-0.000358	-0.001213				87.599715	1.306351	-37.921216
00498	13919362	-0.237845	9.822175	0.327641				-0.003760	-0.000515	0.000232				87.600993	1.305474	-37.921608
00499	13919412	-0.235861	9.817720	0.326043				-0.005145	0.002012	0.002109				87.599520	1.304892	-37.920997
00500	13919462	-0.229417	9.803184	0.335595				-0.007020	0.002033	-0.004302				87.599901	1.305349	-37.920749
00501	13919512	-0.234584	9.825142	0.322575				-0.002728	0.002339	-0.000910				87.599137	1.305637	-37.920091
00502	13919562	-0.236525	9.828121	0.312585				-0.004168	0.000986	-0.003606				87.600298	1.305877	-37.920089
00503	13919612	-0.226360	9.812733	0.318698				-0.003427	-0.001202	-0.004069				87.599309	1.307027	-37.920485
00504	13919662	-0.220010	9.792852	0.320623				-0.004499	0.000537	0.000046				87.600376	1.306215	-37.920566
00505	13919712	-0.221361	9.819527	0.312438				0.000162	0.000939	-0.001892				87.600429	1.306764	-37.920320
00506	13919762	-0.232533	9.817314	0.324533				-0.003956	-0.000395	0.000681				87.601656	1.305775	-37.920670
00507	13919812	-0.228786	9.820249	0.306083				-0.004715	0.001201	-0.003508				87.600314	1.306797	-37.920369
00508	13919862	-0.216688	9.803345	0.319886				-0.004429	0.001337	-0.001553				87.601391	1.306447	-37.920233
00509	13919912	-0.204505	9.807915	0.310320				-0.007693	-0.000635	-0.001234				87.599180	1.306792	-37.920431
00510	13919962	-0.219923	9.811763	0.325582				-0.000433	0.000523	-0.002723				87.601441	1.306779	-37.920573
00511	13920012	-0.227876	9.801399	0.329558				-0.004707	0.003302	0.000416				87.600106	1.306695	-37.919620
00512	13920062	-0.202383	9.780684	0.324434				-0.005438	0.000726	-0.002648				87.600922	1.306665	-37.919724
00513	13920112	-0.232640	9.805747	0.320368				-0.001214	0.000029	-0.000731				87.600588	1.306876	-37.919726
00514	13920162	-0.230883	9.794245	0.329306				-0.003175	0.001223	-0.001138				87.602035	1.306417	-37.919646
00515	13920212	-0.216158	9.813844	0.331516				-0.000522	0.000395	-0.002501				87.601884	1.307137	-37.919561
00516	13920262	-0.231078	9.827085	0.322427				-0.005623	-0.001509	-0.004260				87.602616	1.307530	-37.920301
00517	13920312	-0.220516	9.803883	0.328306				-0.003964	0.000822	-0.001523				87.601497	1.307977	-37.920092
00518	13920362	-0.215094	9.803706	0.328464				-0.000839	-0.001710	-0.001927				87.603594	1.307705	-37.920831
00519	13920412	-0.235329	9.806850	0.324143				-0.007933	0.003886	-0.002746				87.601356	1.308538	-37.919762
00520	13920462	-0.210075	9.817076	0.327124				-0.006701	0.002091	-0.004172				87.601805	1.308955	-37.919466
00521	13920512	-0.234644	9.800768	0.349751				-0.003666	-0.001498	0.000165				87.600738	1.308890	-37.919882
00522	13920562	-0.253259	9.809346	0.332313				-0.005231	-0.000557	-0.001206				87.601602	1.308428	-37.920326
00523	13920612	-0.229905	9.817193	0.318394				0.001368	-0.000408	-0.000069				87.601990	1.308442	-37.920442
00524	13920662	-0.230743	9.825665	0.306983				-0.002110	0.001784	-0.004059				87.603771	1.308824	-37.920241
00525	13920712	-0.224219	9.818663	0.305070				-0.003887	0.001270	-0.003926				87.602663	1.309965	-37.919923
00526	13920762	-0.224552	9.817292	0.332343				-0.001819	-0.000113	-0.002431				87.604495	1.309857	-37.920240
00527	13920812	-0.217863	9.799162	0.313170				-0.004166	0.002003	-0.004857				87.603312	1.311268	-37.919726
00528	13920862	-0.202155	9.798577	0.317737				-0.005943	-0.000676	-0.005348				87.603957	1.311991	-37.920240
00529	13920912	-0.215843	9.810987	0.333029				-0.002962	0.001813	0.000754				87.603110	1.311795	-37.919707
00530	13920962	-0.226968	9.820258	0.322639				-0.005739	0.000138	-0.004153				87.603833	1.312182	-37.919973
00531	13921012	-0.205859	9.808605	0.326090				-0.004280	0.000750	-0.001589				87.602618	1.312646	-37.919777
00532	13921062	-0.202392	9.799218	0.337387				-0.005818	-0.000177	-0.000561				87.603303	1.312004	-37.920088
00533	13921112	-0.229608	9.813664	0.301535				-0.004042	0.004341	-0.003043				87.602183	1.312929	-37.918883
00534	13921162	-0.232536	9.802387	0.338623				-0.000593	0.002527	-0.004214				87.604392	1.313362	-37.918452
00535	13921212	-0.219060	9.803307	0.320526				-0.001714	-0.000300	-0.000539				87.603900	1.313512	-37.918544
00536	13921262	-0.231756	9.814430	0.311638				-0.005713	0.001696	-0.000677				87.604624	1.312927	-37.918321
00537	13921312	-0.213641	9.796011	0.320890				-0.007275	-0.001590	0.002001				87.602533	1.312335	-37.918755
00538	13921362	-0.227205	9.819256	0.325962				-0.005301	0.002538	-0.003464				87.603391	1.312555	-37.918335
00539	13921412	-0.226144	9.816293	0.334092				-0.004244	0.002951	0.000156				87.602198	1.312547	-37.917489
00540	13921462	-0.242755	9.813471	0.318777				-0.003992	-0.002382	-0.000929				87.603395	1.311978	-37.918453
00541	13921512	-0.235481	9.806385	0.307303				-0.001459	0.000639	-0.001981				87.602980	1.312552	-37.918294
00542	13921562	-0.233313	9.812647	0.303265				-0.006586	0.002073	0.000574				87.603466	1.311610	-37.917939
00543	13921612	-0.223255	9.820017	0.310343				-0.004037	0.003177	-0.002312				87.602319	1.312308	-37.917051
00544	13921662	-0.233938	9.821400	0.335100				-0.004277	0.000716	-0.002002				87.603471	1.312092	-37.917122
00545	13921712	-0.232852	9.815261	0.333972				0.000921	-0.001449	-0.000909				87.603736	1.312337	-37.917552
00546	13921762	-0.224670	9.835490	0.305815				-0.006096	0.000259	-0.004183				87.604332	1.312730	-37.917781
00547	13921812	-0.221062	9.808332	0.316371				-0.004660	0.001387	-0.003280				87.603003	1.313685	-37.917422
00548	13921862	-0.225803	9.813610	0.323789				-0.004861	0.000905	-0.000881				87.603977	1.313145	-37.917443
00549	13921912	-0.225571	9.807226	0.322805				-0.002924	0.003389	-0.002892				87.603163	1.314013	-37.916504
00550	13921962	-0.219591	9.808867	0.313509				-0.005554	0.001241	-0.004338				87.603939	1.314471	-37.916467
00551	13922012	-0.215382	9.820375	0.308637				-0.002921	0.002558	0.000149				87.603113	1.314457	-37.915731
00552	13922062	-0.216352	9.806787	0.328108				-0.006085	0.003010	-0.003846				87.603758	1.314792	-37.915156
00553	13922112	-0.214768	9.815034	0.333131				-0.007322	0.001793	-0.001738				87.601668	1.315309	-37.914660
00554	13922162	-0.227197	9.813447	0.317576				-0.002548	-0.000088	0.000555				87.603312	1.314348	-37.914964
00555	13922212	-0.241137	9.818474	0.318864				-0.005595	-0.002185	-0.000700				87.601688	1.314524	-37.915589
00556	13922262	-0.225565	9.828964	0.313173				-0.001734	0.002213	-0.003546				87.603574	1.314759	-37.915239
00557	13922312	-0.215584	9.808122	0.319344				-0.001462	0.000536	-0.003390				87.603148	1.315732	-37.915123
00558	13922362	-0.235276	9.822566	0.320127				-0.000922	0.003042	-0.001231				87.605277	1.315320	-37.914539
00559	13922412	-0.222234	9.789794	0.317762				-0.003649	0.003056	-0.002411				87.604241	1.316045	-37.913687
00560	13922462	-0.225207	9.807391	0.312495				-0.003444	0.003935	-0.000195				87.605635	1.315347	-37.912799
00561	13922512	-0.231629	9.792723	0.335521				-0.002882	0.005399	-0.001182				87.604842	1.315750	-37.911262
00562	13922562	-0.226139	9.808646	0.307027				-0.004046	0.002699	-0.000037				87.606053	1.314987	-37.910741
00563	13922612	-0.224146	9.821937	0.323185				-0.000645	0.002993	0.004351				87.605891	1.313777	-37.909829
00564	13922662	-0.240287	9.820525	0.325288				-0.004581	0.003233	-0.002535				87.606971	1.313742	-37.909221
00565	13922712	-0.217856	9.818727	0.321520				-0.002122	0.000403	-0.001501				87.606382	1.314180	-37.909134
00566	13922762	-0.220777	9.796072	0.326833				-0.002676	0.001384	-0.005407				87.607963	1.314938	-37.909012
00567	13922812	-0.224605	9.831414	0.323724				-0.001205	0.000972	0.000397				87.607616	1.314836	-37.908725
00568	13922862	-0.217952	9.807137	0.334826				-0.005213	0.000025	0.001009				87.608495	1.313745	-37.908972
00569	13922912	-0.211523	9.806553	0.331338				-0.002430	0.000008	-0.000858				87.607801	1.313991	-37.908985
00570	13922962	-0.203602	9.796860	0.335913				-0.004575	-0.000063	-0.001432				87.608835	1.313599	-37.909260
00571	13923012	-0.222034	9.826423	0.327051				-0.001085	0.000902	-0.001980				87.608530	1.314177	-37.909026
00572	13923062	-0.216937	9.801816	0.326387				-0.002336	-0.000928	-0.000770				87.610218	1.313588	-37.909548
00573	13923112	-0.233751	9.805885	0.310663				-0.005487	-0.002502	-0.000351				87.608619	1.313656	-37.910266
00574	13923162	-0.229235	9.810594	0.332154				-0.002272	-0.000962	-0.001989				87.610329	1.313410	-37.910828
00575	13923212	-0.233177	9.817006	0.312929				-0.007116	0.004581	-0.000917				87.608325	1.313726	-37.909536
00576	13923262	-0.240466	9.816775	0.322381				-0.003069	0.002936	-0.002412				87.609821	1.313650	-37.908958
00577	13923312	-0.228165	9.825621	0.327688				-0.005905	0.000431	-0.001585				87.608128	1.314108	-37.908854
00578	13923362	-0.211342	9.792052	0.333940				-0.000448	0.001243	-0.001404				87.610386	1.313726	-37.908760
00579	13923412	-0.225957	9.813404	0.337159				-0.001824	0.000083	-0.001631				87.609868	1.314196	-37.908757
00580	13923462	-0.229820	9.831635	0.320898				-0.003718	0.000475	0.000849				87.611155	1.313147	-37.908835
00581	13923512	-0.217527	9.811161	0.320343				-0.004242	0.002427	-0.002897				87.609952	1.314001	-37.908177
00582	13923562	-0.227774	9.791918	0.329585				-0.005516	0.000371	-0.000945				87.610743	1.313481	-37.908334
00583	13923612	-0.214144	9.791298	0.318700				-0.004715	0.000191	-0.001624				87.609395	1.313948	-37.908301
00584	13923662	-0.229265	9.823617	0.318495				-0.002498	0.001334	0.000592				87.611041	1.312990	-37.908165
00585	13923712	-0.220964	9.805641	0.321528				-0.001591	0.000931	0.000074				87.610601	1.312982	-37.907904
00586	13923762	-0.248202	9.830294	0.316010				-0.004504	0.003979	-0.001310				87.611690	1.312598	-37.907038
00587	13923812	-0.224429	9.819465	0.314646				-0.003225	0.001936	-0.001038				87.610786	1.312922	-37.906502
00588	13923862	-0.222145	9.812911	0.310729				-0.000422	0.003503	-0.000268				87.613041	1.312235	-37.905746
00589	13923912	-0.227599	9.810971	0.324070				-0.004618	0.003262	-0.002695				87.611736	1.313045	-37.904841
00590	13923962	-0.216173	9.803560	0.321601				-0.003640	0.001830	0.000307				87.613077	1.312182	-37.904571
00591	13924012	-0.229872	9.805366	0.316544				-0.001623	-0.001471	-0.003498				87.612599	1.313165	-37.905037
00592	13924062	-0.228824	9.803739	0.315338				-0.000659	0.000620	-0.002465				87.614769	1.313068	-37.905136
00593	13924112	-0.214952	9.824393	0.310120				-0.005012	0.000643	-0.000913				87.613344	1.313338	-37.904967
00594	13924162	-0.206201	9.794627	0.324328				-0.008852	0.002377	-0.003909				87.613181	1.313683	-37.904571
00595	13924212	-0.219271	9.807868	0.316965				-0.003084	0.001518	-0.000368				87.612318	1.313809	-37.904139
00596	13924262	-0.219088	9.807855	0.302643				-0.002252	0.004336	-0.004205				87.614042	1.314259	-37.903195
00597	13924312	-0.227937	9.807577	0.313475				-0.002695	0.005100	-0.005451				87.613297	1.315879	-37.901794
00598	13924362	-0.213903	9.810964	0.320543				-0.001427	-0.000328	-0.001153				87.615253	1.315399	-37.902173
00599	13924412	-0.221687	9.805864	0.321817				-0.000906	0.004756	-0.001415				87.615032	1.315861	-37.900837
00600	13924462	-0.235230	9.820781	0.312773				-0.001196	-0.001816	-0.003855				87.617021	1.316143	-37.901644
00601	13924512	-0.229278	9.823948	0.342712				-0.002034	0.000562	-0.002974				87.616442	1.317002	-37.901517
00602	13924562	-0.228649	9.806898	0.326168				-0.004511	0.001201	-0.000171				87.617521	1.316262	-37.901444
00603	13924612	-0.221893	9.800467	0.333126				-0.004239	0.003892	0.000484				87.616325	1.316169	-37.900321
00604	13924662	-0.235608	9.820252	0.300395				-0.006325	-0.001683	-0.002875				87.616866	1.316167	-37.901116
00605	13924712	-0.218132	9.824889	0.321546				-0.002684	-0.000126	-0.001533				87.616098	1.316604	-37.901173
00606	13924762	-0.228808	9.795753	0.325453				-0.004147	0.000555	-0.002293				87.617285	1.316467	-37.901299
00607	13924812	-0.215911	9.795940	0.323648				-0.002163	0.002696	-0.001585				87.616675	1.316954	-37.900538
00608	13924862	-0.228221	9.802505	0.319011				-0.003383	0.003099	0.000766				87.618110	1.315972	-37.899904
00609	13924912	-0.223723	9.799497	0.302210				-0.004259	-0.002000	-0.002150				87.616881	1.316565	-37.900498
00610	13924962	-0.244161	9.823074	0.310386				-0.002796	-0.002448	0.001891				87.618403	1.315185	-37.901441
00611	13925012	-0.253781	9.826625	0.318462				-0.004222	0.004283	0.000779				87.617224	1.315013	-37.900211
00612	13925062	-0.218064	9.797809	0.323811				-0.007492	0.000820	-0.003506				87.617438	1.315228	-37.900264
00613	13925112	-0.214793	9.815690	0.336428				-0.003251	-0.000589	-0.002627				87.616498	1.315974	-37.900458
00614	13925162	-0.211721	9.806826	0.313882				-0.004429	0.000292	-0.003293				87.617586	1.316114	-37.900674
00615	13925212	-0.229123	9.811897	0.324693				-0.000259	0.003577	0.001947				87.617530	1.315599	-37.899627
00616	13925262	-0.210080	9.811724	0.320290				-0.001094	0.000321	-0.001118				87.619589	1.315121	-37.899804
00617	13925312	-0.210682	9.810472	0.308833				-0.004300	0.002626	0.000826				87.618374	1.314917	-37.899038
00618	13925362	-0.219322	9.805480	0.317797				-0.006083	-0.000089	-0.002259				87.618997	1.314761	-37.899358
00619	13925412	-0.213655	9.803777	0.340934				-0.003865	0.000925	0.000173				87.617902	1.314725	-37.899097
00620	13925462	-0.203047	9.798289	0.320307				-0.004859	0.000902	-0.001492				87.618870	1.314355	-37.899100
00621	13925512	-0.220686	9.829490	0.313371				-0.002248	0.002600	0.000855				87.618256	1.314144	-37.898348
00622	13925562	-0.242075	9.823538	0.312862				-0.004516	-0.001870	-0.000314				87.619301	1.313407	-37.899153
00623	13925612	-0.228161	9.810401	0.314707				-0.002120	0.001308	-0.002777				87.618704	1.314220	-37.898808
00624	13925662	-0.231910	9.841869	0.316639				-0.005339	0.000928	-0.001100				87.619545	1.313743	-37.898819
00625	13925712	-0.219670	9.811566	0.322901				-0.007578	0.000724	-0.001514				87.617389	1.314187	-37.898635
00626	13925762	-0.233388	9.810268	0.303948				-0.005379	0.000793	-0.003857				87.618200	1.314492	-37.898704
00627	13925812	-0.224787	9.813068	0.313549				-0.007119	0.001514	0.000446				87.616185	1.314385	-37.898270
00628	13925862	-0.219685	9.809297	0.316300				-0.003126	0.000136	0.002706				87.617633	1.312803	-37.898454
00629	13925912	-0.216883	9.799170	0.329261				-0.003346	-0.001527	-0.001602				87.616664	1.313243	-37.898914
00630	13925962	-0.216662	9.806553	0.311974				-0.002529	-0.000995	-0.002243				87.618294	1.313070	-37.899478
00631	13926012	-0.217899	9.813908	0.326363				-0.004403	0.001521	-0.003573				87.617051	1.314111	-37.899095
00632	13926062	-0.219526	9.793962	0.341699				-0.002349	0.000530	-0.000698				87.618749	1.313518	-37.899196
00633	13926112	-0.206556	9.806580	0.303045				-0.004438	-0.001156	0.001386				87.617469	1.313108	-37.899510
00634	13926162	-0.206460	9.810708	0.312167				-0.003394	0.001124	-0.000720				87.618856	1.312515	-37.899472
00635	13926212	-0.218117	9.817709	0.294278				-0.003323	-0.000264	-0.001787				87.617903	1.313023	-37.899570
00636	13926262	-0.229430	9.818419	0.300796				-0.003488	0.001456	0.004799				87.619271	1.310860	-37.899344
00637	13926312	-0.232873	9.812296	0.310856				-0.004032	-0.000860	0.000647				87.618109	1.310665	-37.899581
00638	13926362	-0.212395	9.797374	0.310796				-0.005693	0.003288	0.001702				87.618864	1.309414	-37.898877
00639	13926412	-0.214461	9.797493	0.316830				-0.005300	0.000406	-0.001778				87.617354	1.309931	-37.898783
00640	13926462	-0.231809	9.827023	0.325987				-0.005503	-0.001246	-0.003584				87.618137	1.310144	-37.899441
00641	13926512	-0.232819	9.827734	0.309927				-0.004657	-0.001451	0.000426				87.616789	1.310004	-37.899851
00642	13926562	-0.217641	9.814636	0.309863				-0.005246	0.000030	0.001939				87.617645	1.308645	-37.900074
00643	13926612	-0.217531	9.785538	0.320301				-0.000856	-0.000831	0.002630				87.617394	1.307883	-37.900275
00644	13926662	-0.229368	9.812337	0.326398				-0.001844	-0.001867	-0.006581				87.619218	1.308943	-37.901158
00645	13926712	-0.210769	9.814885	0.330236				-0.006139	0.000551	-0.004181				87.617461	1.310146	-37.901047
00646	13926762	-0.232703	9.815535	0.316362				-0.004234	-0.000536	0.000235				87.618611	1.309265	-37.901458
00647	13926812	-0.230781	9.811719	0.319144				-0.000161	-0.000761	0.000802				87.618566	1.309027	-37.901668
00648	13926862	-0.251121	9.842118	0.316022				-0.003831	0.002088	0.000603				87.619846	1.308074	-37.901313
00649	13926912	-0.246434	9.816964	0.320226				-0.000123	-0.000111	-0.001858				87.619805	1.308602	-37.901365
00650	13926962	-0.220161	9.805450	0.303598				-0.002400	0.000107	-0.000412				87.621480	1.307920	-37.901562
00651	13927012	-0.228090	9.817141	0.308391				-0.003253	0.001275	-0.006657				87.620543	1.309839	-37.901271
00652	13927062	-0.225707	9.825310	0.318928				-0.002454	0.001917	-0.000977				87.622235	1.309341	-37.900995
00653	13927112	-0.226244	9.819538	0.323423				-0.000004	0.002176	-0.004317				87.622249	1.310603	-37.900424
00654	13927162	-0.236205	9.812544	0.307769				-0.004479	-0.000964	0.000171				87.623307	1.309736	-37.900941
00655	13927212	-0.222747	9.809326	0.327370				-0.003260	0.000964	-0.001045				87.622380	1.310048	-37.900679
00656	13927262	-0.210950	9.800900	0.313792				-0.008203	0.002098	-0.004362				87.622415	1.310522	-37.900384
00657	13927312	-0.225755	9.805374	0.319431				-0.003638	-0.000172	0.000875				87.621378	1.310272	-37.900421
00658	13927362	-0.209537	9.795926	0.329900				-0.003636	0.000765	-0.001785				87.622704	1.309984	-37.900486
00659	13927412	-0.226578	9.814954	0.312990				-0.002940	-0.001365	-0.003171				87.621847	1.310877	-37.900912
00660	13927462	-0.228070	9.807405	0.309378				-0.003067	0.000028	-0.000665				87.623337	1.310260	-37.901155
00661	13927512	-0.220775	9.808740	0.320700				-0.005367	0.000767	-0.000914				87.621801	1.310533	-37.900940
00662	13927562	-0.225759	9.823138	0.321534				-0.000369	0.000589	-0.002019				87.624073	1.310313	-37.901053
00663	13927612	-0.211122	9.816433	0.337059				-0.001530	-0.000037	0.000807				87.623645	1.310083	-37.901056
00664	13927662	-0.216725	9.810223	0.320395				-0.006046	-0.001021	0.000750				87.624234	1.309047	-37.901601
00665	13927712	-0.230881	9.804621	0.317577				-0.004675	0.003564	0.002151				87.622930	1.308474	-37.900561
00666	13927762	-0.233116	9.807360	0.322847				-0.001931	0.002671	0.000503				87.624764	1.307555	-37.900045
00667	13927812	-0.242970	9.803740	0.334669				-0.004083	0.001596	-0.002959				87.623596	1.308420	-37.899617
00668	13927862	-0.216104	9.799582	0.318174				-0.003791	0.000696	0.001394				87.624889	1.307232	-37.899650
00669	13927912	-0.245941	9.821311	0.315474				-0.003088	0.001581	-0.002066				87.624010	1.307840	-37.899221
00670	13927962	-0.228020	9.808751	0.329322				-0.003645	0.000858	-0.001428				87.625357	1.307464	-37.899258
00671	13928012	-0.222904	9.816894	0.313047				-0.005487	-0.000527	-0.000019				87.623785	1.307465	-37.899407
00672	13928062	-0.223468	9.809938	0.317754				-0.003868	0.000753	-0.003449				87.625021	1.307648	-37.899484
00673	13928112	-0.212552	9.827698	0.312985				-0.005218	-0.003540	-0.006132				87.623497	1.309360	-37.900567
00674	13928162	-0.212554	9.808950	0.298315				-0.006229	0.001493	-0.001323				87.624098	1.308955	-37.900430
00675	13928212	-0.217111	9.815626	0.323016				-0.003711	0.000855	-0.003639				87.623031	1.310007	-37.900227
00676	13928262	-0.222876	9.808573	0.314463				-0.004257	0.001046	-0.000945				87.624192	1.309481	-37.900208
00677	13928312	-0.233744	9.827390	0.316155				-0.006449	0.001124	-0.006068				87.622346	1.311229	-37.899959
00678	13928362	-0.231868	9.809381	0.315720				-0.005586	-0.001466	0.001615				87.623097	1.309948	-37.900610
00679	13928412	-0.220909	9.811301	0.323571				-0.005116	0.000535	-0.003064				87.621623	1.310831	-37.900491
00680	13928462	-0.218737	9.796738	0.331232				-0.005976	-0.001147	0.002093				87.622270	1.309418	-37.901050
00681	13928512	-0.226942	9.815155	0.314631				-0.001471	0.001162	0.000108				87.621858	1.309400	-37.900720
00682	13928562	-0.230574	9.833643	0.328350				-0.002012	-0.000623	0.003760				87.623651	1.307511	-37.901114
00683	13928612	-0.216376	9.810655	0.323292				-0.005338	0.001731	-0.002767				87.622131	1.308323	-37.900653
00684	13928662	-0.230030	9.816056	0.331225				-0.003535	0.000440	-0.001908				87.623480	1.308072	-37.900807
00685	13928712	-0.227189	9.804312	0.325696				-0.002500	0.001103	-0.002968				87.622769	1.308936	-37.900525
00686	13928762	-0.210338	9.793161	0.308404				-0.004517	-0.000098	-0.002331				87.623833	1.308795	-37.900819
00687	13928812	-0.229138	9.823006	0.312236				-0.002868	0.002415	-0.005369				87.623031	1.310364	-37.900191
00688	13928862	-0.227634	9.811947	0.322649				-0.005165	0.004944	0.001355				87.623939	1.309227	-37.898984
00689	13928912	-0.217904	9.802676	0.316362				-0.006025	-0.003066	-0.003912				87.622197	1.310311	-37.899908
00690	13928962	-0.223195	9.808997	0.317461				0.001029	0.004047	-0.002384				87.624875	1.310236	-37.899028
00691	13929012	-0.222568	9.810228	0.315112				-0.003136	0.000733	-0.005028				87.623981	1.311686	-37.898874
00692	13929062	-0.227756	9.807827	0.312066				-0.004393	0.002633	0.001631				87.625115	1.310445	-37.898373
00693	13929112	-0.220060	9.808649	0.327067				-0.002752	0.000230	0.000808				87.624321	1.310216	-37.898292
00694	13929162	-0.233222	9.828972	0.321557				-0.002526	0.001038	-0.001781				87.625984	1.309933	-37.898258
00695	13929212	-0.227192	9.821556	0.330253				-0.003398	0.000282	-0.001365				87.625015	1.310333	-37.898188
00696	13929262	-0.232986	9.825609	0.324497				-0.002737	-0.001682	-0.003300				87.626584	1.310450	-37.898950
00697	13929312	-0.223875	9.814083	0.340795				-0.002614	-0.002355	-0.001446				87.625829	1.310837	-37.899644
00698	13929362	-0.210244	9.796461	0.325882				-0.006733	0.002257	-0.002602				87.626241	1.310802	-37.899253
00699	13929412	-0.216686	9.808413	0.314212				-0.006719	0.001068	-0.000104				87.624313	1.310845	-37.898945
00700	13929462	-0.225606	9.821722	0.305362				-0.005208	-0.000365	-0.001205				87.625208	1.310381	-37.899335
00701	13929512	-0.231313	9.795994	0.307591				-0.007695	0.000975	-0.004525				87.623011	1.311689	-37.899109
00702	13929562	-0.223892	9.799706	0.335067				-0.004715	-0.001846	-0.001892				87.624014	1.311407	-37.899899
00703	13929612	-0.212643	9.809298	0.321792				-0.004188	0.000077	0.000336				87.622820	1.311314	-37.899872
00704	13929662	-0.235316	9.828719	0.320744				-0.004181	-0.001252	-0.000023				87.623960	1.310490	-37.900476
00705	13929712	-0.238406	9.816456	0.329142				-0.004721	0.000351	-0.003673				87.622610	1.311546	-37.900420
00706	13929762	-0.227328	9.793987	0.333564				-0.002314	0.001435	-0.000786				87.624343	1.310986	-37.900292
00707	13929812	-0.221678	9.805769	0.328055				-0.003731	-0.002468	0.000096				87.623252	1.310927	-37.900998
00708	13929862	-0.226053	9.826840	0.327408				-0.005508	0.003187	-0.001827				87.624061	1.310682	-37.900360
00709	13929912	-0.227530	9.818747	0.312026				-0.002615	0.001950	0.000241				87.623329	1.310636	-37.899794
00710	13929962	-0.220828	9.819961	0.331660				-0.004227	0.003146	-0.003436				87.624518	1.310861	-37.899205
00711	13930012	-0.235105	9.810852	0.326013				-0.005451	0.000315	0.000019				87.622952	1.310858	-37.899115
00712	13930062	-0.217292	9.798100	0.321338				-0.002986	0.000359	0.000074				87.624457	1.310036	-37.899254
00713	13930112	-0.206394	9.791200	0.331848				-0.004802	0.002035	-0.003059				87.623092	1.310938	-37.898705
00714	13930162	-0.205744	9.795609	0.306907				-0.001066	0.000658	0.000647				87.625176	1.309953	-37.898767
00715	13930212	-0.240074	9.801853	0.336607				-0.006046	0.000175	-0.000303				87.623438	1.310040	-37.898717
00716	13930262	-0.241311	9.824822	0.322612				-0.001501	0.001996	-0.003030				87.625403	1.310130	-37.898434
00717	13930312	-0.224070	9.813899	0.337125				-0.010174	0.001718	-0.001790				87.622500	1.310663	-37.897960
00718	13930362	-0.242929	9.805161	0.319250				-0.000985	-0.001354	-0.003178				87.624575	1.310757	-37.898641
00719	13930412	-0.238866	9.809981	0.317807				-0.002687	0.002142	-0.000683				87.623815	1.310975	-37.898041
00720	13930462	-0.211997	9.811902	0.322732				-0.002237	0.001217	-0.000277				87.625549	1.310264	-37.897964
00721	13930512	-0.216523	9.808664	0.344805				-0.003607	-0.001567	-0.004682				87.624502	1.311583	-37.898467
00722	13930562	-0.236270	9.815570	0.311350				-0.004853	-0.000251	0.000847				87.625484	1.310542	-37.898774
00723	13930612	-0.225989	9.823177	0.334334				-0.004777	-0.001641	0.000066				87.624100	1.310503	-37.899239
00724	13930662	-0.219026	9.804652	0.325203				-0.002701	-0.001413	0.001411				87.625699	1.309283	-37.899882
00725	13930712	-0.223668	9.808293	0.316555				-0.001299	0.000577	-0.003584				87.625335	1.310318	-37.899766
00726	13930762	-0.231386	9.803641	0.304183				-0.004798	0.002844	-0.003114				87.626325	1.310431	-37.899223
00727	13930812	-0.225602	9.809051	0.327594				-0.003522	0.004297	-0.001151				87.625349	1.310813	-37.898011
00728	13930862	-0.225007	9.818235	0.316514				-0.004068	-0.002058	-0.003012				87.626532	1.310847	-37.898852
00729	13930912	-0.235140	9.812399	0.318335				-0.005012	-0.001621	-0.002787				87.625087	1.311627	-37.899345
00730	13930962	-0.236172	9.812517	0.309099				0.000887	-0.002676	-0.000018				87.627694	1.310799	-37.900370
00731	13931012	-0.225470	9.818705	0.317067				-0.003610	0.000829	-0.002553				87.626676	1.311539	-37.900172
00732	13931062	-0.222930	9.802497	0.339033				-0.003508	0.001810	0.000212				87.628046	1.310698	-37.899908
00733	13931112	-0.219975	9.800848	0.325704				-0.004602	0.000879	-0.001074				87.626723	1.311013	-37.899668
00734	13931162	-0.222682	9.817810	0.330648				-0.003842	-0.001858	-0.001439				87.627994	1.310601	-37.900486
00735	13931212	-0.226385	9.820501	0.322565				-0.004531	0.000785	0.001205				87.626703	1.310267	-37.900249
00736	13931262	-0.221122	9.806407	0.348810				0.000235	0.000868	-0.000540				87.629127	1.309625	-37.900260
00737	13931312	-0.236966	9.808495	0.323314				-0.002871	-0.001059	0.001320				87.628288	1.309231	-37.900545
00738	13931362	-0.211147	9.799423	0.317184				-0.002602	0.001593	-0.000563				87.629930	1.308610	-37.900351
00739	13931412	-0.230195	9.818974	0.326188				-0.003253	0.002909	-0.000744				87.629013	1.308857	-37.899528
00740	13931462	-0.250451	9.816107	0.326743				-0.001285	0.001428	-0.000691				87.631028	1.308271	-37.899356
00741	13931512	-0.221133	9.792677	0.300090				-0.006495	-0.002022	0.002348				87.629141	1.307576	-37.899895
00742	13931562	-0.213840	9.813635	0.300933				-0.003805	0.001926	-0.001518				87.630444	1.307226	-37.899607
00743	13931612	-0.223780	9.811451	0.327309				-0.003074	0.001933	-0.005179				87.629591	1.308732	-37.899124
00744	13931662	-0.223384	9.803497	0.319899				-0.002563	0.000978	-0.002071				87.631210	1.308532	-37.899119
00745	13931712	-0.217901	9.801351	0.324979				-0.006107	0.001691	-0.002573				87.629467	1.309290	-37.898664
00746	13931762	-0.208688	9.809900	0.300868				-0.003181	0.001752	0.001877				87.630941	1.307967	-37.898390
00747	13931812	-0.215782	9.820586	0.325677				-0.004864	-0.000229	-0.002458				87.629547	1.308669	-37.898486
00748	13931862	-0.223015	9.812983	0.305160				-0.006343	-0.002427	-0.006056				87.630077	1.309569	-37.899509
00749	13931912	-0.233131	9.824393	0.310822				-0.003527	-0.001048	-0.004744				87.629046	1.310911	-37.899863
00750	13931962	-0.231787	9.817478	0.314615				-0.000303	0.001766	-0.001911				87.631348	1.310676	-37.899649
00751	13932012	-0.212316	9.793457	0.318471				-0.006891	0.000995	-0.004020				87.629373	1.311836	-37.899409
00752	13932062	-0.209444	9.796088	0.319631				-0.004350	-0.000151	-0.001243				87.630517	1.311391	-37.899725
00753	13932112	-0.231291	9.818282	0.340081				-0.003175	-0.001975	-0.002598				87.629596	1.312112	-37.900322
00754	13932162	-0.229612	9.812350	0.325718				-0.003432	-0.000747	0.000037				87.630970	1.311292	-37.900760
00755	13932212	-0.241461	9.821664	0.327607				-0.002221	0.000566	-0.001045				87.630336	1.311595	-37.900609
00756	13932262	-0.227284	9.822557	0.311304				-0.001936	0.000866	0.001205				87.632171	1.310458	-37.900620
00757	13932312	-0.214046	9.802773	0.328287				-0.004429	-0.001603	-0.000224				87.630902	1.310504	-37.901092
00758	13932362	-0.236666	9.813347	0.332188				-0.003240	-0.000910	-0.002304				87.632329	1.310347	-37.901628
00759	13932412	-0.235169	9.810486	0.334397				-0.003545	0.001770	-0.002161				87.631315	1.310987	-37.901139
00760	13932462	-0.222642	9.815477	0.328165				-0.006204	-0.002451	-0.003526				87.631896	1.311164	-37.902128
00761	13932512	-0.233101	9.819864	0.327907				-0.005195	-0.000976	-0.003195				87.630409	1.312071	-37.902450
00762	13932562	-0.236826	9.825882	0.334395				-0.003082	0.001258	-0.002486				87.631884	1.311991	-37.902348
00763	13932612	-0.228393	9.814486	0.311069				-0.002757	0.002400	-0.001039				87.631111	1.312318	-37.901676
00764	13932662	-0.216301	9.809218	0.324048				-0.007257	0.000639	-0.001678				87.631417	1.311998	-37.901780
00765	13932712	-0.233275	9.828473	0.307714				-0.001968	0.001897	0.000083				87.630870	1.311993	-37.901238
00766	13932762	-0.212198	9.808447	0.315635				-0.008880	0.002354	-0.002146				87.630716	1.311837	-37.900851
00767	13932812	-0.235198	9.815440	0.320695				-0.002231	-0.000312	-0.003074				87.630069	1.312713	-37.900975
00768	13932862	-0.227199	9.803216	0.320215				-0.004846	-0.001910	-0.002979				87.631029	1.312735	-37.901816
00769	13932912	-0.214988	9.793730	0.329749				-0.004651	-0.000805	-0.003007				87.629686	1.313583	-37.902083
00770	13932962	-0.229486	9.811406	0.325695				-0.003989	-0.000504	-0.003455				87.630920	1.313771	-37.902525
00771	13933012	-0.225569	9.807381	0.328090				-0.004237	-0.001604	-0.001021				87.629685	1.314043	-37.902992
00772	13933062	-0.232152	9.803955	0.329579				-0.003905	0.000248	0.000176				87.630956	1.313188	-37.903192
00773	13933112	-0.209566	9.809656	0.331805				-0.003334	0.001490	0.001718				87.630010	1.312713	-37.902747
00774	13933162	-0.222523	9.809111	0.325873				-0.001256	0.000320	-0.002305				87.632010	1.312575	-37.902943
00775	13933212	-0.241173	9.796995	0.327705				-0.003871	-0.000013	-0.001334				87.630892	1.312956	-37.902957
00776	13933262	-0.232355	9.801777	0.316741				-0.000595	0.000660	-0.001343				87.633107	1.312547	-37.903064
00777	13933312	-0.230132	9.829326	0.331681				-0.004104	0.000372	-0.000275				87.631941	1.312632	-37.902960
00778	13933362	-0.203459	9.807551	0.304024				-0.005964	0.002408	-0.000132				87.632631	1.311891	-37.902510
00779	13933412	-0.234188	9.805573	0.330797				-0.003895	0.001533	-0.004405				87.631521	1.313169	-37.902124
00780	13933462	-0.220185	9.817047	0.320902				-0.002819	-0.003096	-0.001647				87.633058	1.312800	-37.903267
00781	13933512	-0.228480	9.813190	0.318233				-0.002279	0.000045	-0.003042				87.632400	1.313672	-37.903284
00782	13933562	-0.232851	9.812732	0.329282				-0.002189	0.002635	-0.002194				87.634174	1.313528	-37.902808
00783	13933612	-0.211201	9.799326	0.323260				-0.008111	0.004436	-0.002296				87.631877	1.314238	-37.901566
00784	13933662	-0.219501	9.797819	0.322594				-0.005817	-0.001408	-0.001433				87.632562	1.313825	-37.902246
00785	13933712	-0.223265	9.803922	0.338500				-0.000789	0.001688	-0.003228				87.632350	1.314768	-37.901806
00786	13933762	-0.221077	9.811959	0.342499				-0.006250	0.001907	-0.006162				87.632943	1.315753	-37.901584
00787	13933812	-0.228811	9.798800	0.296703				-0.004113	0.000728	0.000337				87.631783	1.315665	-37.901383
00788	13933862	-0.224235	9.798542	0.317824				-0.005021	0.003006	-0.002054				87.632734	1.315488	-37.900800
00789	13933912	-0.239640	9.817571	0.317354				-0.004662	0.001048	0.002682				87.631418	1.314733	-37.900476
00790	13933962	-0.209094	9.816435	0.307985				-0.006752	-0.000061	-0.000237				87.631839	1.313995	-37.900745
00791	13934012	-0.252349	9.810328	0.299907				-0.002958	-0.002486	0.000449				87.630980	1.313839	-37.901452
00792	13934062	-0.227910	9.810021	0.308509				-0.005468	0.002869	-0.001894				87.631798	1.313608	-37.900892
00793	13934112	-0.209070	9.800681	0.329683				-0.004797	0.000938	-0.001907				87.630426	1.314160	-37.900647
00794	13934162	-0.238915	9.820134	0.304969				-0.006889	0.002394	0.000481				87.630843	1.313253	-37.900213
00795	13934212	-0.212510	9.799415	0.332055				-0.002893	0.001328	-0.002552				87.630014	1.313999	-37.899853
00796	13934262	-0.215271	9.812765	0.310147				-0.007002	0.000674	-0.002091				87.630395	1.313798	-37.899949
00797	13934312	-0.232850	9.820286	0.315963				-0.005014	0.002549	-0.003915				87.628981	1.314950	-37.899270
00798	13934362	-0.219422	9.810739	0.330775				-0.006840	-0.000388	-0.000753				87.629376	1.314356	-37.899638
00799	13934412	-0.228331	9.808344	0.309204				-0.003997	0.001924	-0.001708				87.628247	1.314868	-37.899108
00800	13934462	-0.244935	9.814763	0.325798				-0.004210	0.000760	-0.000205				87.629418	1.314130	-37.899152
00801	13934512	-0.221986	9.813709	0.320328				-0.001137	-0.001255	0.001504				87.629086	1.313685	-37.899491
00802	13934562	-0.216223	9.802957	0.314626				-0.004278	0.001691	-0.001265				87.630235	1.313263	-37.899287
00803	13934612	-0.226107	9.825791	0.302616				-0.000264	0.000504	-0.001117				87.630177	1.313591	-37.899161
00804	13934662	-0.228058	9.808382	0.338374				-0.001574	0.003424	-0.000619				87.632094	1.313006	-37.898399
00805	13934712	-0.225001	9.828842	0.336728				-0.004068	0.005255	-0.001725				87.630967	1.313562	-37.896922
00806	13934762	-0.228838	9.793221	0.320455				-0.004697	-0.000083	0.002097				87.632016	1.312161	-37.897173
00807	13934812	-0.223774	9.815117	0.320330				-0.002310	-0.001895	-0.002248				87.631347	1.312782	-37.897748
00808	13934862	-0.219112	9.800280	0.332164				-0.004175	-0.000730	-0.002140				87.632506	1.312579	-37.898234
00809	13934912	-0.234371	9.828310	0.333151				-0.003843	0.000055	-0.000820				87.631397	1.312814	-37.898227
00810	13934962	-0.234718	9.801196	0.321678				-0.004437	-0.001348	-0.001180				87.632486	1.312333	-37.898858
00811	13935012	-0.231525	9.811134	0.325553				-0.006448	0.002724	-0.000384				87.630663	1.312475	-37.898085
00812	13935062	-0.222438	9.826365	0.330153				-0.001273	0.001103	0.000684				87.632681	1.311485	-37.898016
00813	13935112	-0.222783	9.809108	0.325918				-0.002987	0.000355	-0.001624				87.631818	1.311953	-37.897933
00814	13935162	-0.233196	9.812741	0.296545				-0.005551	-0.001360	0.001900				87.632608	1.310591	-37.898572
00815	13935212	-0.241270	9.805285	0.328388				-0.003466	0.003649	0.000159				87.631642	1.310592	-37.897523
00816	13935262	-0.225988	9.807687	0.323518				-0.003991	-0.001276	-0.000762				87.632871	1.309995	-37.898145
00817	13935312	-0.232531	9.815151	0.310415				-0.003944	0.003147	-0.004526				87.631756	1.311324	-37.897298
00818	13935362	-0.203046	9.787925	0.315326				-0.005138	0.000812	0.001750				87.632671	1.310032	-37.897298
00819	13935412	-0.214653	9.803331	0.306935				-0.004721	-0.001577	-0.000990				87.631315	1.310296	-37.897767
00820	13935462	-0.229940	9.834266	0.303894				-0.004746	-0.000476	0.000686				87.632307	1.309292	-37.898150
00821	13935512	-0.220658	9.802569	0.320868				-0.004011	0.003543	0.000446				87.631185	1.309206	-37.897130
00822	13935562	-0.231796	9.808161	0.318568				-0.004812	0.000156	-0.003736				87.632187	1.309478	-37.897391
00823	13935612	-0.232280	9.811915	0.320702				-0.004449	0.000172	-0.000788				87.630916	1.309707	-37.897351
00824	13935662	-0.226123	9.819366	0.304273				-0.000720	0.000391	-0.003492				87.633080	1.309905	-37.897545
00825	13935712	-0.219506	9.801462	0.317112				-0.004818	-0.001777	-0.003140				87.631696	1.310783	-37.898095
00826	13935762	-0.206221	9.800756	0.327183				-0.001368	-0.002231	-0.000074				87.633668	1.309974	-37.898997
00827	13935812	-0.221717	9.812922	0.325696				-0.004268	0.000893	0.003515				87.632446	1.308980	-37.898696
00828	13935862	-0.236648	9.826402	0.331526				-0.006133	-0.002807	-0.003942				87.633048	1.309273	-37.899799
00829	13935912	-0.230201	9.807335	0.311814				-0.003434	0.002518	0.000377				87.632085	1.309198	-37.899070
00830	13935962	-0.226691	9.807248	0.304544				-0.001840	-0.000694	-0.002754				87.633916	1.309171	-37.899540
00831	13936012	-0.224210	9.823325	0.341534				-0.005564	0.000860	-0.002901				87.632325	1.310009	-37.899332
00832	13936062	-0.234399	9.814608	0.313750				-0.004155	0.001919	-0.000007				87.633524	1.309229	-37.899026
00833	13936112	-0.237587	9.817524	0.306825				-0.004215	-0.000540	-0.003520				87.632318	1.310231	-37.899226
00834	13936162	-0.230708	9.809632	0.316258				0.000307	-0.000259	-0.000063				87.634781	1.309444	-37.899558
00835	13936212	-0.229124	9.809491	0.326893				-0.002010	-0.003081	0.000183				87.634188	1.309354	-37.900437
00836	13936262	-0.233684	9.826476	0.313703				-0.002672	-0.001745	-0.004522				87.635782	1.309828	-37.901239
00837	13936312	-0.228944	9.794228	0.332113				-0.000800	-0.000727	0.000444				87.635548	1.309692	-37.901442
00838	13936362	-0.221238	9.803985	0.321148				-0.004182	0.002693	-0.001834				87.636759	1.309451	-37.900951
00839	13936412	-0.238872	9.811094	0.307024				-0.003525	0.003355	-0.001126				87.635774	1.309813	-37.900005
00840	13936462	-0.233779	9.808392	0.332690				-0.005654	0.001600	-0.003634				87.636520	1.310067	-37.899819
00841	13936512	-0.216419	9.799696	0.326183				-0.005398	-0.001559	-0.001950				87.634962	1.310606	-37.900286
00842	13936562	-0.233696	9.809332	0.318057				-0.004410	0.002754	-0.002696				87.636111	1.310615	-37.899782
00843	13936612	-0.220916	9.820681	0.330944				-0.005485	0.000414	-0.000047				87.634537	1.310633	-37.899663
00844	13936662	-0.212000	9.799170	0.301731				-0.005164	0.002256	-0.002158				87.635442	1.310476	-37.899301
00845	13936712	-0.231354	9.814295	0.320964				-0.006171	0.001720	-0.002279				87.633683	1.311148	-37.898830
00846	13936762	-0.206097	9.800064	0.310463				-0.003840	0.002964	-0.000683				87.634979	1.310573	-37.898264
00847	13936812	-0.224106	9.801222	0.329258				-0.002376	0.003440	-0.001770				87.634321	1.311119	-37.897295
00848	13936862	-0.234624	9.808103	0.320188				-0.003563	0.001219	-0.002899				87.635687	1.311161	-37.897246
00849	13936912	-0.220646	9.817322	0.318213				-0.003186	0.002648	-0.002573				87.634781	1.311927	-37.896510
00850	13936962	-0.219795	9.810911	0.319389				-0.002365	-0.000791	0.002056				87.636487	1.310532	-37.896971
00851	13937012	-0.223687	9.801842	0.334986				-0.000492	-0.000503	-0.002116				87.636329	1.311130	-37.897132
00852	13937062	-0.223895	9.802305	0.319670				-0.002306	-0.001220	-0.003880				87.638056	1.311427	-37.897806
00853	13937112	-0.232936	9.811954	0.302027				-0.004316	-0.000381	-0.003709				87.636816	1.312483	-37.897959
00854	13937162	-0.214439	9.790222	0.327046				-0.002931	-0.000386	-0.002016				87.638344	1.312253	-37.898349
00855	13937212	-0.237460	9.806979	0.328977				-0.006919	0.000062	-0.001133				87.636351	1.312573	-37.898346
00856	13937262	-0.230403	9.816733	0.317583				-0.004242	-0.001702	-0.003427				87.637502	1.312733	-37.899126
00857	13937312	-0.238694	9.810061	0.328167				-0.004841	-0.000904	-0.001174				87.636102	1.313055	-37.899404
00858	13937362	-0.234281	9.819115	0.329408				-0.005835	-0.000694	-0.000825				87.636811	1.312480	-37.899865
00859	13937412	-0.235557	9.842467	0.321437				-0.004475	0.000881	-0.002483				87.635527	1.313200	-37.899638
00860	13937462	-0.209023	9.801506	0.322241				-0.002017	0.001115	-0.001498				87.637341	1.312839	-37.899609
00861	13937512	-0.233100	9.824469	0.290272				-0.004704	-0.002802	0.002372				87.635977	1.312127	-37.900386
00862	13937562	-0.238633	9.822646	0.327269				-0.006341	-0.000897	-0.002043				87.636542	1.311901	-37.900907
00863	13937612	-0.227582	9.826024	0.333083				-0.004660	-0.001521	-0.003553				87.635203	1.312902	-37.901383
00864	13937662	-0.230947	9.809632	0.315793				0.000987	0.002564	0.000396				87.637864	1.312014	-37.900872
00865	13937712	-0.216330	9.821939	0.314328				-0.003213	-0.003454	0.002138				87.636929	1.311362	-37.901839
00866	13937762	-0.227039	9.821106	0.313325				-0.007550	-0.001077	-0.000495				87.637138	1.310691	-37.902394
00867	13937812	-0.237922	9.821070	0.322612				-0.002467	0.000072	-0.002751				87.636438	1.311482	-37.902407
00868	13937862	-0.214327	9.815545	0.299760				-0.002908	-0.000191	-0.001597				87.637974	1.311134	-37.902714
00869	13937912	-0.220160	9.827794	0.316143				-0.004207	-0.000837	-0.005703				87.636757	1.312758	-37.903018
00870	13937962	-0.226597	9.806390	0.329831				-0.006783	0.002904	-0.002946				87.637209	1.312825	-37.902488
00871	13938012	-0.222327	9.814900	0.319713				-0.006325	0.001524	-0.002477				87.635417	1.313557	-37.902081
00872	13938062	-0.241427	9.806324	0.307085				-0.003633	0.002380	-0.003695				87.636758	1.313838	-37.901700
00873	13938112	-0.243281	9.817628	0.326226				-0.002588	0.002214	0.000662				87.636042	1.313674	-37.901068
00874	13938162	-0.243415	9.805186	0.332989				-0.005001	0.003427	-0.001057				87.637008	1.313211	-37.900352
00875	13938212	-0.220592	9.813740	0.319473				-0.004432	0.001661	-0.000299				87.635752	1.313317	-37.899881
00876	13938262	-0.217466	9.803257	0.324894				-0.003698	-0.000658	-0.002018				87.637064	1.313083	-37.900357
00877	13938312	-0.236923	9.810402	0.307572				-0.004496	0.001627	0.001562				87.635785	1.312655	-37.899865
00878	13938362	-0.239300	9.802854	0.318303				-0.002060	0.000373	-0.003072				87.637592	1.312739	-37.900044
00879	13938412	-0.209939	9.806864	0.312387				-0.003164	0.002105	0.000114				87.636704	1.312731	-37.899447
00880	13938462	-0.227213	9.814644	0.317527				-0.003091	0.002915	0.000475				87.638176	1.311827	-37.898842
00881	13938512	-0.225590	9.802684	0.324766				-0.003406	-0.000818	-0.004036				87.637189	1.312969	-37.899132
00882	13938562	-0.228458	9.823473	0.328119				-0.003619	0.000154	-0.001243				87.638547	1.312529	-37.899367
00883	13938612	-0.222268	9.808585	0.329349				-0.007276	-0.001784	-0.000600				87.636454	1.312679	-37.899885
00884	13938662	-0.224872	9.806631	0.315714				-0.005393	0.001475	-0.002544				87.637288	1.312623	-37.899731
00885	13938712	-0.221231	9.813406	0.309734				-0.000817	0.000722	-0.000761				87.637061	1.312853	-37.899534
00886	13938762	-0.230126	9.803019	0.330426				-0.001618	0.001472	-0.004478				87.638987	1.313347	-37.899414
00887	13938812	-0.228972	9.803096	0.310609				-0.001787	0.002968	0.000215				87.638490	1.313318	-37.898562
00888	13938862	-0.227620	9.814999	0.324317				-0.006007	0.002696	-0.002020				87.639173	1.313125	-37.898047
00889	13938912	-0.208721	9.811342	0.315594				-0.003921	0.001307	-0.004378				87.638054	1.314393	-37.897724
00890	13938962	-0.214629	9.803789	0.323792				-0.007609	0.001465	-0.005168				87.638259	1.315086	-37.897631
00891	13939012	-0.237366	9.830284	0.340818				-0.003637	0.000671	-0.002258				87.637217	1.315737	-37.897469
00892	13939062	-0.231590	9.815075	0.316387				-0.003999	0.001889	-0.003637				87.638468	1.316004	-37.897253
00893	13939112	-0.233515	9.839819	0.325182				-0.000725	0.002211	0.001977				87.638277	1.315462	-37.896601
00894	13939162	-0.227415	9.820977	0.305985				-0.001416	-0.000445	0.002793				87.640254	1.313855	-37.896952
00895	13939212	-0.225819	9.805251	0.327656				-0.005196	-0.000650	-0.000532				87.638752	1.313997	-37.897142
00896	13939262	-0.237764	9.817762	0.321446				-0.002261	-0.002307	0.000863				87.640468	1.312923	-37.898030
00897	13939312	-0.244055	9.812169	0.325649				-0.006520	0.002556	-0.002596				87.638615	1.313694	-37.897327
00898	13939362	-0.227324	9.820996	0.320688				-0.005115	0.001102	0.001722				87.639531	1.312412	-37.897227
00899	13939412	-0.213337	9.815982	0.333369				-0.005172	-0.000421	-0.000052				87.638031	1.312422	-37.897335
00900	13939462	-0.243683	9.828903	0.317580				-0.002258	0.004732	-0.002948				87.639814	1.312521	-37.896300
00901	13939512	-0.239952	9.830488	0.325287				-0.003263	-0.000069	-0.002812				87.638876	1.313325	-37.896353
00902	13939562	-0.220004	9.818908	0.323463				-0.002145	0.001282	-0.000052				87.640655	1.312559	-37.896234
00903	13939612	-0.220979	9.807687	0.327154				-0.005254	0.002326	-0.000677				87.639166	1.312784	-37.895573
00904	13939662	-0.226102	9.814929	0.330477				-0.002195	0.001992	0.000693				87.640918	1.311805	-37.895253
00905	13939712	-0.225547	9.805777	0.324506				-0.002924	-0.000613	-0.002272				87.640066	1.312448	-37.895452
00906	13939762	-0.241751	9.808481	0.320308				-0.005117	0.002004	-0.000646				87.641001	1.311853	-37.895123
00907	13939812	-0.207582	9.808292	0.329478				-0.004842	0.002194	-0.004017				87.639624	1.313031	-37.894539
00908	13939862	-0.227362	9.815943	0.309836				-0.001176	-0.001397	-0.004625				87.641672	1.313536	-37.895237
00909	13939912	-0.224995	9.801627	0.316950				0.000330	-0.001467	-0.004403				87.641746	1.314778	-37.895703
00910	13939962	-0.218962	9.820863	0.320367				-0.003663	-0.000427	0.001707				87.643072	1.313482	-37.896059
00911	13940012	-0.221415	9.809423	0.337246				-0.005903	0.001305	-0.002255				87.641387	1.314139	-37.895718
00912	13940062	-0.217129	9.811447	0.332787				-0.001769	0.002085	-0.003610				87.643278	1.314398	-37.895409
00913	13940112	-0.230400	9.811333	0.298076				-0.000133	0.002480	0.000369				87.643247	1.314319	-37.894692
00914	13940162	-0.233350	9.802522	0.328817				-0.000899	-0.003704	0.001137				87.645354	1.313152	-37.895989
00915	13940212	-0.239066	9.814872	0.338972				-0.005339	0.001998	-0.001000				87.643831	1.313459	-37.895426
00916	13940262	-0.242227	9.811604	0.317646				-0.004295	0.001438	-0.000045				87.645007	1.312689	-37.895262
00917	13940312	-0.228705	9.834603	0.313990				-0.005335	0.002803	-0.000771				87.643505	1.312946	-37.894469
00918	13940362	-0.226601	9.808884	0.306451				-0.001599	-0.000843	0.000126				87.645430	1.312098	-37.894962
00919	13940412	-0.231653	9.789598	0.307027				-0.001779	-0.001558	-0.001767				87.644910	1.312587	-37.895426
00920	13940462	-0.221868	9.821804	0.303326				-0.001206	-0.001559	-0.004241				87.646927	1.312979	-37.896174
00921	13940512	-0.223485	9.799029	0.317541				-0.004046	0.002672	-0.000424				87.645790	1.313131	-37.895425
00922	13940562	-0.211414	9.799742	0.327144				-0.006244	-0.001124	-0.002012				87.646384	1.312899	-37.896003
00923	13940612	-0.238767	9.812118	0.333654				-0.003623	0.003422	-0.000228				87.645385	1.313006	-37.895032
00924	13940662	-0.222026	9.829067	0.324235				-0.003374	-0.000556	-0.000800				87.646770	1.312418	-37.895446
00925	13940712	-0.225974	9.835609	0.327850				-0.004040	0.001146	-0.002902				87.645615	1.313260	-37.895153
00926	13940762	-0.225411	9.811481	0.323790				-0.003200	0.000934	-0.002939				87.647090	1.313316	-37.895179
00927	13940812	-0.234846	9.819986	0.302955				-0.001859	-0.001206	-0.003117				87.646555	1.314197	-37.895564
00928	13940862	-0.232717	9.817757	0.310809				-0.001778	0.001901	0.001010				87.648437	1.313124	-37.895261
00929	13940912	-0.231853	9.820317	0.314497				-0.006042	-0.002249	0.000035				87.646696	1.313087	-37.895909
00930	13940962	-0.230974	9.817643	0.335291				-0.003266	0.001129	-0.000182				87.648143	1.312355	-37.895836
00931	13941012	-0.224690	9.825846	0.330958				-0.003415	-0.001366	-0.001927				87.647165	1.312891	-37.896262
00932	13941062	-0.218628	9.813331	0.316826				-0.006108	-0.003217	0.000735				87.647777	1.311844	-37.897440
00933	13941112	-0.223409	9.806642	0.315875				-0.003671	-0.002797	-0.005043				87.646702	1.313256	-37.898298
00934	13941162	-0.211876	9.797163	0.309358				-0.004852	0.001915	0.002139				87.647699	1.311861	-37.897973
00935	13941212	-0.210504	9.798147	0.339290				-0.003713	0.000152	-0.000027				87.646651	1.311873	-37.897936
00936	13941262	-0.224067	9.826156	0.311773				-0.004333	0.000136	-0.002811				87.647772	1.311874	-37.898184
00937	13941312	-0.234844	9.810581	0.328085				-0.002291	0.002896	-0.000748				87.647135	1.312122	-37.897358
00938	13941362	-0.226008	9.804649	0.320107				-0.001577	0.001185	-0.002269				87.649080	1.311986	-37.897316
00939	13941412	-0.219353	9.810038	0.314377				-0.003424	0.000927	-0.003647				87.648112	1.313044	-37.897097
00940	13941462	-0.239126	9.826011	0.324112				-0.005209	0.000836	-0.000913				87.648999	1.312510	-37.897114
00941	13941512	-0.222338	9.797735	0.325432				-0.002535	0.000429	-0.000634				87.648271	1.312695	-37.896994
00942	13941562	-0.227773	9.829779	0.319527				-0.006118	-0.000897	-0.002652				87.648905	1.312644	-37.897557
00943	13941612	-0.218146	9.798852	0.302128				-0.002582	0.000788	-0.000632				87.648169	1.312836	-37.897340
00944	13941662	-0.233306	9.829350	0.312268				-0.002015	-0.000817	0.001378				87.649967	1.311624	-37.897826
00945	13941712	-0.235430	9.818747	0.321447				-0.005656	-0.003504	-0.000998				87.648314	1.311865	-37.898838
00946	13941762	-0.240693	9.800133	0.324595				-0.004955	-0.002260	0.000162				87.649262	1.310995	-37.899723
00947	13941812	-0.226536	9.810047	0.323577				-0.004515	-0.002256	-0.001955				87.647955	1.311528	-37.900393
00948	13941862	-0.242789	9.821987	0.305129				-0.001454	0.002553	-0.001362				87.649928	1.311147	-37.899937
00949	13941912	-0.226509	9.810786	0.337146				-0.001948	-0.000310	-0.003365				87.649374	1.312108	-37.900069
00950	13941962	-0.217262	9.814427	0.308410				-0.005985	-0.002024	-0.000704				87.650024	1.311483	-37.900909
00951	13942012	-0.237675	9.828307	0.315091				-0.000986	0.002011	-0.001496				87.649747	1.311931	-37.900357
00952	13942062	-0.213625	9.819805	0.300567				-0.007570	0.002544	0.000128				87.649999	1.311129	-37.899882
00953	13942112	-0.210084	9.807537	0.330086				-0.001448	0.003459	-0.000717				87.649597	1.311372	-37.898904
00954	13942162	-0.221802	9.793274	0.322526				-0.002374	0.001241	-0.002236				87.651294	1.311224	-37.898836
00955	13942212	-0.217738	9.819695	0.319679				-0.006349	0.003732	0.001927				87.649506	1.310716	-37.897747
00956	13942262	-0.225932	9.816998	0.319417				-0.003799	0.002731	-0.002993				87.650828	1.310811	-37.897256
00957	13942312	-0.215572	9.805124	0.328531				-0.005648	0.001475	-0.000394				87.649222	1.310939	-37.896841
00958	13942362	-0.237833	9.835041	0.324416				-0.007083	0.004359	-0.002267				87.649595	1.310836	-37.895867
00959	13942412	-0.231262	9.830663	0.321146				-0.003007	-0.000030	-0.000568				87.648733	1.310997	-37.895879
00960	13942462	-0.242754	9.816198	0.326802				-0.003157	0.001912	0.001463				87.650216	1.309799	-37.895572
00961	13942512	-0.214197	9.791579	0.331444				-0.005635	0.003091	-0.000675				87.648619	1.310026	-37.894697
00962	13942562	-0.231446	9.804094	0.321264				-0.007540	-0.002825	-0.002174				87.648825	1.309815	-37.895749
00963	13942612	-0.225768	9.798890	0.324693				-0.002114	0.001789	-0.004669				87.648232	1.311174	-37.895291
00964	13942662	-0.227285	9.822787	0.311821				-0.003148	0.000584	0.000495				87.649712	1.310234	-37.895369
00965	13942712	-0.224725	9.816279	0.320646				-0.003374	0.000351	-0.002204				87.648747	1.310870	-37.895290
00966	13942762	-0.223772	9.816344	0.317612				-0.006518	0.001360	-0.003181				87.649263	1.310997	-37.895169
00967	13942812	-0.227792	9.823981	0.310847				-0.004949	-0.000384	-0.000345				87.647848	1.311089	-37.895286
00968	13942862	-0.236383	9.813135	0.330621				-0.005718	0.000569	-0.002450				87.648597	1.310999	-37.895426
00969	13942912	-0.219653	9.799431	0.340802				-0.005659	0.001924	-0.001967				87.646994	1.311586	-37.894901
00970	13942962	-0.234554	9.822334	0.320195				-0.004155	-0.000050	0.000108				87.648178	1.310752	-37.895167
00971	13943012	-0.218757	9.789987	0.323224				-0.003531	0.000181	-0.004099				87.647171	1.311929	-37.895163
00972	13943062	-0.226276	9.816667	0.341046				-0.005594	0.000568	-0.002770				87.647955	1.311929	-37.895290
00973	13943112	-0.233763	9.795527	0.321195				-0.004862	0.000776	-0.002035				87.646571	1.312522	-37.895094
00974	13943162	-0.217550	9.809611	0.328194				-0.000815	0.000463	-0.002050				87.648719	1.312307	-37.895255
00975	13943212	-0.214306	9.792676	0.337148				-0.003786	-0.001857	-0.002670				87.647625	1.313051	-37.895822
00976	13943262	-0.224915	9.823381	0.306010				-0.003019	0.003659	-0.000005				87.649166	1.312294	-37.895009
00977	13943312	-0.211499	9.810964	0.322267				-0.002661	0.001240	0.000075				87.648415	1.312290	-37.894653
00978	13943362	-0.243690	9.827990	0.331003				-0.002151	-0.000727	-0.001215				87.650178	1.311822	-37.895145
00979	13943412	-0.246222	9.818692	0.331530				-0.003576	0.000899	0.000273				87.649164	1.311758	-37.894886
00980	13943462	-0.216844	9.803616	0.302565				-0.000829	0.001003	-0.002269				87.651303	1.311620	-37.894872
00981	13943512	-0.227999	9.814965	0.310866				-0.002812	0.001813	-0.002778				87.650499	1.312437	-37.894378
00982	13943562	-0.233876	9.822422	0.315158				-0.004137	-0.001530	0.002509				87.651689	1.310896	-37.895024
00983	13943612	-0.220037	9.808130	0.314661				-0.005288	-0.000010	-0.002874				87.650170	1.311721	-37.895053
00984	13943662	-0.230430	9.811909	0.322727				-0.008377	-0.000615	-0.003673				87.650142	1.311959	-37.895551
00985	13943712	-0.242309	9.819891	0.303420				-0.002126	0.000433	-0.002914				87.649536	1.312796	-37.895464
00986	13943762	-0.208260	9.803082	0.343844				-0.004466	0.000590	-0.001148				87.650660	1.312334	-37.895566
00987	13943812	-0.236301	9.817648	0.345897				-0.003713	0.001153	-0.001300				87.649611	1.312721	-37.895252
00988	13943862	-0.217715	9.818491	0.337167				-0.003372	0.001352	-0.002041				87.651012	1.312517	-37.895139
00989	13943912	-0.230453	9.819369	0.331217				-0.003657	0.000511	0.000206				87.649963	1.312463	-37.894994
00990	13943962	-0.226041	9.828975	0.311816				-0.003151	0.004455	-0.002731				87.651488	1.312497	-37.894008
00991	13944012	-0.227145	9.818628	0.320203				-0.004599	0.001489	-0.003445				87.650175	1.313501	-37.893616
00992	13944062	-0.214556	9.808758	0.324129				0.000458	0.000934	0.000804				87.652684	1.312475	-37.893600
00993	13944112	-0.219063	9.811396	0.318512				-0.003925	0.000862	0.001426				87.651570	1.312080	-37.893338
00994	13944162	-0.229537	9.814391	0.331730				-0.004446	-0.001286	-0.001951				87.652686	1.311827	-37.893965
00995	13944212	-0.225976	9.806295	0.321181				-0.004404	0.001727	-0.000235				87.651451	1.311920	-37.893478
00996	13944262	-0.219797	9.807040	0.308519				-0.007924	-0.000639	-0.002586				87.651536	1.311847	-37.893934
00997	13944312	-0.223152	9.821027	0.321607				-0.005105	0.000347	-0.003386				87.650071	1.312824	-37.893868
00998	13944362	-0.233880	9.819104	0.314761				-0.004820	0.002851	0.000926				87.651097	1.311785	-37.893297
00999	13944412	-0.233780	9.806908	0.337227				-0.003348	0.000641	-0.001878				87.650152	1.312330	-37.893141
01000	13944462	-0.232377	9.815911	0.322985				-0.001664	0.000928	-0.003230				87.652051	1.312462	-37.893157
01001	13944512	-0.237162	9.804760	0.319486				-0.002433	-0.000990	-0.001635				87.651353	1.312917	-37.893463
01002	13944562	-0.238544	9.813817	0.331440				-0.001229	0.003687	-0.001355				87.653413	1.312554	-37.892669
01003	13944612	-0.240229	9.797309	0.323389				-0.002771	0.002620	-0.003507				87.652623	1.313587	-37.891952
01004	13944662	-0.228854	9.819339	0.303810				-0.001619	-0.001329	-0.000932				87.654565	1.313042	-37.892601
01005	13944712	-0.222287	9.828435	0.334233				-0.000955	0.001175	0.001260				87.654288	1.312692	-37.892250
01006	13944762	-0.225313	9.804235	0.332154				-0.003278	0.002585	-0.000206				87.655768	1.311984	-37.891760
01007	13944812	-0.221288	9.796082	0.325524				-0.006352	0.002794	0.001988				87.653975	1.311449	-37.890941
01008	13944862	-0.246642	9.822211	0.318397				-0.007175	-0.000783	-0.000335				87.654270	1.310734	-37.891410
01009	13944912	-0.230707	9.822695	0.315113				-0.002429	-0.000285	-0.002430				87.653560	1.311424	-37.891515
01010	13944962	-0.238705	9.839091	0.306886				-0.006260	0.004630	-0.002331				87.654194	1.311348	-37.890463
01011	13945012	-0.222303	9.819516	0.312726				-0.003084	0.001229	-0.001846				87.653314	1.311890	-37.890132
01012	13945062	-0.236908	9.840946	0.326743				-0.006256	0.002761	-0.000288				87.653927	1.311207	-37.889598
01013	13945112	-0.227230	9.810187	0.328677				-0.008342	0.002659	0.000578				87.651556	1.311073	-37.888831
01014	13945162	-0.221647	9.793715	0.325400				-0.001014	-0.000450	-0.003208				87.653647	1.311181	-37.889257
01015	13945212	-0.220446	9.808713	0.307271				-0.005138	0.004686	-0.000284				87.652211	1.311319	-37.887915
01016	13945262	-0.217584	9.815771	0.329200				-0.001965	0.001443	-0.000535				87.654039	1.310690	-37.887761
01017	13945312	-0.209908	9.801497	0.337842				-0.003400	0.001023	-0.004448				87.653079	1.311975	-37.887529
01018	13945362	-0.212835	9.800204	0.342083				-0.000218	0.000320	0.003404				87.655392	1.310205	-37.887652
01019	13945412	-0.220415	9.789021	0.338428				-0.004610	-0.001125	-0.001374				87.654054	1.310585	-37.887983
01020	13945462	-0.241642	9.827256	0.334115				-0.002120	0.001179	-0.003710				87.655859	1.310863	-37.887954
01021	13945512	-0.241678	9.804626	0.324515				-0.002437	0.001377	0.000305				87.655177	1.310794	-37.887559
01022	13945562	-0.217968	9.798934	0.327762				-0.003295	0.002329	0.002040				87.656620	1.309439	-37.887108
01023	13945612	-0.226265	9.819427	0.330948				-0.003408	0.000282	-0.002911				87.655645	1.310274	-37.887067
01024	13945662	-0.218478	9.809409	0.325458				-0.003930	0.001728	-0.002548				87.656924	1.310226	-37.886854
01025	13945712	-0.236616	9.816227	0.314719				-0.004888	0.001614	-0.003860				87.655536	1.311352	-37.886435
01026	13945762	-0.235697	9.805042	0.317626				0.000945	0.002918	-0.000405				87.658208	1.310698	-37.885878
01027	13945812	-0.222670	9.820176	0.315808				-0.002129	0.002967	0.003006				87.657611	1.309871	-37.884994
01028	13945862	-0.218310	9.800474	0.320181				-0.004286	-0.002252	-0.000963				87.658753	1.309321	-37.885915
01029	13945912	-0.235786	9.804222	0.325054				-0.005394	-0.000558	-0.002141				87.657203	1.309925	-37.886104
01030	13945962	-0.219684	9.799314	0.317837				-0.007370	0.002285	-0.000355				87.657492	1.309253	-37.885711
01031	13946012	-0.212313	9.802829	0.310768				-0.005197	-0.001073	-0.003070				87.655999	1.310119	-37.886060
01032	13946062	-0.230057	9.811773	0.331510				-0.006844	0.001105	0.001916				87.656420	1.308782	-37.885972
01033	13946112	-0.229894	9.793377	0.309666				-0.004512	0.000941	-0.002679				87.655122	1.309559	-37.885729
01034	13946162	-0.217692	9.826200	0.313488				-0.006033	0.000238	-0.002422				87.655780	1.309457	-37.885955
01035	13946212	-0.217730	9.811622	0.321070				-0.002661	-0.001935	-0.002120				87.654998	1.310045	-37.886522
01036	13946262	-0.232072	9.812439	0.317379				-0.003827	-0.001600	-0.002759				87.656285	1.310012	-37.887271
01037	13946312	-0.236454	9.825970	0.313752				-0.003276	-0.001784	-0.002278				87.655335	1.310643	-37.887809
01038	13946362	-0.234769	9.826757	0.310213				-0.006742	0.001486	-0.003213				87.655786	1.310775	-37.887670
01039	13946412	-0.227153	9.813575	0.340363				-0.004172	0.000402	-0.001365				87.654591	1.311170	-37.887574
01040	13946462	-0.212429	9.803801	0.339825				-0.005395	-0.000262	0.000364				87.655438	1.310262	-37.887894
01041	13946512	-0.220527	9.812292	0.336871				-0.002737	0.003529	-0.003247				87.654682	1.311237	-37.886922
01042	13946562	-0.222133	9.805245	0.315111				-0.002431	0.003114	-0.001936				87.656391	1.311025	-37.886294
01043	13946612	-0.226191	9.806464	0.309856				-0.002842	-0.000258	-0.001343				87.655560	1.311407	-37.886375
01044	13946662	-0.223871	9.815245	0.342677				-0.001309	-0.001068	-0.001672				87.657580	1.311075	-37.886962
01045	13946712	-0.213688	9.815538	0.315843				-0.005703	0.002054	-0.002602				87.655957	1.311844	-37.886402
01046	13946762	-0.204555	9.797480	0.325670				-0.006002	-0.001998	-0.004008				87.656613	1.312167	-37.887272
01047	13946812	-0.237228	9.816155	0.318808				-0.002930	0.001787	0.000979				87.655777	1.311906	-37.886747
01048	13946862	-0.222513	9.803592	0.299094				-0.004791	-0.000219	0.000555				87.656800	1.310948	-37.887061
01049	13946912	-0.234621	9.813027	0.323786				-0.004348	0.000890	0.001009				87.655544	1.310666	-37.886790
01050	13946962	-0.232127	9.823657	0.313000				-0.003038	0.002005	-0.001523				87.657083	1.310326	-37.886495
01051	13947012	-0.229561	9.796253	0.323308				-0.004654	0.002266	-0.003636				87.655773	1.311393	-37.885897
01052	13947062	-0.226685	9.786583	0.322079				-0.005433	-0.000103	-0.000147				87.656600	1.310638	-37.886179
01053	13947112	-0.225095	9.804984	0.330037				-0.003210	0.003394	-0.001707				87.655713	1.311165	-37.885237
01054	13947162	-0.233602	9.805517	0.319684				-0.002849	0.004271	-0.001349				87.657304	1.310797	-37.884284
01055	13947212	-0.224525	9.802030	0.322056				-0.002340	0.003245	-0.001676				87.656654	1.311317	-37.883373
01056	13947262	-0.235669	9.821237	0.328866				-0.003786	0.002778	0.003427				87.657980	1.309569	-37.882777
01057	13947312	-0.231107	9.822373	0.304725				-0.008291	0.001977	-0.002148				87.655616	1.310208	-37.882234
01058	13947362	-0.211556	9.798382	0.307392				-0.001616	0.003580	-0.002547				87.657557	1.310178	-37.881504
01059	13947412	-0.226133	9.808383	0.308370				-0.001623	0.001968	0.000561				87.657108	1.310039	-37.880939
01060	13947462	-0.233782	9.824911	0.322825				-0.002580	-0.000147	0.001228				87.658736	1.308884	-37.881207
01061	13947512	-0.239255	9.837804	0.313089				-0.005516	0.002217	-0.003017				87.657177	1.309770	-37.880618
01062	13947562	-0.232393	9.817871	0.319045				-0.004060	0.001920	-0.001744				87.658395	1.309492	-37.880328
01063	13947612	-0.227885	9.821982	0.317563				-0.005037	0.000355	-0.002391				87.656964	1.310184	-37.880251
01064	13947662	-0.226648	9.810272	0.324341				-0.006512	0.000095	-0.004444				87.657496	1.310654	-37.880536
01065	13947712	-0.233809	9.797598	0.325309				-0.004971	-0.003138	-0.004175				87.656062	1.311813	-37.881491
01066	13947762	-0.240612	9.821155	0.314987				-0.006019	0.002249	0.000605				87.656721	1.310868	-37.881080
01067	13947812	-0.231969	9.819871	0.328246				0.000498	0.001550	-0.001632				87.656870	1.311351	-37.880664
01068	13947862	-0.235674	9.818762	0.320406				-0.002373	0.001273	-0.001367				87.658591	1.310962	-37.880563
01069	13947912	-0.220497	9.808476	0.307496				-0.004128	-0.001284	-0.002529				87.657394	1.311671	-37.880960
01070	13947962	-0.212746	9.811740	0.316990				-0.003603	0.000346	-0.002719				87.658757	1.311657	-37.881136
01071	13948012	-0.233380	9.826526	0.326650				-0.001805	0.002642	-0.000942				87.658250	1.311956	-37.880388
01072	13948062	-0.235021	9.812095	0.322360				-0.003961	0.000928	0.001233				87.659518	1.310816	-37.880356
01073	13948112	-0.212607	9.812966	0.329931				-0.003085	0.000416	-0.002079				87.658635	1.311416	-37.880257
01074	13948162	-0.231482	9.805001	0.324118				-0.007926	0.000627	-0.001391				87.658760	1.311022	-37.880359
01075	13948212	-0.212404	9.797791	0.329145				-0.009152	0.003031	-0.001021				87.656146	1.311347	-37.879498
01076	13948262	-0.222154	9.806396	0.317307				-0.005328	0.000446	-0.001329				87.657006	1.310930	-37.879646
01077	13948312	-0.215850	9.812847	0.319948				-0.006378	0.000107	-0.001460				87.655188	1.311350	-37.879642
01078	13948362	-0.221128	9.813389	0.326661				-0.004002	0.002117	-0.001357				87.656420	1.310959	-37.879289
01079	13948412	-0.232372	9.810285	0.334310				-0.003988	-0.001541	-0.002724				87.655262	1.311721	-37.879756
01080	13948462	-0.224135	9.816426	0.311414				-0.006316	-0.002676	-0.000191				87.655852	1.310945	-37.880805
01081	13948512	-0.228868	9.818324	0.307679				-0.002359	-0.000111	-0.000285				87.655177	1.311022	-37.880848
01082	13948562	-0.247851	9.832738	0.296346				-0.002650	0.003987	-0.001412				87.656813	1.310679	-37.879991
01083	13948612	-0.230506	9.829330	0.331218				-0.003351	0.002575	-0.004855				87.655865	1.312097	-37.879313
01084	13948662	-0.230170	9.806445	0.323770				-0.004579	-0.001424	-0.005769				87.656933	1.312930	-37.880045
01085	13948712	-0.206228	9.800042	0.311737				-0.004706	0.002371	0.001657				87.655602	1.312482	-37.879352
01086	13948762	-0.248911	9.820384	0.311536				-0.008253	-0.000022	0.000727				87.655637	1.311472	-37.879613
01087	13948812	-0.219436	9.797966	0.328052				-0.004134	0.001442	0.001077				87.654463	1.311181	-37.879188
01088	13948862	-0.240894	9.827180	0.308531				-0.004955	-0.001129	-0.000569				87.655404	1.310532	-37.879758
01089	13948912	-0.221000	9.824801	0.324951				-0.005685	-0.000270	-0.000278				87.653778	1.310607	-37.879844
01090	13948962	-0.230546	9.817101	0.308728				-0.003313	0.000744	0.000239				87.655217	1.309745	-37.879891
01091	13949012	-0.221164	9.815018	0.328393				-0.006511	0.001328	-0.001579				87.653366	1.310216	-37.879529
01092	13949062	-0.234039	9.818995	0.306384				-0.005420	0.002749	0.003684				87.654224	1.308393	-37.878954
01093	13949112	-0.225231	9.797551	0.334740				-0.001472	0.002260	-0.000496				87.653809	1.308559	-37.878309
01094	13949162	-0.244395	9.808143	0.324602				-0.001417	0.001452	-0.000179				87.655811	1.307827	-37.878147
01095	13949212	-0.234538	9.832293	0.320488				-0.005307	0.003538	-0.006542				87.654306	1.309740	-37.877203
01096	13949262	-0.220193	9.808125	0.330195				-0.002649	0.000620	-0.003845				87.655935	1.310052	-37.877332
01097	13949312	-0.215300	9.822942	0.327249				0.000335	-0.000326	-0.001801				87.656034	1.310564	-37.877444
01098	13949362	-0.222932	9.806889	0.316046				-0.002974	0.001743	-0.003606				87.657566	1.310809	-37.877286
01099	13949412	-0.236421	9.811234	0.315669				-0.002194	0.000894	0.002352				87.656940	1.310145	-37.876999
01100	13949462	-0.228837	9.810229	0.309867				-0.003009	0.002041	-0.001874				87.658484	1.309908	-37.876699
01101	13949512	-0.215263	9.813592	0.302318				-0.001239	-0.002520	-0.002354				87.658107	1.310551	-37.877443
01102	13949562	-0.230250	9.801414	0.326884				-0.003506	-0.002494	-0.000486				87.659487	1.309862	-37.878424
01103	13949612	-0.208370	9.790080	0.309662				-0.007077	0.001062	-0.001132				87.657479	1.310200	-37.878140
01104	13949662	-0.233629	9.803458	0.314433				-0.003632	-0.003156	-0.007129				87.658766	1.311399	-37.879353
