// General information: 
//  MT Manager version: 2022.0.0 
//  XDA version: 2022.0.0 build 7085 rev 119802 built on 2022-11-08
// Device information: 
//  DeviceId: 037004D1
//  ProductCode: MTi-300-2A5G4
//  Firmware Version: 1.4.1
//  Hardware Version: 2.1.0
// Device settings: 
//  Filter Profile: general(39.16)
//  Option Flags: Orientation Smoother Disabled, Position/Velocity Smoother Disabled, Continuous Zero Rotation Update Disabled, AHS Disabled, ICC Disabled
// Coordinate system: ENU
PacketCounter	SampleTimeFine	Acc_X	Acc_Y	Acc_Z	AccHR_X	AccHR_Y	AccHR_Z	Gyr_X	Gyr_Y	Gyr_Z	GyrHR_X	GyrHR_Y	GyrHR_Z	Roll	Pitch	Yaw
00001	632398	-0.224558	9.828530	0.281515				-0.004291	-0.001703	0.002363				87.990852	1.668922	-43.621022
00002	632448	-0.237066	9.836176	0.313748				-0.003885	0.003693	-0.001233				87.989759	1.669313	-43.619968
00003	632498	-0.231512	9.816659	0.291815				-0.000405	0.001846	-0.002854				87.992031	1.669507	-43.619812
00004	632548	-0.227309	9.826777	0.300731				-0.002910	0.002325	0.000934				87.991202	1.669262	-43.619123
00005	632598	-0.226961	9.819935	0.298277				-0.001043	0.001967	0.000288				87.993300	1.668559	-43.618866
00006	632648	-0.211206	9.829511	0.290049				-0.002278	0.002196	-0.003140				87.992668	1.669482	-43.618269
00007	632698	-0.223749	9.803650	0.295448				-0.004354	0.004300	-0.001647				87.993846	1.669349	-43.617368
00008	632748	-0.214592	9.819836	0.299564				-0.000194	-0.001639	0.000971				87.993773	1.669051	-43.617832
00009	632798	-0.222815	9.812784	0.288956				-0.004599	-0.000361	-0.001927				87.994825	1.668955	-43.618267
00010	632848	-0.215424	9.804162	0.284590				-0.003848	-0.000031	-0.005333				87.993715	1.670484	-43.618328
00011	632898	-0.227509	9.807029	0.288951				-0.003915	0.002597	-0.000503				87.994985	1.669998	-43.617890
00012	632948	-0.222555	9.807251	0.293902				-0.001006	-0.000459	-0.001300				87.994698	1.670364	-43.618038
00013	632998	-0.216554	9.804238	0.294262				-0.004806	-0.003048	-0.002232				87.995661	1.670321	-43.619252
00014	633048	-0.246432	9.820453	0.295156				0.001246	-0.002238	-0.006541				87.995997	1.672171	-43.619957
00015	633098	-0.221547	9.802547	0.292331				-0.004447	0.001066	-0.001025				87.997103	1.671822	-43.619971
00016	633148	-0.231299	9.813856	0.304354				-0.004771	0.003287	-0.000914				87.995759	1.672118	-43.619033
00017	633198	-0.237748	9.827415	0.312667				0.000216	0.002307	-0.004429				87.998198	1.672746	-43.618701
00018	633248	-0.239439	9.817919	0.311603				-0.005077	-0.000371	-0.001345				87.996744	1.673129	-43.618828
00019	633298	-0.234856	9.824320	0.300277				-0.003404	-0.001206	0.002524				87.998125	1.671727	-43.619469
00020	633348	-0.263556	9.826387	0.281253				-0.003561	-0.000897	-0.003888				87.997093	1.672829	-43.619761
00021	633398	-0.240979	9.830037	0.293571				-0.002795	-0.001717	-0.002806				87.998667	1.672956	-43.620597
00022	633448	-0.227972	9.787786	0.290505				-0.005334	-0.000305	-0.000225				87.997148	1.673018	-43.620698
00023	633498	-0.244566	9.814597	0.292130				-0.001672	0.001404	-0.001831				87.999013	1.672885	-43.620613
00024	633548	-0.224155	9.811979	0.278392				-0.003494	0.001276	-0.001504				87.998031	1.673329	-43.620268
00025	633598	-0.223810	9.815517	0.279144				-0.002604	0.000513	-0.001159				87.999671	1.672997	-43.620426
00026	633648	-0.223208	9.802043	0.308168				-0.004092	0.002339	0.001904				87.998515	1.672476	-43.619739
00027	633698	-0.242906	9.822288	0.271370				-0.006379	0.001091	-0.003101				87.999064	1.672708	-43.619778
00028	633748	-0.218742	9.805327	0.298614				-0.007313	0.004701	-0.001606				87.997000	1.673216	-43.618448
00029	633798	-0.224383	9.822754	0.287102				-0.006019	0.003105	-0.001262				87.997679	1.672935	-43.617895
00030	633848	-0.223876	9.818592	0.279898				-0.006182	0.003196	-0.002193				87.995936	1.673592	-43.617000
00031	633898	-0.219284	9.812656	0.283936				-0.003342	0.000305	-0.003661				87.997342	1.673972	-43.617260
00032	633948	-0.221253	9.827653	0.295111				-0.002845	0.000631	-0.006033				87.996523	1.675700	-43.617137
00033	633998	-0.221735	9.824614	0.291308				-0.001922	0.002602	0.001896				87.998393	1.674513	-43.616668
00034	634048	-0.228433	9.806923	0.279482				-0.006840	0.001927	-0.000948				87.996453	1.674802	-43.616122
00035	634098	-0.239399	9.825490	0.281941				-0.007918	-0.001747	-0.001859				87.996535	1.674639	-43.616955
00036	634148	-0.227460	9.826151	0.279615				-0.003412	0.003932	-0.000115				87.995584	1.674711	-43.615828
00037	634198	-0.251636	9.814567	0.303512				-0.005709	-0.000999	-0.004940				87.996327	1.675435	-43.616475
00038	634248	-0.233448	9.824866	0.280535				-0.008587	0.000346	-0.000852				87.993872	1.675684	-43.616390
00039	634298	-0.230375	9.807563	0.282525				-0.003466	0.001401	-0.002434				87.995234	1.675697	-43.616285
00040	634348	-0.236208	9.812973	0.296152				-0.002295	0.005278	0.000729				87.994621	1.675539	-43.614763
00041	634398	-0.219395	9.798972	0.294967				-0.004566	0.003874	-0.001809				87.995711	1.675406	-43.613970
00042	634448	-0.229880	9.812390	0.308656				-0.004247	-0.000418	-0.002377				87.994484	1.676085	-43.614116
00043	634498	-0.226542	9.807752	0.288739				-0.005726	-0.000960	0.001279				87.995211	1.675021	-43.614671
00044	634548	-0.214461	9.804167	0.300007				-0.006160	0.001585	-0.001176				87.993463	1.675375	-43.614233
00045	634598	-0.223459	9.810263	0.297919				-0.007591	-0.001231	-0.006066				87.993656	1.676406	-43.614957
00046	634648	-0.221901	9.807636	0.300238				-0.004505	-0.000164	-0.001286				87.992372	1.676770	-43.615027
00047	634698	-0.227950	9.802658	0.279522				0.000350	0.003179	-0.003243				87.994853	1.677030	-43.614462
00048	634748	-0.233707	9.816468	0.271287				-0.002793	-0.000685	-0.000975				87.994050	1.677306	-43.614670
00049	634798	-0.232365	9.800350	0.303078				-0.001195	0.002310	-0.004621				87.996097	1.677950	-43.614378
00050	634848	-0.239924	9.805091	0.265807				-0.004215	-0.000285	-0.000709				87.994882	1.678149	-43.614468
00051	634898	-0.203296	9.811950	0.281238				-0.006455	0.002871	-0.000913				87.995445	1.677744	-43.613965
00052	634948	-0.217108	9.806312	0.281972				-0.002693	-0.000236	-0.005268				87.994676	1.679249	-43.614094
00053	634998	-0.236842	9.812345	0.290299				-0.006775	-0.001302	-0.000547				87.995059	1.678675	-43.614751
00054	635048	-0.242957	9.809041	0.299796				-0.002878	0.000960	-0.004268				87.994250	1.679909	-43.614518
00055	635098	-0.235824	9.814258	0.305966				-0.000942	0.002517	-0.002851				87.996372	1.680043	-43.614130
00056	635148	-0.231200	9.833465	0.294502				-0.002225	0.000878	-0.000644				87.995751	1.680238	-43.613892
00057	635198	-0.241301	9.804632	0.279204				-0.002801	0.002614	-0.002076				87.997328	1.680149	-43.613428
00058	635248	-0.247593	9.809804	0.292921				-0.004914	0.000573	-0.002144				87.995931	1.680769	-43.613296
00059	635298	-0.240312	9.821273	0.293819				-0.003229	-0.000915	0.001018				87.997386	1.679757	-43.613883
00060	635348	-0.237664	9.822262	0.277416				-0.000857	0.000764	-0.004300				87.997143	1.680993	-43.613695
00061	635398	-0.236654	9.812932	0.283260				-0.003488	0.001109	-0.001537				87.998517	1.680724	-43.613702
00062	635448	-0.240282	9.827833	0.267574				0.001173	0.001588	-0.000585				87.998873	1.680910	-43.613257
00063	635498	-0.232975	9.817637	0.304276				-0.000346	0.002071	-0.001223				88.001142	1.680559	-43.612957
00064	635548	-0.226561	9.804280	0.283233				-0.003734	0.002658	-0.003100				88.000087	1.681474	-43.612223
00065	635598	-0.229614	9.806673	0.279481				-0.006808	0.001699	-0.001431				88.000532	1.681180	-43.612031
00066	635648	-0.220207	9.819053	0.299722				-0.003654	0.001009	-0.003784				87.999502	1.682275	-43.611783
00067	635698	-0.214575	9.795851	0.285606				-0.006291	0.001384	-0.003232				88.000073	1.682494	-43.611710
00068	635748	-0.231947	9.830364	0.295185				-0.001385	0.001506	-0.002503				87.999690	1.683229	-43.611306
00069	635798	-0.203558	9.811802	0.291020				-0.003387	0.002892	-0.001723				88.001109	1.683024	-43.610794
00070	635848	-0.206561	9.799816	0.296588				-0.004724	0.000541	-0.003437				87.999762	1.684017	-43.610666
00071	635898	-0.218186	9.790970	0.307362				-0.004688	-0.001657	-0.001711				88.000777	1.683750	-43.611467
00072	635948	-0.231350	9.806607	0.282090				-0.004847	-0.001822	-0.002929				87.999370	1.684571	-43.612022
00073	635998	-0.213771	9.805488	0.276657				-0.002275	-0.002734	0.001549				88.001076	1.683369	-43.613088
00074	636048	-0.231392	9.806013	0.289764				-0.006433	-0.000072	-0.002179				87.999235	1.683991	-43.613126
00075	636098	-0.235016	9.801654	0.308622				-0.002253	0.001395	-0.003209				88.000969	1.684189	-43.613061
00076	636148	-0.241194	9.807568	0.304884				-0.005485	0.002597	-0.001203				87.999415	1.684559	-43.612319
00077	636198	-0.235831	9.806453	0.288764				-0.004122	0.000781	-0.001057				88.000616	1.684130	-43.612415
00078	636248	-0.221703	9.796498	0.299541				-0.005376	-0.000787	0.001761				87.999066	1.683618	-43.612621
00079	636298	-0.236994	9.806540	0.297366				-0.002279	-0.002108	-0.005312				88.000770	1.684377	-43.613594
00080	636348	-0.232066	9.829551	0.301671				-0.005642	0.000936	-0.005641				87.999160	1.686001	-43.613377
00081	636398	-0.224084	9.833358	0.291995				-0.002459	0.001165	-0.000452				88.000835	1.685397	-43.613340
00082	636448	-0.234557	9.808477	0.297084				-0.002259	-0.000350	-0.002576				88.000174	1.686128	-43.613465
00083	636498	-0.222080	9.800191	0.306168				-0.002948	0.002254	-0.002526				88.001722	1.686129	-43.613144
00084	636548	-0.246007	9.812466	0.305805				-0.002453	-0.001062	0.000759				88.001005	1.685900	-43.613441
00085	636598	-0.246442	9.813405	0.275505				-0.006753	-0.001407	-0.005070				88.001429	1.686583	-43.614177
00086	636648	-0.229573	9.811083	0.301009				-0.005116	0.001958	-0.002204				87.999988	1.687238	-43.613639
00087	636698	-0.244298	9.817418	0.294092				-0.003916	0.003794	0.002103				88.001264	1.685915	-43.612817
00088	636748	-0.226223	9.802231	0.308774				-0.001096	0.001380	-0.002343				88.000973	1.686599	-43.612447
00089	636798	-0.223273	9.839622	0.286137				-0.006130	0.001816	0.001327				88.001599	1.685483	-43.612171
00090	636848	-0.213471	9.794922	0.285103				-0.004023	0.000983	0.001669				88.000463	1.685018	-43.611879
00091	636898	-0.225464	9.804462	0.302688				-0.005648	0.001496	-0.002365				88.001215	1.684940	-43.611772
00092	636948	-0.216201	9.809118	0.300660				-0.003494	0.002343	-0.001083				88.000235	1.685270	-43.611110
00093	636998	-0.217757	9.823191	0.294294				-0.006027	0.002329	-0.002713				88.000924	1.685322	-43.610759
00094	637048	-0.215842	9.808450	0.298277				-0.004824	0.003037	0.001489				87.999570	1.684925	-43.609877
00095	637098	-0.230544	9.810831	0.286174				-0.005405	0.003625	-0.005686				88.000428	1.685820	-43.609172
00096	637148	-0.232708	9.813097	0.291137				-0.003351	0.001594	-0.004359				87.999491	1.687088	-43.608763
00097	637198	-0.222677	9.796331	0.294291				-0.006042	0.000776	-0.001857				88.000115	1.686853	-43.608833
00098	637248	-0.242945	9.814308	0.296717				-0.001824	-0.001086	-0.002580				87.999576	1.687580	-43.609169
00099	637298	-0.221184	9.810856	0.276452				-0.003711	-0.002388	-0.004189				88.000879	1.687985	-43.610165
00100	637348	-0.236647	9.817601	0.288059				-0.002655	0.002132	-0.001922				88.000129	1.688555	-43.609568
00101	637398	-0.219257	9.808615	0.285326				-0.002001	0.001657	-0.002279				88.001943	1.688452	-43.609388
00102	637448	-0.246553	9.818770	0.296350				-0.007219	0.001466	-0.003161				87.999877	1.689371	-43.608995
00103	637498	-0.263966	9.816984	0.290589				-0.002461	0.002905	-0.004257				88.001583	1.689846	-43.608464
00104	637548	-0.228685	9.803078	0.282537				-0.006440	0.002193	-0.002426				87.999757	1.690562	-43.607855
00105	637598	-0.237883	9.824924	0.289301				-0.004692	0.003073	0.001909				88.000792	1.689263	-43.607251
00106	637648	-0.245320	9.816957	0.292170				-0.004313	-0.004331	-0.001725				87.999512	1.689712	-43.608509
00107	637698	-0.235869	9.808285	0.307945				-0.001528	0.002483	0.004562				88.001471	1.687642	-43.608038
00108	637748	-0.244014	9.805327	0.293060				0.000045	-0.001246	-0.001879				88.001472	1.688168	-43.608417
00109	637798	-0.230599	9.827034	0.296369				-0.003233	0.003520	0.001811				88.002939	1.686898	-43.607691
00110	637848	-0.218733	9.816251	0.297341				-0.002512	0.004683	-0.003897				88.002254	1.688062	-43.606395
00111	637898	-0.238898	9.802123	0.290020				-0.005335	0.000697	-0.001437				88.003110	1.687694	-43.606464
00112	637948	-0.213204	9.824772	0.288209				-0.005268	-0.001404	-0.000394				88.001597	1.687796	-43.606879
00113	637998	-0.222353	9.823303	0.298998				-0.002653	0.000967	-0.002088				88.003221	1.687610	-43.606910
00114	638048	-0.225519	9.815082	0.291380				-0.004138	0.001326	-0.003014				88.002044	1.688482	-43.606553
00115	638098	-0.215831	9.821809	0.278133				-0.003269	-0.001957	-0.003482				88.003462	1.688667	-43.607416
00116	638148	-0.220140	9.826659	0.283483				-0.004712	-0.002012	-0.003093				88.002098	1.689533	-43.608028
00117	638198	-0.226456	9.816069	0.288096				-0.007062	0.002927	-0.000204				88.002450	1.688815	-43.607421
00118	638248	-0.210366	9.799353	0.292528				-0.003944	-0.000770	-0.002161				88.001316	1.689426	-43.607662
00119	638298	-0.237646	9.817896	0.314687				-0.003995	-0.004490	-0.003556				88.002529	1.689609	-43.609263
00120	638348	-0.219324	9.819345	0.296410				-0.003616	-0.000855	-0.000137				88.001486	1.689639	-43.609507
00121	638398	-0.217411	9.803071	0.307474				-0.005904	0.001358	-0.003234				88.002170	1.689769	-43.609435
00122	638448	-0.237581	9.826199	0.298896				-0.006916	0.001153	-0.001141				88.000206	1.690110	-43.609120
00123	638498	-0.222442	9.822643	0.311041				-0.005033	-0.001923	-0.003316				88.001109	1.690232	-43.609992
00124	638548	-0.242904	9.823676	0.304524				-0.007877	0.003005	-0.003763				87.998883	1.691345	-43.609173
00125	638598	-0.250677	9.811883	0.278505				-0.003243	-0.000625	-0.001291				88.000291	1.690884	-43.609647
00126	638648	-0.237085	9.804162	0.297837				-0.002427	0.000066	-0.000711				87.999580	1.691089	-43.609632
00127	638698	-0.237858	9.802205	0.270350				-0.003808	0.004081	-0.002514				88.000908	1.691032	-43.608749
00128	638748	-0.222486	9.809031	0.270452				-0.002044	0.000945	-0.001767				88.000322	1.691543	-43.608492
00129	638798	-0.215381	9.799089	0.259388				-0.000924	-0.002271	-0.002334				88.002409	1.691376	-43.609435
00130	638848	-0.240611	9.822818	0.300166				-0.006485	0.003910	-0.000647				88.000572	1.691600	-43.608311
00131	638898	-0.221905	9.801018	0.313979				0.000907	-0.000164	-0.001174				88.003213	1.691115	-43.608670
00132	638948	-0.223651	9.791355	0.292818				-0.004603	-0.001466	-0.005176				88.001878	1.692584	-43.609143
00133	638998	-0.219509	9.811571	0.292824				-0.004555	0.000515	0.000062				88.002933	1.691748	-43.609276
00134	639048	-0.224323	9.795213	0.288808				-0.006083	-0.000264	-0.003112				88.001196	1.692634	-43.609388
00135	639098	-0.221421	9.815835	0.291760				-0.001539	0.003512	0.000938				88.003160	1.691580	-43.608663
00136	639148	-0.228601	9.812979	0.286289				-0.000722	-0.000395	-0.002710				88.002949	1.692352	-43.608808
00137	639198	-0.224704	9.787360	0.289369				-0.000673	0.003231	-0.001311				88.005165	1.691927	-43.608171
00138	639248	-0.229105	9.821589	0.281736				-0.001276	0.001121	-0.000131				88.004810	1.691975	-43.607844
00139	639298	-0.212552	9.802146	0.294432				-0.003943	-0.002062	-0.003126				88.006024	1.692014	-43.608738
00140	639348	-0.235133	9.811065	0.313564				-0.009397	0.000527	-0.001718				88.003338	1.692512	-43.608608
00141	639398	-0.229426	9.821848	0.295382				-0.001138	0.000602	-0.002353				88.005373	1.692359	-43.608742
00142	639448	-0.237204	9.830426	0.302141				-0.005128	0.001345	-0.001794				88.003913	1.692884	-43.608371
00143	639498	-0.225797	9.795353	0.308745				-0.008588	0.000508	0.000945				88.003812	1.691772	-43.608499
00144	639548	-0.234741	9.821842	0.275870				-0.006041	-0.000027	0.001093				88.002078	1.691459	-43.608497
00145	639598	-0.237969	9.816478	0.283462				-0.002047	-0.000763	0.000985				88.003854	1.690322	-43.608995
00146	639648	-0.238420	9.812036	0.293760				-0.001183	-0.001016	-0.002552				88.003506	1.691044	-43.609310
00147	639698	-0.243989	9.813827	0.281136				-0.001887	0.002210	-0.001089				88.005367	1.690526	-43.608953
00148	639748	-0.236894	9.808220	0.296421				-0.003208	0.003575	-0.001045				88.004480	1.690863	-43.607942
00149	639798	-0.246980	9.808528	0.283283				-0.001647	-0.001267	0.002072				88.006350	1.689404	-43.608548
00150	639848	-0.230598	9.805126	0.284606				-0.001039	0.003775	-0.001115				88.006090	1.689757	-43.607488
00151	639898	-0.234179	9.812380	0.283426				-0.005713	0.000586	-0.001799				88.006822	1.689433	-43.607585
00152	639948	-0.234191	9.818532	0.284297				-0.004055	-0.001288	-0.000431				88.005650	1.689542	-43.607959
00153	639998	-0.229443	9.825818	0.292509				-0.005592	0.001685	-0.003272				88.006440	1.689646	-43.607784
00154	640048	-0.227823	9.818594	0.300812				-0.002439	0.000615	0.000856				88.005744	1.689409	-43.607595
00155	640098	-0.243677	9.825053	0.299489				-0.003814	0.002272	-0.000639				88.007061	1.688757	-43.607185
00156	640148	-0.209981	9.807630	0.318716				-0.005005	-0.002830	-0.001852				88.005615	1.689260	-43.608024
00157	640198	-0.218932	9.812182	0.293063				-0.002458	0.002033	-0.002029				88.007269	1.688992	-43.607728
00158	640248	-0.221865	9.813720	0.283244				-0.001852	-0.002422	-0.004554				88.006713	1.690269	-43.608457
00159	640298	-0.212564	9.802721	0.295960				-0.002585	0.003234	0.001639				88.008382	1.688975	-43.607804
00160	640348	-0.241924	9.806170	0.294866				-0.002267	0.000104	0.001623				88.007729	1.688512	-43.607758
00161	640398	-0.255045	9.830805	0.302109				-0.003161	-0.000408	-0.003542				88.009196	1.688651	-43.608184
00162	640448	-0.239167	9.807592	0.281755				-0.006705	-0.001024	-0.006360				88.007264	1.690465	-43.608539
00163	640498	-0.211438	9.798554	0.274858				-0.003470	0.002795	0.000996				88.008642	1.689330	-43.608004
00164	640548	-0.218934	9.810120	0.288387				-0.005122	-0.000181	-0.003091				88.007179	1.690214	-43.608086
00165	640598	-0.213677	9.789573	0.286448				-0.006302	0.000734	-0.002601				88.007748	1.690095	-43.608175
00166	640648	-0.220642	9.794184	0.289782				-0.004160	0.000806	-0.003086				88.006542	1.690983	-43.607967
00167	640698	-0.234860	9.816608	0.285463				-0.002668	0.001676	0.000158				88.008174	1.690080	-43.607783
00168	640748	-0.210041	9.794922	0.311674				-0.000475	0.000001	-0.000728				88.008043	1.690287	-43.607794
00169	640798	-0.233976	9.807678	0.296258				-0.003777	-0.002426	-0.004193				88.009307	1.690585	-43.608783
00170	640848	-0.233789	9.807105	0.287135				-0.002398	0.002101	-0.001092				88.008622	1.690916	-43.608190
00171	640898	-0.212363	9.799623	0.297408				-0.004793	0.002027	-0.000031				88.009647	1.690058	-43.607854
00172	640948	-0.232489	9.823381	0.294184				-0.005593	-0.000550	-0.003377				88.008042	1.691019	-43.608050
00173	640998	-0.219187	9.817492	0.287051				-0.002410	0.001651	0.000218				88.009743	1.690088	-43.607853
00174	641048	-0.214998	9.808035	0.288102				-0.006033	0.000615	0.000896				88.008029	1.689839	-43.607671
00175	641098	-0.222336	9.818225	0.282565				-0.003711	0.002109	-0.000511				88.009351	1.689118	-43.607312
00176	641148	-0.226274	9.813394	0.285312				-0.006939	0.001925	0.000554				88.007391	1.688982	-43.606758
00177	641198	-0.221372	9.817974	0.284933				-0.002768	0.002643	-0.001220				88.008977	1.688463	-43.606253
00178	641248	-0.212904	9.809175	0.277345				-0.005891	-0.000067	-0.001770				88.007291	1.688968	-43.606287
00179	641298	-0.210472	9.811165	0.288753				-0.006289	0.001150	-0.005136				88.007868	1.689550	-43.606277
00180	641348	-0.217749	9.812737	0.288624				-0.007673	-0.001358	-0.001359				88.005656	1.689926	-43.606679
00181	641398	-0.224554	9.803379	0.290309				-0.004600	0.000766	-0.001804				88.006715	1.689543	-43.606719
00182	641448	-0.234386	9.814837	0.292957				-0.003405	-0.000402	0.000080				88.005740	1.689514	-43.606839
00183	641498	-0.216894	9.801372	0.288122				-0.005887	-0.001004	-0.000433				88.006413	1.688733	-43.607370
00184	641548	-0.234163	9.814518	0.283568				-0.003549	0.003081	-0.001376				88.005417	1.689159	-43.606499
00185	641598	-0.222836	9.798911	0.289038				-0.002984	0.003283	-0.002212				88.006959	1.688913	-43.605840
00186	641648	-0.233688	9.828894	0.289523				-0.001837	-0.003874	-0.002695				88.006403	1.689645	-43.606978
00187	641698	-0.240160	9.824993	0.291325				-0.004423	0.002024	-0.004588				88.007510	1.690061	-43.606720
00188	641748	-0.233649	9.812641	0.282177				-0.003697	0.001594	-0.000899				88.006454	1.690331	-43.606267
00189	641798	-0.238120	9.803492	0.302576				-0.004026	-0.000028	0.001147				88.007694	1.689089	-43.606542
00190	641848	-0.234040	9.801145	0.288816				-0.003174	0.001178	-0.002252				88.006799	1.689746	-43.606228
00191	641898	-0.227279	9.809978	0.290539				-0.003805	0.001813	-0.002342				88.008090	1.689517	-43.605963
00192	641948	-0.224529	9.814819	0.301992				-0.004052	0.000580	-0.002670				88.006936	1.690288	-43.605828
00193	641998	-0.225699	9.810130	0.312547				-0.002513	0.001842	0.000286				88.008590	1.689305	-43.605533
00194	642048	-0.217064	9.812360	0.282993				-0.001782	0.001620	-0.003732				88.008085	1.690384	-43.605105
00195	642098	-0.237972	9.827881	0.290553				-0.005673	0.002298	-0.002946				88.008863	1.690333	-43.604711
00196	642148	-0.205046	9.792571	0.283266				-0.005285	0.001311	0.000575				88.007363	1.690180	-43.604330
00197	642198	-0.233893	9.804662	0.291701				-0.001759	0.001139	-0.002225				88.009229	1.689898	-43.604275
00198	642248	-0.234621	9.821311	0.288340				-0.002792	-0.001183	-0.005791				88.008415	1.691541	-43.604670
00199	642298	-0.232212	9.810167	0.274541				-0.005647	0.000326	-0.002249				88.009172	1.691260	-43.604843
00200	642348	-0.227405	9.829255	0.286665				-0.005227	-0.000598	-0.000205				88.007677	1.691312	-43.605017
00201	642398	-0.230043	9.816353	0.290356				-0.005814	-0.000588	-0.003666				88.008363	1.691422	-43.605472
00202	642448	-0.228460	9.819614	0.295985				-0.002442	0.001153	-0.004403				88.007675	1.692692	-43.605193
00203	642498	-0.229849	9.810679	0.289190				-0.006849	-0.001276	-0.001583				88.008084	1.692197	-43.605828
00204	642548	-0.240276	9.824640	0.283182				-0.006592	0.000825	-0.002498				88.006203	1.692920	-43.605615
00205	642598	-0.226515	9.806678	0.289794				-0.004886	-0.001734	-0.004891				88.007155	1.693367	-43.606429
00206	642648	-0.241214	9.801353	0.300686				-0.003760	0.000627	-0.000041				88.006079	1.693382	-43.606251
00207	642698	-0.233912	9.815183	0.270963				-0.007421	0.003817	-0.001393				88.006349	1.692879	-43.605404
00208	642748	-0.235131	9.817987	0.303976				-0.006286	0.000118	-0.004012				88.004553	1.694032	-43.605417
00209	642798	-0.237421	9.789659	0.277119				-0.003497	0.001175	-0.002506				88.005936	1.693812	-43.605348
00210	642848	-0.244072	9.816059	0.266878				-0.002321	-0.001355	0.000135				88.005266	1.693759	-43.605738
00211	642898	-0.243813	9.815586	0.298261				-0.004289	0.002067	-0.002754				88.006418	1.693618	-43.605417
00212	642948	-0.213551	9.798675	0.296361				-0.001439	0.002182	-0.000072				88.006025	1.693661	-43.604788
00213	642998	-0.222803	9.814814	0.288566				-0.002725	0.001087	-0.002638				88.007642	1.693474	-43.604767
00214	643048	-0.224645	9.812570	0.294070				-0.002086	0.004663	-0.000151				88.007080	1.693563	-43.603430
00215	643098	-0.209655	9.807202	0.300250				-0.003587	0.001137	-0.001676				88.008425	1.693101	-43.603360
00216	643148	-0.227322	9.804511	0.306980				-0.002784	-0.000044	-0.002228				88.007620	1.693736	-43.603399
00217	643198	-0.230293	9.813481	0.307474				-0.000597	0.001843	-0.001197				88.009847	1.693148	-43.603111
00218	643248	-0.230399	9.827054	0.303954				-0.006465	0.002027	-0.000796				88.008020	1.693395	-43.602545
00219	643298	-0.221384	9.810552	0.289180				0.000574	0.002018	-0.004441				88.010559	1.693719	-43.602246
00220	643348	-0.216003	9.801641	0.286612				-0.003159	0.001727	-0.002316				88.009668	1.694399	-43.601776
00221	643398	-0.210439	9.795130	0.297913				-0.006334	-0.000102	-0.001353				88.010210	1.693815	-43.602053
00222	643448	-0.234980	9.805574	0.277903				-0.004824	-0.002469	-0.001370				88.008813	1.694181	-43.602783
00223	643498	-0.227566	9.817301	0.292640				-0.003792	0.004791	-0.000725				88.010153	1.693469	-43.601692
00224	643548	-0.222936	9.811860	0.279560				-0.005967	-0.000681	-0.000937				88.008438	1.693734	-43.601901
00225	643598	-0.212563	9.801878	0.288851				0.000967	0.003230	0.000538				88.011101	1.692633	-43.601184
00226	643648	-0.234209	9.808958	0.274007				-0.004471	0.001971	0.000709				88.009830	1.692450	-43.600611
00227	643698	-0.235010	9.814880	0.289364				-0.003342	-0.001866	-0.003517				88.011242	1.692455	-43.601428
00228	643748	-0.244838	9.831051	0.279121				-0.007097	0.001790	-0.001723				88.009220	1.692966	-43.600934
00229	643798	-0.232821	9.798078	0.288946				0.000974	0.001869	-0.001714				88.011882	1.692492	-43.600628
00230	643848	-0.222107	9.798898	0.290480				-0.003194	-0.001340	-0.001878				88.010949	1.693014	-43.601024
00231	643898	-0.247800	9.818439	0.294657				-0.003189	0.001024	0.002018				88.012431	1.691466	-43.600975
00232	643948	-0.230175	9.812969	0.294593				-0.004227	-0.002137	-0.003033				88.011198	1.692310	-43.601621
00233	643998	-0.241472	9.810616	0.284076				-0.009934	0.001417	0.000080				88.010737	1.691322	-43.601434
00234	644048	-0.241162	9.819676	0.296965				-0.001322	0.003538	-0.000639				88.010391	1.691544	-43.600425
00235	644098	-0.229663	9.816393	0.288119				-0.002465	0.002231	0.000413				88.012077	1.690449	-43.600027
00236	644148	-0.243612	9.829877	0.310351				-0.000240	0.001783	-0.000718				88.012021	1.690672	-43.599521
00237	644198	-0.231626	9.813677	0.293358				-0.003460	-0.000858	-0.000788				88.013399	1.689898	-43.600032
00238	644248	-0.225937	9.810426	0.309185				-0.002945	0.001089	-0.001866				88.012570	1.690447	-43.599741
00239	644298	-0.246217	9.821155	0.289212				0.002206	0.000236	-0.003008				88.015565	1.690304	-43.599941
00240	644348	-0.223519	9.818219	0.282638				-0.005743	-0.000803	-0.001484				88.013921	1.690719	-43.600189
00241	644398	-0.226075	9.801303	0.269683				-0.005207	0.001758	-0.001119				88.014797	1.690061	-43.599950
00242	644448	-0.218967	9.810531	0.292410				-0.005584	0.000392	-0.001669				88.013197	1.690546	-43.599845
00243	644498	-0.205082	9.803288	0.296399				-0.003567	0.004566	-0.001144				88.014590	1.689908	-43.598805
00244	644548	-0.230355	9.814652	0.292650				-0.003710	-0.000057	0.000183				88.013528	1.689862	-43.598820
00245	644598	-0.228098	9.816774	0.295334				-0.004765	-0.000206	-0.002060				88.014533	1.689434	-43.599157
00246	644648	-0.233576	9.816762	0.291971				-0.005304	0.001657	-0.002658				88.013016	1.690209	-43.598702
00247	644698	-0.231010	9.826191	0.297408				-0.000563	0.001844	-0.000808				88.015239	1.689451	-43.598437
00248	644748	-0.231649	9.819662	0.289880				-0.006363	-0.001335	-0.001970				88.013401	1.690000	-43.598830
00249	644798	-0.245864	9.807587	0.292550				-0.004825	0.002701	-0.003167				88.014426	1.689919	-43.598339
00250	644848	-0.232881	9.804488	0.304010				-0.005773	0.001822	0.002956				88.012784	1.689087	-43.597788
00251	644898	-0.230600	9.811532	0.295100				-0.004624	-0.001393	0.000594				88.013817	1.687880	-43.598440
00252	644948	-0.244881	9.806288	0.300486				-0.004245	0.003877	-0.000083				88.012633	1.687943	-43.597328
00253	644998	-0.246093	9.826148	0.303839				-0.006771	-0.001466	0.000344				88.013055	1.686810	-43.597973
00254	645048	-0.231240	9.812707	0.279283				-0.003022	-0.000664	-0.001974				88.012169	1.687367	-43.598174
00255	645098	-0.224769	9.817291	0.295350				-0.004545	0.000157	-0.000460				88.013251	1.686483	-43.598373
00256	645148	-0.218074	9.807305	0.286608				-0.003736	0.000718	-0.000905				88.012184	1.686750	-43.598172
00257	645198	-0.233889	9.807066	0.289780				-0.003703	-0.000221	-0.001135				88.013481	1.686038	-43.598482
00258	645248	-0.232916	9.819790	0.296298				-0.004107	0.000255	-0.002734				88.012323	1.686825	-43.598443
00259	645298	-0.219409	9.827628	0.291033				-0.004902	-0.002021	-0.002716				88.013257	1.686545	-43.599290
00260	645348	-0.219308	9.796049	0.292843				-0.002919	0.002053	-0.003628				88.012442	1.687610	-43.598739
00261	645398	-0.224133	9.795588	0.287642				-0.004558	0.000481	0.000057				88.013499	1.686559	-43.598853
00262	645448	-0.225507	9.802533	0.298183				-0.003758	-0.000444	0.000498				88.012415	1.686407	-43.598977
00263	645498	-0.242249	9.814310	0.289691				-0.007866	0.004108	0.000185				88.012562	1.685368	-43.598025
00264	645548	-0.205776	9.803035	0.280736				-0.000202	0.000028	-0.004192				88.012511	1.686570	-43.598072
00265	645598	-0.229288	9.821443	0.283595				-0.002969	-0.000042	0.000020				88.014043	1.685520	-43.598316
00266	645648	-0.201418	9.800940	0.282058				-0.005854	-0.000390	-0.002863				88.012359	1.686340	-43.598459
00267	645698	-0.229829	9.819064	0.299668				-0.004704	-0.001205	-0.002261				88.013372	1.685929	-43.599044
00268	645748	-0.252029	9.811863	0.286990				-0.003969	-0.004395	-0.003685				88.012202	1.686942	-43.600341
00269	645798	-0.227978	9.822454	0.296480				-0.004890	-0.000373	-0.004018				88.013175	1.687042	-43.600731
00270	645848	-0.217335	9.796451	0.299558				-0.003432	0.001432	-0.000517				88.012209	1.687199	-43.600332
00271	645898	-0.224858	9.817561	0.293215				-0.007401	-0.004464	-0.006632				88.012412	1.688004	-43.601881
00272	645948	-0.227286	9.813129	0.286331				-0.009150	-0.000188	-0.002117				88.009783	1.688609	-43.601953
00273	645998	-0.240557	9.817202	0.303734				-0.003178	0.002472	-0.000926				88.011270	1.687847	-43.601498
00274	646048	-0.233835	9.814525	0.313881				-0.005826	-0.001097	-0.002255				88.009590	1.688482	-43.601837
00275	646098	-0.225610	9.826285	0.296253				-0.004366	0.000253	-0.003281				88.010717	1.688364	-43.602051
00276	646148	-0.228213	9.808157	0.300602				-0.003795	0.004853	-0.000564				88.009682	1.688576	-43.600669
00277	646198	-0.231618	9.813168	0.295540				-0.004374	0.002711	-0.001534				88.010809	1.687983	-43.600151
00278	646248	-0.226242	9.824679	0.291955				-0.005152	0.000884	-0.001957				88.009339	1.688548	-43.599920
00279	646298	-0.210277	9.793847	0.288966				-0.003389	0.001347	0.002271				88.010758	1.686850	-43.599715
00280	646348	-0.232158	9.814697	0.303427				0.000381	-0.000695	-0.001469				88.010856	1.687260	-43.599928
00281	646398	-0.228328	9.820613	0.292884				-0.003506	-0.002513	-0.001533				88.012203	1.686606	-43.600881
00282	646448	-0.234379	9.808551	0.285032				-0.004177	0.003485	-0.003714				88.011034	1.687703	-43.599923
00283	646498	-0.219992	9.799851	0.276103				-0.002762	0.000016	-0.004188				88.012630	1.687833	-43.600202
00284	646548	-0.232604	9.816833	0.287881				-0.001794	0.002011	-0.002763				88.012130	1.688646	-43.599648
00285	646598	-0.228102	9.832799	0.286686				-0.003713	0.001647	-0.005612				88.013446	1.689195	-43.599462
00286	646648	-0.204425	9.816762	0.284207				-0.004505	-0.002301	-0.000884				88.012149	1.689425	-43.600142
00287	646698	-0.234142	9.808767	0.286780				-0.004964	-0.001019	-0.002355				88.013071	1.689010	-43.600697
00288	646748	-0.229030	9.811730	0.298644				-0.004027	0.001676	-0.003722				88.011927	1.690093	-43.600260
00289	646798	-0.246348	9.832711	0.293513				-0.005072	0.001601	-0.000511				88.012854	1.689170	-43.600035
00290	646848	-0.241052	9.805925	0.296331				-0.004119	0.000843	-0.000485				88.011683	1.689316	-43.599806
00291	646898	-0.226455	9.800474	0.292460				-0.005401	0.004823	-0.001553				88.012555	1.688726	-43.598674
00292	646948	-0.237817	9.818767	0.297061				-0.006443	0.002581	0.000942				88.010742	1.688483	-43.597934
00293	646998	-0.220376	9.785304	0.296668				-0.002334	0.003001	-0.002407				88.012458	1.688117	-43.597342
00294	647048	-0.257135	9.818701	0.301225				-0.004017	-0.001486	-0.000913				88.011305	1.688367	-43.597787
00295	647098	-0.242808	9.817806	0.293732				-0.005884	0.000007	0.001346				88.011967	1.686883	-43.597983
00296	647148	-0.237124	9.821958	0.290531				-0.002739	0.001707	-0.000422				88.011189	1.687023	-43.597497
00297	647198	-0.228908	9.796197	0.306275				-0.000873	-0.001920	-0.003751				88.013287	1.686980	-43.598295
00298	647248	-0.211067	9.808028	0.291657				-0.004001	-0.000166	-0.003220				88.012138	1.687901	-43.598368
00299	647298	-0.213072	9.801597	0.276477				-0.003451	-0.001549	-0.003709				88.013512	1.687849	-43.599104
00300	647348	-0.243866	9.817453	0.299960				-0.004844	0.002409	-0.001279				88.012138	1.688237	-43.598417
00301	647398	-0.227863	9.819563	0.284275				-0.002956	-0.000691	-0.002486				88.013667	1.687838	-43.598874
00302	647448	-0.211698	9.803573	0.303407				-0.003908	-0.000735	0.000689				88.012541	1.687632	-43.599071
00303	647498	-0.217896	9.813536	0.298048				-0.001726	0.002877	-0.004207				88.014435	1.687761	-43.598527
00304	647548	-0.203950	9.815278	0.288808				-0.006230	0.002875	0.000843				88.012666	1.687546	-43.597699
00305	647598	-0.218295	9.805169	0.271391				-0.006851	0.000951	-0.002050				88.013080	1.687035	-43.597694
00306	647648	-0.230790	9.806226	0.285052				-0.005689	0.000419	-0.003242				88.011449	1.687965	-43.597605
00307	647698	-0.213532	9.813540	0.301419				-0.003747	-0.001904	-0.001207				88.012744	1.687183	-43.598390
00308	647748	-0.250115	9.826940	0.295513				-0.008528	0.001507	-0.002171				88.010317	1.687824	-43.597977
00309	647798	-0.220508	9.810719	0.279057				-0.008741	0.001021	-0.000953				88.010204	1.686989	-43.597946
00310	647848	-0.234935	9.810264	0.296716				-0.002501	0.001223	-0.001835				88.009494	1.687524	-43.597613
00311	647898	-0.216159	9.794934	0.290737				-0.003778	-0.005394	-0.003055				88.010743	1.687229	-43.599413
00312	647948	-0.255112	9.810582	0.290432				-0.005793	0.002106	-0.002176				88.009106	1.687870	-43.598835
00313	647998	-0.232641	9.811532	0.277720				-0.000851	0.000775	-0.000757				88.011229	1.686970	-43.598821
00314	648048	-0.233585	9.830173	0.314985				-0.004297	-0.000782	-0.002258				88.009987	1.687608	-43.599069
00315	648098	-0.258086	9.844285	0.287247				-0.003450	0.000019	0.000631				88.011350	1.686301	-43.599251
00316	648148	-0.236987	9.807526	0.257235				-0.003481	0.001856	-0.001220				88.010366	1.686672	-43.598728
00317	648198	-0.236409	9.820763	0.307135				-0.005894	-0.002542	0.003286				88.011036	1.684577	-43.599659
00318	648248	-0.216347	9.798327	0.285689				-0.005408	0.000010	-0.000363				88.009484	1.684685	-43.599664
00319	648298	-0.214487	9.799730	0.288779				-0.004221	0.003007	-0.000765				88.010671	1.683796	-43.599027
00320	648348	-0.209098	9.817558	0.290719				-0.007294	-0.001518	-0.005114				88.008570	1.685249	-43.599512
00321	648398	-0.206421	9.800568	0.287091				-0.004099	-0.000972	-0.001427				88.009742	1.684509	-43.600046
00322	648448	-0.221872	9.820435	0.278311				-0.006611	-0.001727	-0.002164				88.007843	1.685108	-43.600567
00323	648498	-0.221503	9.825869	0.295821				-0.005695	-0.001158	-0.000622				88.008562	1.684140	-43.601121
00324	648548	-0.219735	9.826550	0.298932				-0.006682	0.002662	-0.003102				88.006683	1.685056	-43.600402
00325	648598	-0.237059	9.821077	0.286186				-0.002038	0.002144	0.000892				88.008477	1.683675	-43.599992
00326	648648	-0.227266	9.816510	0.313616				-0.006987	-0.002997	-0.003260				88.006451	1.684576	-43.600887
00327	648698	-0.222046	9.814987	0.308864				-0.000622	0.000448	-0.003902				88.008648	1.684551	-43.601020
00328	648748	-0.249356	9.822994	0.305419				-0.003617	-0.000829	0.000307				88.007600	1.684451	-43.601258
00329	648798	-0.219960	9.820743	0.275389				-0.004219	0.000672	-0.004147				88.008770	1.684499	-43.601322
00330	648848	-0.223204	9.815371	0.282623				-0.005728	0.002108	-0.000927				88.007141	1.684783	-43.600719
00331	648898	-0.238969	9.820690	0.310125				-0.002539	-0.000722	-0.003064				88.008772	1.684503	-43.601191
00332	648948	-0.256594	9.827233	0.286603				-0.004005	-0.000907	-0.002868				88.007618	1.685315	-43.601486
00333	648998	-0.245988	9.821155	0.289091				-0.002318	0.000545	-0.002542				88.009332	1.684904	-43.601560
00334	649048	-0.231272	9.802273	0.295130				-0.005350	0.001077	-0.002217				88.007818	1.685549	-43.601282
00335	649098	-0.232546	9.814630	0.292462				-0.005282	0.000045	-0.000551				88.008660	1.684539	-43.601470
00336	649148	-0.235862	9.823051	0.297510				-0.003310	-0.000038	0.003803				88.007711	1.683451	-43.601440
00337	649198	-0.239024	9.805067	0.291995				-0.003703	0.004018	0.000846				88.009042	1.682082	-43.600509
00338	649248	-0.225444	9.818746	0.292681				-0.003915	0.001588	-0.000259				88.007926	1.682171	-43.600051
00339	649298	-0.239927	9.792174	0.312227				-0.005006	0.000475	0.000859				88.008882	1.680769	-43.600157
00340	649348	-0.234400	9.807022	0.291879				-0.000249	0.000971	-0.001588				88.008815	1.681230	-43.599895
00341	649398	-0.220479	9.824500	0.292677				-0.005300	-0.000081	0.001597				88.009659	1.679607	-43.600099
00342	649448	-0.204931	9.792809	0.283690				-0.001358	0.003373	-0.004078				88.009294	1.680807	-43.599176
00343	649498	-0.218832	9.789995	0.270564				-0.002519	-0.000461	-0.002906				88.010943	1.680465	-43.599563
00344	649548	-0.219908	9.822530	0.282530				-0.001191	0.004877	0.004275				88.010631	1.679290	-43.598114
00345	649598	-0.224250	9.810324	0.270777				-0.001710	-0.001507	-0.000089				88.012512	1.678128	-43.598762
00346	649648	-0.230745	9.805957	0.287205				-0.002981	0.002351	0.000387				88.011667	1.678043	-43.598083
00347	649698	-0.225255	9.821194	0.288142				-0.006077	0.000640	-0.003721				88.012324	1.677936	-43.598188
00348	649748	-0.223210	9.818368	0.273082				-0.007477	0.000390	-0.002626				88.010187	1.678687	-43.598106
00349	649798	-0.233319	9.814131	0.278112				-0.006768	0.001075	-0.005803				88.010630	1.679193	-43.598045
00350	649848	-0.235586	9.822925	0.292580				-0.007750	-0.000165	-0.004008				88.008406	1.680336	-43.598131
00351	649898	-0.218066	9.808286	0.291739				-0.003099	0.004109	-0.001112				88.009918	1.679516	-43.597203
00352	649948	-0.246304	9.817951	0.304171				-0.003251	0.001717	-0.001055				88.008996	1.679829	-43.596716
00353	649998	-0.227494	9.800027	0.296870				-0.004495	0.002404	-0.002430				88.010112	1.679370	-43.596301
00354	650048	-0.246885	9.807482	0.290068				-0.004692	0.000297	-0.005262				88.008768	1.680876	-43.596269
00355	650098	-0.232134	9.819807	0.287097				-0.005178	0.002172	0.000429				88.009673	1.679587	-43.595859
00356	650148	-0.236336	9.827790	0.288876				-0.007564	-0.000621	-0.000128				88.007519	1.679619	-43.596049
00357	650198	-0.250344	9.831739	0.298170				-0.002974	0.000107	-0.001254				88.009035	1.678786	-43.596233
00358	650248	-0.211514	9.807288	0.284844				-0.004534	-0.000371	-0.000615				88.007728	1.678960	-43.596337
00359	650298	-0.211083	9.800962	0.280341				-0.005694	0.000454	0.005326				88.008469	1.676247	-43.596359
00360	650348	-0.229215	9.817303	0.298131				-0.005805	0.000376	-0.002793				88.006802	1.677051	-43.596282
00361	650398	-0.230957	9.805713	0.278991				-0.006362	-0.002047	0.002748				88.007327	1.675045	-43.597063
00362	650448	-0.226540	9.816328	0.270984				-0.001876	-0.000288	0.000049				88.006793	1.675030	-43.597147
00363	650498	-0.216608	9.813099	0.288660				-0.004108	0.001541	-0.001313				88.007990	1.674210	-43.596939
00364	650548	-0.217086	9.798993	0.311006				-0.005953	-0.001176	-0.002799				88.006278	1.674999	-43.597303
00365	650598	-0.220028	9.790534	0.302939				-0.007336	-0.001781	-0.000041				88.006530	1.673787	-43.598059
00366	650648	-0.237377	9.808574	0.288543				-0.004619	0.002202	-0.004643				88.005230	1.675139	-43.597480
00367	650698	-0.229489	9.807758	0.286373				-0.004142	0.001471	-0.002627				88.006410	1.674702	-43.597303
00368	650748	-0.222474	9.812545	0.304518				-0.003618	0.002127	-0.002593				88.005389	1.675464	-43.596711
00369	650798	-0.222467	9.823426	0.291050				-0.001851	0.003231	0.000487				88.007284	1.674150	-43.596016
00370	650848	-0.221346	9.792968	0.282628				-0.000465	0.000826	-0.000717				88.007167	1.674363	-43.595791
00371	650898	-0.227382	9.820508	0.276051				-0.006264	0.003762	-0.002866				88.007757	1.674011	-43.594931
00372	650948	-0.230378	9.814256	0.279169				-0.004052	0.005069	0.001690				88.006629	1.673571	-43.593460
00373	650998	-0.217867	9.796224	0.289515				-0.008171	0.000337	-0.000413				88.006675	1.672485	-43.593570
00374	651048	-0.235651	9.808175	0.285206				-0.004452	0.001012	-0.003367				88.005402	1.673461	-43.593312
00375	651098	-0.254959	9.821975	0.297258				-0.004927	0.004042	-0.002609				88.006397	1.673022	-43.592392
00376	651148	-0.238431	9.814680	0.307207				-0.002334	-0.001018	-0.002065				88.005710	1.673602	-43.592701
00377	651198	-0.251668	9.825606	0.295440				-0.007471	-0.000657	-0.002660				88.005952	1.673147	-43.593114
00378	651248	-0.233345	9.811094	0.297443				-0.006130	0.001635	-0.000474				88.004204	1.673299	-43.592648
00379	651298	-0.227122	9.813014	0.317066				-0.004548	-0.001125	-0.004534				88.005264	1.673361	-43.593236
00380	651348	-0.221718	9.814741	0.316725				-0.004753	0.002360	-0.004580				88.003917	1.674696	-43.592612
00381	651398	-0.238064	9.811651	0.288457				-0.000358	-0.001591	0.000297				88.006167	1.673366	-43.593287
00382	651448	-0.219869	9.802541	0.293557				-0.006482	0.003859	-0.000077				88.004347	1.673429	-43.592187
00383	651498	-0.223218	9.827106	0.282514				-0.005113	0.002880	-0.001109				88.005269	1.672539	-43.591602
00384	651548	-0.207282	9.812207	0.276869				-0.004663	0.000981	0.000773				88.003942	1.672329	-43.591312
00385	651598	-0.225001	9.808757	0.270750				-0.003915	0.000644	0.001314				88.005205	1.670730	-43.591357
00386	651648	-0.227681	9.816053	0.288429				0.000136	-0.000199	-0.002614				88.005242	1.671476	-43.591437
00387	651698	-0.234446	9.826122	0.291054				-0.000536	0.004186	-0.001757				88.007481	1.670787	-43.590471
00388	651748	-0.208511	9.806270	0.291711				-0.002063	-0.000594	-0.001618				88.006877	1.671245	-43.590653
00389	651798	-0.225294	9.816030	0.291617				-0.004858	-0.004359	-0.001887				88.007826	1.670494	-43.592153
00390	651848	-0.240850	9.822233	0.291942				-0.005863	0.000245	-0.001699				88.006152	1.670979	-43.592108
00391	651898	-0.240392	9.819942	0.287541				-0.003845	0.002022	-0.004613				88.007432	1.671086	-43.591783
00392	651948	-0.229132	9.820773	0.288351				-0.005329	0.001746	-0.000506				88.005923	1.671251	-43.591285
00393	651998	-0.244947	9.812531	0.271871				-0.005930	-0.000885	-0.002284				88.006577	1.670653	-43.591761
00394	652048	-0.240755	9.828638	0.276318				-0.001305	0.000200	0.000726				88.006207	1.670446	-43.591692
00395	652098	-0.233485	9.816398	0.276518				-0.002512	-0.003308	0.001287				88.007829	1.668793	-43.592850
00396	652148	-0.229126	9.811110	0.284190				-0.003358	-0.001671	0.003292				88.006846	1.667832	-43.593296
00397	652198	-0.238297	9.811516	0.281590				-0.003082	0.000295	-0.002863				88.008341	1.667398	-43.593471
00398	652248	-0.242081	9.826474	0.261666				-0.002047	-0.000783	-0.000139				88.007748	1.667431	-43.593693
00399	652298	-0.228155	9.803828	0.280454				-0.008513	-0.002191	-0.001805				88.007663	1.666669	-43.594562
00400	652348	-0.236200	9.797264	0.299979				-0.001316	0.000460	0.000023				88.007296	1.666672	-43.594433
00401	652398	-0.220545	9.805288	0.315314				-0.003428	0.003329	-0.001851				88.008703	1.665978	-43.593698
00402	652448	-0.228918	9.811779	0.287200				0.000059	0.001617	0.000696				88.008736	1.665793	-43.593235
00403	652498	-0.245991	9.827640	0.306725				-0.000196	0.000383	-0.000685				88.011047	1.664728	-43.593333
00404	652548	-0.226043	9.812510	0.304117				-0.005344	0.001166	-0.001152				88.009528	1.665070	-43.593011
00405	652598	-0.215618	9.798144	0.305412				-0.002037	0.000898	-0.001293				88.011334	1.664192	-43.592960
00406	652648	-0.214865	9.797914	0.290415				-0.005689	0.002638	-0.003517				88.009732	1.665226	-43.592235
00407	652698	-0.211727	9.805000	0.279269				-0.002761	0.003567	-0.000858				88.011350	1.664247	-43.591434
00408	652748	-0.213548	9.800652	0.282847				-0.000638	0.001249	0.000730				88.011169	1.664047	-43.591066
00409	652798	-0.228862	9.817503	0.285463				-0.005391	-0.000617	-0.001869				88.011981	1.663309	-43.591499
00410	652848	-0.227674	9.818254	0.299347				-0.005105	-0.000088	0.002179				88.010522	1.662680	-43.591509
00411	652898	-0.214784	9.791448	0.294003				-0.003771	0.001964	-0.001794				88.011816	1.661952	-43.591169
00412	652948	-0.220898	9.825258	0.296397				-0.004022	0.000796	-0.002056				88.010678	1.662549	-43.590969
00413	652998	-0.216575	9.818698	0.294896				-0.003530	-0.000815	-0.003346				88.012029	1.662227	-43.591445
00414	653048	-0.227851	9.818710	0.284613				-0.000937	0.000494	-0.001580				88.011759	1.662684	-43.591310
00415	653098	-0.232442	9.820967	0.288259				-0.004399	0.001595	-0.000831				88.012889	1.661656	-43.591093
00416	653148	-0.233124	9.817518	0.296392				-0.002176	0.004455	0.001425				88.012303	1.661295	-43.589804
00417	653198	-0.240111	9.798365	0.301999				-0.003832	0.000803	-0.001927				88.013586	1.660576	-43.589815
00418	653248	-0.227507	9.801437	0.266208				-0.003223	-0.000055	0.000472				88.012659	1.660441	-43.589823
00419	653298	-0.226955	9.831182	0.292088				-0.005332	-0.001295	-0.001103				88.013504	1.659465	-43.590442
00420	653348	-0.238208	9.818096	0.300989				-0.001375	-0.000902	-0.000915				88.013097	1.659719	-43.590705
00421	653398	-0.254086	9.816210	0.287583				-0.000990	-0.002057	-0.001435				88.015163	1.658825	-43.591538
00422	653448	-0.253853	9.813977	0.294275				-0.001162	0.005727	-0.002418				88.014881	1.659570	-43.589927
00423	653498	-0.245207	9.819390	0.272717				-0.000993	0.003473	0.001097				88.016989	1.658002	-43.589114
00424	653548	-0.225336	9.807101	0.301328				-0.001219	0.001699	0.002947				88.016656	1.657174	-43.588593
00425	653598	-0.223572	9.814635	0.291390				-0.005163	0.001427	-0.000025				88.017554	1.655914	-43.588422
00426	653648	-0.226236	9.828457	0.300326				-0.006087	0.001247	-0.001214				88.015817	1.656275	-43.588067
00427	653698	-0.233600	9.810541	0.287120				-0.004899	0.001601	0.002605				88.016793	1.654253	-43.587812
00428	653748	-0.233853	9.825423	0.275370				-0.003906	0.001222	-0.001667				88.015680	1.654740	-43.587482
00429	653798	-0.230247	9.817913	0.288507				-0.003348	-0.000286	-0.000457				88.017085	1.653575	-43.587779
00430	653848	-0.200790	9.808400	0.298443				-0.005010	-0.001749	-0.004344				88.015620	1.654801	-43.588322
00431	653898	-0.201439	9.802201	0.284127				-0.006309	0.004447	-0.000200				88.016249	1.653618	-43.587304
00432	653948	-0.237010	9.825726	0.283912				-0.001736	0.000452	-0.000457				88.015743	1.653750	-43.587176
00433	653998	-0.215510	9.809853	0.300072				-0.000629	0.000790	-0.002452				88.017959	1.653161	-43.587199
00434	654048	-0.240218	9.807501	0.294111				-0.006068	0.001761	-0.002363				88.016226	1.653852	-43.586718
00435	654098	-0.236931	9.819868	0.278946				-0.004398	0.000466	-0.001058				88.017337	1.652860	-43.586821
00436	654148	-0.235056	9.813811	0.304600				-0.003860	-0.000235	-0.001483				88.016230	1.653286	-43.586904
00437	654198	-0.215686	9.809158	0.283454				-0.005623	-0.001627	-0.003347				88.016976	1.652923	-43.587632
00438	654248	-0.251114	9.824971	0.290816				-0.006782	-0.000060	-0.001504				88.015035	1.653354	-43.587669
00439	654298	-0.232020	9.817798	0.294517				-0.003534	0.000512	-0.002928				88.016383	1.652882	-43.587752
00440	654348	-0.251441	9.838553	0.286455				-0.004029	0.002158	-0.000215				88.015244	1.652961	-43.587139
00441	654398	-0.244222	9.811069	0.290492				-0.004923	0.002012	-0.000184				88.016228	1.651736	-43.586779
00442	654448	-0.244744	9.820125	0.302646				-0.001828	0.001161	-0.002985				88.015707	1.652600	-43.586471
00443	654498	-0.224760	9.830155	0.299255				-0.002418	-0.001406	-0.001557				88.017381	1.651727	-43.587118
00444	654548	-0.229340	9.821914	0.290710				-0.004208	0.001898	0.001641				88.016192	1.651281	-43.586559
00445	654598	-0.248353	9.810198	0.297126				-0.001395	-0.000095	-0.000688				88.018164	1.650155	-43.586831
00446	654648	-0.240005	9.829649	0.289017				-0.003820	0.002608	-0.001854				88.017094	1.650717	-43.586103
00447	654698	-0.210692	9.815351	0.285581				-0.005709	0.001575	-0.000574				88.017822	1.649571	-43.585842
00448	654748	-0.232172	9.823005	0.279507				-0.006495	0.004246	-0.000425				88.015996	1.649737	-43.584629
00449	654798	-0.226327	9.804908	0.289170				-0.002512	-0.000402	-0.001234				88.017651	1.648776	-43.585016
00450	654848	-0.220632	9.802878	0.286543				-0.002252	0.001411	-0.001929				88.017024	1.649342	-43.584632
00451	654898	-0.214107	9.820073	0.299654				-0.001924	-0.001424	0.002737				88.018816	1.647220	-43.585213
00452	654948	-0.222989	9.803308	0.287727				-0.002083	0.000086	-0.002352				88.018231	1.647898	-43.585217
00453	654998	-0.216906	9.815360	0.280250				-0.002085	0.000184	-0.002320				88.019991	1.647228	-43.585421
00454	655048	-0.230019	9.811239	0.290897				-0.004378	0.000625	-0.003627				88.018738	1.648271	-43.585277
00455	655098	-0.226649	9.822119	0.295470				-0.004415	0.001916	-0.004034				88.019853	1.648118	-43.584980
00456	655148	-0.218326	9.787380	0.293772				-0.004705	-0.001256	-0.003666				88.018497	1.649157	-43.585377
00457	655198	-0.241861	9.817489	0.307105				-0.005926	-0.000919	-0.003216				88.019171	1.648730	-43.585895
00458	655248	-0.262986	9.833056	0.295388				-0.003213	0.001549	-0.002919				88.018263	1.649579	-43.585476
00459	655298	-0.218234	9.808435	0.281940				-0.001325	0.000488	-0.002097				88.020263	1.648858	-43.585584
00460	655348	-0.224762	9.811741	0.293195				-0.001674	0.000580	-0.001773				88.019798	1.649374	-43.585438
00461	655398	-0.227412	9.803860	0.309777				-0.001799	0.003520	-0.001146				88.021669	1.648402	-43.584646
00462	655448	-0.236990	9.813363	0.301254				-0.003193	-0.002260	-0.002685				88.020729	1.649148	-43.585315
00463	655498	-0.236671	9.831043	0.293097				-0.004449	0.002013	-0.003938				88.021841	1.648951	-43.584996
00464	655548	-0.232082	9.806230	0.291093				-0.000899	0.000275	-0.001936				88.021576	1.649504	-43.584932
00465	655598	-0.226139	9.817218	0.306319				-0.006315	-0.001801	-0.002000				88.022130	1.648729	-43.585688
00466	655648	-0.226346	9.812381	0.312189				-0.003375	0.001516	-0.003175				88.021182	1.649655	-43.585289
00467	655698	-0.232262	9.837350	0.303206				-0.005686	-0.001168	-0.000105				88.021915	1.648334	-43.585860
00468	655748	-0.240966	9.816688	0.282081				-0.003852	0.002316	-0.004097				88.020825	1.649527	-43.585239
00469	655798	-0.247155	9.807048	0.302709				-0.002574	-0.001338	0.000498				88.022456	1.648029	-43.585854
00470	655848	-0.214586	9.807458	0.271383				-0.002357	0.000890	-0.000744				88.021793	1.648251	-43.585619
00471	655898	-0.221993	9.823942	0.273262				-0.008614	-0.001131	-0.002533				88.021671	1.647623	-43.586178
00472	655948	-0.227483	9.816112	0.299720				-0.002871	0.001882	-0.001509				88.020868	1.648072	-43.585651
00473	655998	-0.217653	9.804414	0.297073				-0.004134	0.000045	-0.004275				88.022079	1.647964	-43.585935
00474	656048	-0.213162	9.829176	0.294912				-0.005570	0.003994	-0.005049				88.020514	1.649445	-43.584842
00475	656098	-0.235117	9.803741	0.280135				-0.004074	0.001180	-0.002629				88.021727	1.648862	-43.584732
00476	656148	-0.219893	9.807866	0.287058				-0.004782	0.002495	-0.001274				88.020380	1.649253	-43.584032
00477	656198	-0.219259	9.796535	0.283458				-0.005493	0.000576	-0.001186				88.021172	1.648245	-43.584091
00478	656248	-0.234824	9.813995	0.292807				-0.003439	0.002449	-0.004037				88.020218	1.649425	-43.583439
00479	656298	-0.249393	9.819352	0.287499				-0.007049	0.000159	-0.001729				88.020557	1.648563	-43.583644
00480	656348	-0.246070	9.819464	0.298129				-0.001578	-0.002585	-0.000245				88.020083	1.648608	-43.584392
00481	656398	-0.227058	9.812486	0.304577				-0.004199	0.002178	-0.004711				88.021273	1.648628	-43.584022
00482	656448	-0.237371	9.803402	0.300742				-0.005221	0.003196	-0.001911				88.019797	1.649202	-43.583129
00483	656498	-0.226068	9.816598	0.300443				-0.002069	0.003934	-0.002397				88.021597	1.648575	-43.582245
00484	656548	-0.227362	9.805059	0.293572				-0.005130	0.001165	-0.002753				88.020135	1.649375	-43.581936
00485	656598	-0.220841	9.801849	0.276044				-0.004914	0.000224	-0.005972				88.021096	1.649726	-43.582134
00486	656648	-0.229711	9.821870	0.309374				-0.004061	0.002154	-0.000477				88.019947	1.649881	-43.581516
00487	656698	-0.218891	9.810171	0.307601				-0.002526	-0.003020	-0.001150				88.021608	1.648822	-43.582636
00488	656748	-0.236282	9.806978	0.285240				-0.006506	0.000370	-0.000475				88.019739	1.648963	-43.582534
00489	656798	-0.218193	9.804291	0.289117				-0.003335	0.001361	-0.000904				88.021141	1.647854	-43.582342
00490	656848	-0.231621	9.800711	0.310478				-0.010237	0.000852	-0.000240				88.018204	1.647927	-43.582095
00491	656898	-0.226188	9.816683	0.309958				-0.000767	0.001014	-0.003215				88.020370	1.647490	-43.582055
00492	656948	-0.227864	9.815535	0.290559				-0.001322	0.002620	-0.001507				88.020020	1.647950	-43.581324
00493	656998	-0.225310	9.810684	0.284223				-0.004084	-0.001305	0.000178				88.021200	1.646525	-43.581899
00494	657048	-0.215816	9.814285	0.289397				-0.002975	-0.000060	-0.002994				88.020345	1.647379	-43.581941
00495	657098	-0.215008	9.809711	0.294021				-0.007477	0.001675	-0.002011				88.020591	1.646593	-43.581709
00496	657148	-0.213432	9.818161	0.286057				-0.004542	-0.000185	-0.003794				88.019292	1.647678	-43.581814
00497	657198	-0.218782	9.809568	0.269494				-0.002473	0.001705	0.002500				88.020988	1.645607	-43.581541
00498	657248	-0.237174	9.816773	0.295299				-0.005642	0.001416	-0.000826				88.019381	1.645857	-43.581140
00499	657298	-0.238464	9.820836	0.292608				-0.004172	-0.000696	-0.003409				88.020551	1.645448	-43.581582
00500	657348	-0.229260	9.805759	0.308452				-0.005775	-0.001557	0.001018				88.018890	1.645145	-43.582024
00501	657398	-0.230142	9.804244	0.282754				-0.004163	-0.000048	-0.002509				88.020054	1.644482	-43.582274
00502	657448	-0.243200	9.829062	0.293599				-0.004741	0.002006	-0.004803				88.018706	1.645874	-43.581742
00503	657498	-0.253740	9.823106	0.302315				-0.004818	0.000589	-0.002083				88.019699	1.645103	-43.581802
00504	657548	-0.239755	9.799932	0.323834				-0.004828	-0.000993	-0.000554				88.018315	1.645251	-43.582094
00505	657598	-0.236485	9.823403	0.312206				-0.001162	0.000656	-0.001804				88.020381	1.644389	-43.582190
00506	657648	-0.236521	9.801379	0.294508				-0.002441	0.000371	-0.001674				88.019694	1.644872	-43.582101
00507	657698	-0.229955	9.827881	0.288288				-0.004376	0.000756	-0.002570				88.020790	1.644231	-43.582114
00508	657748	-0.235209	9.825392	0.307167				-0.003272	0.001430	-0.000191				88.019862	1.644300	-43.581703
00509	657798	-0.235080	9.820287	0.284720				-0.004952	0.001683	-0.002912				88.020853	1.643769	-43.581506
00510	657848	-0.224494	9.809564	0.296411				-0.003152	0.000650	-0.001416				88.019955	1.644183	-43.581334
00511	657898	-0.199924	9.805664	0.292329				-0.000395	0.001540	-0.001293				88.022216	1.643179	-43.581125
00512	657948	-0.224523	9.831910	0.292795				-0.002829	-0.000408	-0.000652				88.021394	1.643362	-43.581247
00513	657998	-0.230085	9.808453	0.270844				-0.003888	0.000706	-0.000384				88.022652	1.642081	-43.581263
00514	658048	-0.222739	9.813658	0.293228				-0.002114	0.001991	-0.003304				88.022063	1.643045	-43.580723
00515	658098	-0.228540	9.807394	0.263850				-0.004124	-0.000110	-0.000998				88.023255	1.641940	-43.580997
00516	658148	-0.230210	9.819079	0.289447				-0.003706	0.003199	0.001039				88.022222	1.641676	-43.580067
00517	658198	-0.222014	9.812008	0.308371				-0.003885	0.000473	-0.002410				88.023492	1.640973	-43.580215
00518	658248	-0.221408	9.790307	0.301004				-0.006717	-0.000219	-0.001413				88.021557	1.641377	-43.580283
00519	658298	-0.211939	9.809563	0.290829				-0.005145	0.001576	-0.004873				88.022477	1.641392	-43.580118
00520	658348	-0.221779	9.818966	0.288271				-0.003740	0.000864	-0.003020				88.021410	1.642264	-43.579901
00521	658398	-0.241559	9.818369	0.311453				0.000327	0.001370	0.002526				88.023898	1.640154	-43.579707
00522	658448	-0.242793	9.796059	0.311146				-0.004046	-0.000525	-0.000296				88.022726	1.640233	-43.579860
00523	658498	-0.239111	9.810241	0.286428				-0.003050	-0.001439	0.001973				88.024222	1.638259	-43.580459
00524	658548	-0.244715	9.822388	0.294175				-0.006197	-0.000603	-0.003724				88.022433	1.639321	-43.580662
00525	658598	-0.236137	9.818372	0.300267				-0.003911	0.002183	-0.004163				88.023706	1.639132	-43.580305
00526	658648	-0.234785	9.793355	0.308635				-0.002351	0.000735	0.000031				88.023039	1.639133	-43.580087
00527	658698	-0.226084	9.824446	0.268127				-0.003576	0.000229	0.002373				88.024409	1.637054	-43.580219
00528	658748	-0.239418	9.816356	0.305316				-0.002789	0.000466	-0.000069				88.023604	1.637079	-43.580076
00529	658798	-0.232077	9.826294	0.297371				-0.001178	0.000140	0.000567				88.025649	1.635511	-43.580259
00530	658848	-0.202566	9.812398	0.283378				-0.005104	-0.001517	-0.001360				88.024178	1.635885	-43.580710
00531	658898	-0.229929	9.805313	0.290376				-0.002070	-0.000232	-0.001874				88.025942	1.635004	-43.581030
00532	658948	-0.228212	9.826485	0.287713				-0.001676	0.002715	-0.001054				88.025472	1.635329	-43.580260
00533	658998	-0.209103	9.826196	0.291262				-0.002948	0.000500	0.001822				88.027016	1.633401	-43.580328
00534	659048	-0.218128	9.805904	0.292017				-0.004084	0.001130	0.003273				88.025866	1.632475	-43.579971
00535	659098	-0.213156	9.823381	0.286008				-0.001878	0.001932	-0.001191				88.027718	1.631429	-43.579682
00536	659148	-0.225753	9.814260	0.283278				-0.006078	0.001790	-0.003776				88.025984	1.632525	-43.579212
00537	659198	-0.211589	9.801186	0.296332				-0.003198	-0.000128	-0.002512				88.027447	1.631828	-43.579483
00538	659248	-0.215460	9.808047	0.293983				-0.004672	-0.002090	-0.000983				88.026091	1.632090	-43.580091
00539	659298	-0.226050	9.835567	0.285259				-0.002336	0.001883	-0.005807				88.027818	1.632350	-43.579838
00540	659348	-0.222546	9.800456	0.303992				-0.001145	0.003245	0.000326				88.027521	1.632291	-43.578912
00541	659398	-0.225152	9.802299	0.290008				-0.006447	0.000330	-0.003465				88.028027	1.631860	-43.579076
00542	659448	-0.228101	9.826193	0.307167				-0.004561	0.000788	0.000320				88.026728	1.631775	-43.578850
00543	659498	-0.245862	9.805891	0.270640				-0.004550	-0.000127	-0.005328				88.027797	1.631878	-43.579181
00544	659548	-0.231658	9.814667	0.282545				-0.003444	-0.000326	-0.002065				88.026819	1.632471	-43.579300
00545	659598	-0.241301	9.811770	0.308959				-0.004139	-0.000691	-0.001869				88.027990	1.631571	-43.579710
00546	659648	-0.242167	9.813407	0.294342				-0.005160	0.003462	-0.001425				88.026532	1.632011	-43.578723
00547	659698	-0.251714	9.822779	0.278250				-0.001640	0.000485	-0.000742				88.028443	1.630801	-43.578827
00548	659748	-0.250407	9.823322	0.290901				-0.008570	-0.000386	-0.003397				88.025982	1.631770	-43.578972
00549	659798	-0.254973	9.812696	0.283568				-0.003454	0.003205	-0.000660				88.027408	1.630566	-43.578274
00550	659848	-0.250936	9.820384	0.280264				-0.004961	0.002337	0.000074				88.026009	1.630565	-43.577604
00551	659898	-0.212889	9.803836	0.276704				-0.003136	0.000168	-0.000308				88.027485	1.629236	-43.577770
00552	659948	-0.210109	9.798697	0.304970				-0.002438	0.002577	-0.000453				88.026808	1.629388	-43.577039
00553	659998	-0.214583	9.811018	0.270930				-0.002698	0.001637	0.000726				88.028420	1.627769	-43.576792
00554	660048	-0.207746	9.802329	0.301644				-0.005754	-0.001266	-0.000244				88.026765	1.627827	-43.577164
00555	660098	-0.222899	9.811642	0.301203				-0.004236	0.000408	-0.001071				88.027919	1.626699	-43.577279
00556	660148	-0.220599	9.804203	0.293070				-0.004714	-0.000766	-0.002038				88.026559	1.627275	-43.577518
00557	660198	-0.232215	9.798914	0.303620				-0.004305	0.004034	0.001321				88.027744	1.625502	-43.576572
00558	660248	-0.227966	9.807689	0.291664				-0.004812	0.000889	0.003009				88.026373	1.624650	-43.576293
00559	660298	-0.217530	9.806306	0.282431				-0.002959	-0.000672	-0.003263				88.027901	1.624146	-43.576750
00560	660348	-0.234733	9.799784	0.275824				-0.002212	0.001188	-0.001427				88.027286	1.624569	-43.576428
00561	660398	-0.242809	9.814659	0.273630				-0.001853	-0.000811	-0.000887				88.029128	1.623375	-43.576896
00562	660448	-0.235758	9.809893	0.296515				-0.005218	-0.002265	-0.004607				88.027605	1.624673	-43.577583
00563	660498	-0.251832	9.838900	0.294851				-0.004859	0.001813	-0.003178				88.028587	1.624160	-43.577302
00564	660548	-0.263276	9.827304	0.299477				-0.004219	0.003356	0.000842				88.027410	1.623956	-43.576330
00565	660598	-0.249947	9.820079	0.301359				-0.005846	0.002902	-0.002398				88.028120	1.623227	-43.575763
00566	660648	-0.232132	9.810010	0.292059				-0.001507	0.000230	-0.001977				88.027694	1.623796	-43.575720
00567	660698	-0.235142	9.819720	0.305820				-0.004341	-0.000204	-0.001298				88.028824	1.622724	-43.576035
00568	660748	-0.232235	9.819211	0.295176				-0.001181	0.002143	-0.000617				88.028509	1.622920	-43.575428
00569	660798	-0.239596	9.821442	0.313737				-0.003848	0.004420	-0.003840				88.029802	1.622625	-43.574395
00570	660848	-0.236276	9.825670	0.288019				-0.003401	0.001719	0.001085				88.028851	1.622333	-43.573897
00571	660898	-0.214363	9.810875	0.311449				-0.003032	0.000950	-0.000816				88.030356	1.621128	-43.573874
00572	660948	-0.238528	9.797352	0.292299				-0.000274	-0.002004	0.002245				88.030249	1.620463	-43.574419
00573	660998	-0.222938	9.804963	0.287916				-0.000630	0.001018	-0.001337				88.032457	1.619417	-43.574376
00574	661048	-0.225152	9.807743	0.290407				-0.003853	0.001644	0.000282				88.031367	1.619356	-43.573904
00575	661098	-0.213268	9.803720	0.299421				-0.001953	-0.002078	-0.002085				88.033172	1.618487	-43.574733
00576	661148	-0.212233	9.799974	0.281617				-0.000428	0.000402	-0.004228				88.033048	1.619706	-43.574659
00577	661198	-0.201084	9.818172	0.295488				-0.001513	0.002454	-0.003381				88.034990	1.619245	-43.574224
00578	661248	-0.234999	9.808204	0.299005				-0.001813	0.001873	-0.001037				88.034493	1.619563	-43.573702
00579	661298	-0.208854	9.810068	0.275256				-0.003461	0.000526	0.001557				88.035886	1.617671	-43.573770
00580	661348	-0.211353	9.807985	0.286037				-0.005078	-0.002518	-0.002596				88.034400	1.618389	-43.574514
00581	661398	-0.239474	9.824632	0.306975				0.000070	0.000098	-0.000890				88.036789	1.617189	-43.574710
00582	661448	-0.219085	9.806370	0.307661				-0.004836	-0.001831	-0.001148				88.035392	1.617499	-43.575247
00583	661498	-0.238079	9.809837	0.266715				-0.003573	-0.000156	0.000082				88.036751	1.616024	-43.575515
00584	661548	-0.232398	9.809687	0.312741				-0.003035	0.002211	-0.000004				88.035898	1.616043	-43.574879
00585	661598	-0.237051	9.815489	0.301730				-0.003517	-0.002170	-0.002244				88.037227	1.615208	-43.575719
00586	661648	-0.253174	9.833195	0.294052				-0.008221	-0.000281	-0.003663				88.034872	1.616253	-43.575839
00587	661698	-0.230897	9.826628	0.291860				-0.005029	-0.000837	-0.001688				88.035798	1.615275	-43.576320
00588	661748	-0.246220	9.810909	0.299252				-0.007219	-0.000387	-0.000332				88.033734	1.615362	-43.576441
00589	661798	-0.230484	9.819016	0.293492				-0.000856	0.001148	0.000881				88.035868	1.613659	-43.576338
00590	661848	-0.218157	9.808307	0.305804				0.000007	-0.001073	-0.002276				88.035862	1.614305	-43.576664
00591	661898	-0.230911	9.812179	0.290903				-0.003075	0.001208	-0.001037				88.037361	1.613155	-43.576580
00592	661948	-0.253377	9.827482	0.311107				-0.001651	-0.001290	-0.000922				88.036876	1.613405	-43.576960
00593	661998	-0.241695	9.835659	0.297396				-0.004134	0.000577	0.000629				88.038071	1.611774	-43.577016
00594	662048	-0.244794	9.834411	0.299130				-0.004680	0.002503	-0.000383				88.036752	1.611907	-43.576301
00595	662098	-0.219726	9.798839	0.287774				-0.007153	-0.002417	0.002193				88.037047	1.609798	-43.577201
00596	662148	-0.222218	9.815906	0.301934				-0.007054	0.001589	-0.000258				88.035036	1.609881	-43.576754
00597	662198	-0.220102	9.802999	0.294390				-0.001315	0.000661	0.001552				88.037057	1.607989	-43.576781
00598	662248	-0.223089	9.816798	0.289644				-0.002864	0.001861	0.000664				88.036263	1.607818	-43.576238
00599	662298	-0.205444	9.797888	0.284087				-0.003624	-0.000811	-0.001627				88.037587	1.606816	-43.576721
00600	662348	-0.213121	9.794909	0.301904				-0.006642	-0.001475	-0.000951				88.035666	1.607073	-43.577150
00601	662398	-0.217200	9.802305	0.280126				-0.007043	0.003169	-0.001562				88.036054	1.606090	-43.576498
00602	662448	-0.229600	9.785321	0.294983				-0.002753	-0.002859	0.000962				88.035248	1.605784	-43.577306
00603	662498	-0.212276	9.802407	0.293168				-0.002530	-0.001956	-0.001508				88.036871	1.604723	-43.578137
00604	662548	-0.223790	9.829198	0.285327				-0.002426	0.000824	-0.003095				88.036190	1.605615	-43.577939
00605	662598	-0.231727	9.824591	0.315582				-0.003274	-0.000574	-0.001079				88.037617	1.604455	-43.578321
00606	662648	-0.216559	9.786509	0.290175				-0.006059	-0.002860	-0.002239				88.035859	1.605068	-43.579165
00607	662698	-0.236098	9.818411	0.297135				-0.003574	0.001811	-0.002538				88.037209	1.604338	-43.578894
00608	662748	-0.223172	9.815418	0.302084				-0.001646	-0.001421	-0.001280				88.036729	1.604690	-43.579312
00609	662798	-0.227447	9.814778	0.309136				-0.004461	0.001766	0.001599				88.037823	1.602776	-43.579014
00610	662848	-0.241388	9.805048	0.298667				-0.005330	0.000614	-0.001258				88.036297	1.603143	-43.578856
00611	662898	-0.241708	9.834976	0.279960				-0.004540	0.001856	-0.002474				88.037396	1.602396	-43.578579
00612	662948	-0.230045	9.819692	0.280862				-0.004303	0.002634	-0.001988				88.036182	1.602988	-43.577841
00613	662998	-0.231273	9.814324	0.305459				-0.001160	0.001433	-0.001685				88.038243	1.602019	-43.577667
00614	663048	-0.227820	9.832877	0.289201				-0.002402	-0.000785	-0.001242				88.037565	1.602369	-43.577914
00615	663098	-0.228054	9.812401	0.278416				-0.002423	-0.000342	-0.003776				88.039219	1.601972	-43.578262
00616	663148	-0.219829	9.819228	0.288434				-0.002689	0.003246	-0.001670				88.038473	1.602481	-43.577347
00617	663198	-0.225547	9.806851	0.286077				-0.002994	0.000888	0.000983				88.039991	1.600723	-43.577311
00618	663248	-0.225915	9.832177	0.274602				-0.002696	0.001272	-0.003283				88.039225	1.601674	-43.576978
00619	663298	-0.217688	9.816865	0.289632				-0.003815	0.003519	-0.000673				88.040565	1.600433	-43.576223
00620	663348	-0.214965	9.824129	0.297758				-0.003591	0.001322	-0.002386				88.039545	1.601130	-43.575868
00621	663398	-0.225112	9.813418	0.307485				-0.005361	-0.000517	-0.001170				88.040372	1.599978	-43.576248
00622	663448	-0.206239	9.812022	0.305442				-0.004397	-0.000468	-0.000343				88.039108	1.600070	-43.576383
00623	663498	-0.219972	9.812826	0.288248				-0.005604	0.004229	-0.001305				88.039908	1.599010	-43.575431
00624	663548	-0.225869	9.829618	0.286103				-0.002758	0.002503	0.000222				88.039143	1.598974	-43.574717
00625	663598	-0.236291	9.821301	0.279215				-0.004645	-0.000957	-0.002649				88.040173	1.598234	-43.575263
00626	663648	-0.238370	9.809161	0.280201				-0.004219	0.001354	0.001984				88.038966	1.597678	-43.574849
00627	663698	-0.219470	9.813702	0.293440				-0.002649	0.003224	0.002081				88.040619	1.595625	-43.574169
00628	663748	-0.240532	9.808778	0.288112				-0.004301	0.002175	-0.006352				88.039396	1.597466	-43.573601
00629	663798	-0.228544	9.824444	0.297163				-0.005383	-0.001912	-0.002620				88.040219	1.596721	-43.574418
00630	663848	-0.239782	9.812105	0.303694				-0.004177	-0.002433	-0.000381				88.039004	1.596804	-43.575115
00631	663898	-0.234364	9.817992	0.295475				-0.003792	0.001610	-0.002672				88.040312	1.596095	-43.574936
00632	663948	-0.257525	9.811260	0.313598				-0.004483	-0.001991	-0.001463				88.039015	1.596494	-43.575523
00633	663998	-0.227772	9.805177	0.316565				-0.004847	-0.001112	0.003124				88.039964	1.594100	-43.576047
00634	664048	-0.221614	9.808699	0.293059				-0.005921	-0.000752	0.000917				88.038264	1.593827	-43.576250
00635	664098	-0.252321	9.824616	0.297469				-0.003725	-0.001486	0.000554				88.039547	1.592170	-43.576913
00636	664148	-0.231709	9.819192	0.312166				-0.002690	0.003275	-0.003530				88.038805	1.593215	-43.576012
00637	664198	-0.212079	9.813717	0.282244				-0.005373	-0.000969	-0.000179				88.039640	1.591772	-43.576512
00638	664248	-0.221396	9.807144	0.286319				-0.005706	0.002122	-0.004268				88.038013	1.593011	-43.575943
00639	664298	-0.216961	9.809093	0.285940				-0.000861	0.000241	0.000137				88.040150	1.591492	-43.576103
00640	664348	-0.224461	9.796901	0.286116				-0.004175	-0.001296	0.001712				88.038942	1.590990	-43.576459
00641	664398	-0.209423	9.786663	0.285461				-0.001504	0.000103	-0.000826				88.040885	1.589737	-43.576642
00642	664448	-0.221340	9.821093	0.289416				-0.003105	0.002205	-0.002635				88.040011	1.590513	-43.576040
00643	664498	-0.220950	9.830115	0.289089				0.000226	-0.000903	-0.001860				88.042453	1.589552	-43.576553
00644	664548	-0.225678	9.806025	0.293978				-0.003297	0.003234	-0.001959				88.041522	1.590142	-43.575640
00645	664598	-0.219668	9.822171	0.312907				-0.003602	-0.000092	0.000625				88.042855	1.588465	-43.575859
00646	664648	-0.225336	9.819609	0.290173				-0.003792	0.002676	-0.001224				88.041800	1.588844	-43.575104
00647	664698	-0.233877	9.807272	0.283066				-0.006251	-0.003763	-0.000414				88.042355	1.587441	-43.576443
00648	664748	-0.217250	9.815877	0.292752				-0.003622	-0.003013	-0.002984				88.041289	1.588265	-43.577335
00649	664798	-0.227627	9.820112	0.270940				-0.002305	0.001182	-0.002514				88.043012	1.587497	-43.577271
00650	664848	-0.227949	9.815317	0.289837				-0.000112	-0.001562	-0.003916				88.042961	1.588601	-43.577759
00651	664898	-0.217796	9.810843	0.279564				-0.004029	0.000957	-0.002126				88.044205	1.587723	-43.577775
00652	664948	-0.215573	9.809102	0.286723				-0.001919	0.000355	0.001907				88.043648	1.587182	-43.577648
00653	664998	-0.240417	9.807338	0.289266				-0.002177	0.000089	-0.002518				88.045414	1.586406	-43.577888
00654	665048	-0.222138	9.833924	0.287485				-0.002867	0.000881	-0.001176				88.044605	1.586755	-43.577643
00655	665098	-0.225309	9.815308	0.307721				-0.005615	-0.000291	0.001209				88.045356	1.584905	-43.577936
00656	665148	-0.229979	9.814655	0.299801				-0.005046	-0.002122	0.001229				88.043883	1.584530	-43.578512
00657	665198	-0.233772	9.826564	0.293982				-0.001782	0.001971	-0.001165				88.045800	1.583387	-43.578221
00658	665248	-0.228392	9.822400	0.291110				-0.002635	0.000863	0.000985				88.045054	1.583111	-43.577971
00659	665298	-0.228635	9.814467	0.297853				-0.002874	-0.002027	-0.000642				88.046573	1.581776	-43.578774
00660	665348	-0.227371	9.802412	0.311709				-0.002914	-0.001768	-0.001314				88.045727	1.582140	-43.579300
00661	665398	-0.214014	9.815876	0.279619				-0.004227	0.003188	-0.002114				88.046905	1.581272	-43.578653
00662	665448	-0.224388	9.819957	0.299461				-0.002117	-0.000491	0.000679				88.046298	1.581072	-43.578790
00663	665498	-0.194712	9.793547	0.297246				-0.005787	0.000966	-0.000489				88.047014	1.579718	-43.578735
00664	665548	-0.225801	9.806773	0.291634				-0.005203	0.001109	0.002334				88.045533	1.579065	-43.578394
00665	665598	-0.218265	9.804909	0.295200				-0.003790	0.000641	-0.001009				88.046826	1.577850	-43.578441
00666	665648	-0.245833	9.808961	0.271616				-0.004527	0.002468	-0.003207				88.045546	1.578792	-43.577765
00667	665698	-0.229933	9.815753	0.290192				-0.003147	0.003923	0.000936				88.047045	1.577066	-43.576870
00668	665748	-0.237779	9.823235	0.291190				-0.003870	0.004228	-0.000600				88.045972	1.577283	-43.575665
00669	665798	-0.213068	9.787860	0.297356				-0.004745	-0.000830	-0.001755				88.046983	1.576265	-43.576162
00670	665848	-0.218612	9.799549	0.288380				-0.002875	0.002082	-0.001387				88.046184	1.576685	-43.575581
00671	665898	-0.230527	9.798360	0.294647				0.000172	0.000975	-0.000182				88.048605	1.575231	-43.575554
00672	665948	-0.253271	9.840071	0.309960				-0.002766	0.000660	-0.000171				88.047813	1.575284	-43.575357
00673	665998	-0.239014	9.800342	0.282128				-0.005165	0.000523	-0.001258				88.048707	1.574156	-43.575459
00674	666048	-0.223881	9.813039	0.301463				-0.004601	-0.000184	-0.001396				88.047390	1.574553	-43.575526
00675	666098	-0.228519	9.807503	0.288020				-0.004936	-0.000769	-0.001847				88.048347	1.573573	-43.576005
00676	666148	-0.231658	9.824763	0.289222				-0.003494	0.000928	-0.005368				88.047350	1.575119	-43.575787
00677	666198	-0.211869	9.804929	0.299505				-0.006001	-0.001559	-0.001303				88.048008	1.573980	-43.576480
00678	666248	-0.219750	9.817132	0.285824				-0.003789	0.001612	-0.000586				88.046938	1.574163	-43.576023
00679	666298	-0.218376	9.827166	0.298273				-0.003748	-0.001914	-0.002339				88.048219	1.573303	-43.576840
00680	666348	-0.215549	9.803916	0.284864				-0.003662	-0.000357	-0.000696				88.047167	1.573498	-43.576948
00681	666398	-0.225150	9.811633	0.284877				-0.002344	0.001378	-0.001298				88.048882	1.572377	-43.576796
00682	666448	-0.215903	9.804451	0.296291				-0.001826	0.004395	-0.001985				88.048401	1.572988	-43.575555
00683	666498	-0.220471	9.812011	0.294438				-0.003414	-0.000322	-0.002263				88.049779	1.572119	-43.575930
00684	666548	-0.229154	9.823253	0.281469				-0.001709	0.000513	-0.002652				88.049293	1.572885	-43.575811
00685	666598	-0.223262	9.816828	0.287719				-0.002430	0.000215	0.001583				88.050969	1.570927	-43.575963
00686	666648	-0.219746	9.811665	0.302092				-0.000912	-0.000343	-0.001504				88.050693	1.571353	-43.576072
00687	666698	-0.222524	9.814149	0.276823				-0.005823	-0.000880	0.000176				88.051396	1.569785	-43.576579
00688	666748	-0.231242	9.805050	0.275522				-0.000920	-0.000119	-0.001951				88.051134	1.570342	-43.576634
00689	666798	-0.223992	9.791122	0.292099				-0.003468	0.000650	0.000657				88.052513	1.568655	-43.576703
00690	666848	-0.246632	9.824346	0.304438				-0.004901	0.001366	-0.001864				88.051117	1.569202	-43.576337
00691	666898	-0.220684	9.811389	0.288669				-0.001805	-0.001519	-0.001054				88.052967	1.567970	-43.577045
00692	666948	-0.238226	9.830778	0.309627				-0.004351	0.000887	-0.003055				88.051732	1.568850	-43.576823
00693	666998	-0.235764	9.812295	0.294494				-0.001816	-0.000328	-0.003553				88.053578	1.568353	-43.577168
00694	667048	-0.216905	9.803994	0.294257				-0.005517	-0.000787	-0.005183				88.051992	1.569829	-43.577440
00695	667098	-0.239192	9.817960	0.308999				-0.007121	0.000649	-0.000101				88.052329	1.568354	-43.577511
00696	667148	-0.251527	9.831555	0.294256				0.000001	-0.001043	-0.003426				88.052316	1.569322	-43.577838
00697	667198	-0.220523	9.814213	0.305094				-0.007163	0.001010	0.000542				88.052661	1.567670	-43.577785
00698	667248	-0.233686	9.799780	0.292738				-0.000365	-0.003693	-0.002449				88.052528	1.568335	-43.578866
00699	667298	-0.228518	9.799843	0.292285				-0.002375	-0.003060	-0.004651				88.054193	1.568125	-43.580004
00700	667348	-0.217715	9.805346	0.282614				-0.000577	-0.001855	-0.002088				88.054004	1.568705	-43.580554
00701	667398	-0.232162	9.816675	0.290440				-0.003701	0.000805	-0.000522				88.055333	1.567348	-43.580603
00702	667448	-0.202011	9.791799	0.281600				-0.003158	0.000780	-0.001652				88.054435	1.567827	-43.580397
00703	667498	-0.224072	9.826344	0.300504				-0.003607	-0.000197	-0.003035				88.055757	1.567184	-43.580725
00704	667548	-0.223872	9.817224	0.276808				-0.006894	0.003294	-0.005606				88.053817	1.568822	-43.579845
00705	667598	-0.235469	9.802358	0.277533				-0.003364	0.002362	-0.000902				88.055234	1.567583	-43.579417
00706	667648	-0.218804	9.805522	0.301457				-0.004649	0.001239	-0.003181				88.053910	1.568504	-43.579090
00707	667698	-0.233524	9.816195	0.289458				-0.001957	0.002584	0.000282				88.055756	1.566932	-43.578603
00708	667748	-0.225853	9.821719	0.291593				-0.003918	-0.001562	-0.001337				88.054620	1.567300	-43.579061
00709	667798	-0.212167	9.810225	0.293917				-0.003075	0.001138	-0.003159				88.056123	1.566700	-43.579000
00710	667848	-0.232023	9.797201	0.307379				-0.001016	-0.001279	-0.002340				88.055821	1.567357	-43.579398
00711	667898	-0.249648	9.811572	0.284272				-0.001857	0.002492	0.000798				88.057683	1.565632	-43.578912
00712	667948	-0.256391	9.802118	0.291548				-0.003838	0.002965	-0.003718				88.056609	1.566724	-43.578107
00713	667998	-0.235140	9.820883	0.291985				-0.006998	-0.000419	-0.002383				88.056997	1.565892	-43.578533
00714	668048	-0.252164	9.817970	0.297757				-0.005390	-0.002418	0.000943				88.055441	1.565595	-43.579216
00715	668098	-0.237458	9.809946	0.275807				-0.002087	-0.000653	-0.000662				88.057180	1.564268	-43.579610
00716	668148	-0.227886	9.805150	0.271971				-0.003790	0.002614	-0.002153				88.056118	1.564911	-43.578890
00717	668198	-0.246369	9.812163	0.278947				-0.001645	-0.002551	-0.001125				88.057995	1.563692	-43.579832
00718	668248	-0.226041	9.817309	0.300254				-0.004613	0.001373	-0.001001				88.056668	1.563992	-43.579436
00719	668298	-0.244055	9.819937	0.284489				-0.005026	0.002433	0.000998				88.057647	1.562207	-43.578998
00720	668348	-0.235868	9.817316	0.276265				-0.003634	0.001844	0.000698				88.056622	1.562025	-43.578468
00721	668398	-0.222455	9.804204	0.291355				-0.003511	-0.002134	0.000200				88.057979	1.560431	-43.579344
00722	668448	-0.236682	9.820617	0.292682				-0.007114	0.000557	0.001148				88.055951	1.560112	-43.579175
00723	668498	-0.207654	9.821024	0.304906				-0.003383	0.000707	-0.003256				88.057368	1.559541	-43.579247
00724	668548	-0.215938	9.804986	0.291985				-0.001882	0.000430	0.004534				88.056823	1.558252	-43.579073
00725	668598	-0.241568	9.814976	0.269602				-0.003793	-0.000297	-0.000884				88.058115	1.556978	-43.579446
00726	668648	-0.209143	9.812454	0.274946				-0.003562	0.002389	-0.001609				88.057117	1.557461	-43.578777
00727	668698	-0.210572	9.811390	0.280661				0.000283	-0.001615	0.000347				88.059566	1.555831	-43.579497
00728	668748	-0.220364	9.806880	0.273572				-0.002857	0.000233	-0.003164				88.058764	1.556743	-43.579465
00729	668798	-0.213705	9.809900	0.313546				-0.000305	-0.000204	-0.001729				88.061024	1.555718	-43.579784
00730	668848	-0.226360	9.812041	0.287619				-0.006554	-0.000215	-0.000554				88.059144	1.555873	-43.579849
00731	668898	-0.242441	9.809438	0.289699				-0.000718	0.000401	-0.005024				88.061328	1.555797	-43.580068
00732	668948	-0.228185	9.813787	0.296345				-0.000694	0.002860	-0.003474				88.061147	1.556818	-43.579279
00733	668998	-0.242113	9.820851	0.288094				-0.003627	0.000717	0.001336				88.062483	1.554929	-43.579319
00734	669048	-0.233655	9.819363	0.299583				-0.003920	0.003877	-0.000216				88.061387	1.555031	-43.578204
00735	669098	-0.243180	9.813119	0.296665				-0.003817	0.002317	-0.002889				88.062704	1.554359	-43.577846
00736	669148	-0.223314	9.819744	0.282668				-0.008730	0.001947	0.000681				88.060217	1.554182	-43.577281
00737	669198	-0.237334	9.827033	0.291381				-0.001944	-0.001037	-0.001469				88.062028	1.553077	-43.577856
00738	669248	-0.252916	9.835745	0.298410				-0.002555	-0.001854	0.000809				88.061278	1.552827	-43.578376
00739	669298	-0.245284	9.821963	0.290301				-0.004799	-0.001888	0.001743				88.062270	1.550794	-43.579180
00740	669348	-0.244113	9.824223	0.298592				0.000642	-0.000405	0.002284				88.062441	1.550135	-43.579264
00741	669398	-0.217076	9.818314	0.288019				-0.006377	-0.001366	0.003415				88.062987	1.547637	-43.579878
00742	669448	-0.216465	9.803394	0.303089				-0.004210	-0.001732	-0.004292				88.061766	1.548848	-43.580413
00743	669498	-0.227449	9.801783	0.290433				-0.004798	0.003311	0.000935				88.062774	1.547091	-43.579717
00744	669548	-0.232266	9.819210	0.295097				-0.004790	-0.000213	-0.001748				88.061399	1.547590	-43.579792
00745	669598	-0.218149	9.817986	0.293283				-0.004612	0.002376	-0.000867				88.062491	1.546348	-43.579375
00746	669648	-0.211463	9.807856	0.278835				-0.004507	0.000119	0.002200				88.061196	1.545719	-43.579315
00747	669698	-0.218579	9.811394	0.290086				-0.002936	0.000814	-0.002933				88.062728	1.545056	-43.579391
00748	669748	-0.221732	9.814022	0.301583				-0.003129	0.002147	0.000539				88.061856	1.544926	-43.578769
00749	669798	-0.201043	9.808553	0.288185				-0.005447	-0.001679	0.000329				88.062664	1.543295	-43.579518
00750	669848	-0.209723	9.800263	0.295606				-0.003394	-0.002106	-0.004041				88.061680	1.544437	-43.580156
00751	669898	-0.218077	9.812354	0.289621				-0.002675	0.002836	-0.002112				88.063295	1.543533	-43.579611
00752	669948	-0.218328	9.815688	0.288291				-0.007546	0.000849	-0.001275				88.061145	1.543905	-43.579383
00753	669998	-0.229038	9.833976	0.278682				-0.004564	0.001509	-0.003490				88.062220	1.543401	-43.579221
00754	670048	-0.240804	9.811447	0.299377				-0.004432	0.000479	-0.002985				88.060963	1.544263	-43.579116
00755	670098	-0.226039	9.801132	0.287734				-0.003697	0.003759	-0.001843				88.062284	1.543307	-43.578313
00756	670148	-0.224471	9.802200	0.312065				-0.005867	-0.000540	0.000640				88.060613	1.543121	-43.578466
00757	670198	-0.254404	9.804567	0.288123				-0.003421	0.001080	-0.001603				88.062013	1.542072	-43.578417
00758	670248	-0.226749	9.794643	0.308363				-0.002640	-0.003492	-0.000443				88.061234	1.542165	-43.579420
00759	670298	-0.256573	9.817459	0.296698				-0.000680	0.000384	-0.003668				88.063428	1.541701	-43.579613
00760	670348	-0.236791	9.801097	0.296634				-0.001466	0.001183	0.000153				88.063018	1.541669	-43.579268
00761	670398	-0.253289	9.823968	0.276882				-0.002331	0.000429	0.002306				88.064735	1.539497	-43.579367
00762	670448	-0.238877	9.812549	0.275025				0.000700	0.003678	0.001064				88.064961	1.539228	-43.578301
00763	670498	-0.236012	9.818288	0.274696				-0.005539	0.000843	-0.004805				88.065729	1.539092	-43.578351
00764	670548	-0.209813	9.806396	0.282668				-0.003953	-0.001483	-0.001459				88.064579	1.539495	-43.578780
00765	670598	-0.232416	9.809273	0.277904				0.000022	0.002762	0.000966				88.066991	1.537731	-43.578256
00766	670648	-0.219265	9.804443	0.294004				-0.003486	0.002985	-0.003713				88.066015	1.538827	-43.577435
00767	670698	-0.222041	9.820621	0.288884				-0.001509	-0.001930	-0.003932				88.067934	1.538412	-43.578297
00768	670748	-0.218341	9.828214	0.291792				-0.002418	-0.000589	-0.004567				88.067233	1.539714	-43.578514
00769	670798	-0.220222	9.805175	0.291864				-0.004468	-0.003562	-0.001980				88.068307	1.538729	-43.579838
00770	670848	-0.206503	9.792521	0.293009				-0.006256	0.000089	-0.003463				88.066518	1.539719	-43.579850
00771	670898	-0.224192	9.814366	0.277159				-0.002307	0.001264	-0.000866				88.068239	1.538459	-43.579771
00772	670948	-0.233703	9.821999	0.297845				-0.002056	-0.002513	0.000456				88.067629	1.538305	-43.580488
00773	670998	-0.232399	9.796240	0.277073				-0.003563	0.000269	-0.003147				88.068987	1.537686	-43.580691
00774	671048	-0.224442	9.810325	0.292704				-0.003709	-0.001654	-0.007678				88.067919	1.539871	-43.581242
00775	671098	-0.238938	9.804144	0.296868				-0.000661	-0.000063	-0.000238				88.070098	1.538422	-43.581525
00776	671148	-0.248150	9.812955	0.303405				-0.001623	0.002079	0.000006				88.069649	1.538440	-43.580927
00777	671198	-0.228582	9.815095	0.288069				-0.006402	-0.002206	-0.002188				88.070189	1.537535	-43.581878
00778	671248	-0.217678	9.804523	0.274537				-0.001659	-0.001150	-0.002231				88.069696	1.538164	-43.582231
00779	671298	-0.240109	9.810085	0.280408				-0.004123	0.003009	-0.001045				88.070928	1.536974	-43.581648
00780	671348	-0.235633	9.807770	0.295669				-0.001583	-0.001436	-0.000272				88.070454	1.537036	-43.582053
00781	671398	-0.239858	9.823934	0.289852				0.001667	0.003508	0.000802				88.073345	1.535325	-43.581322
00782	671448	-0.240991	9.818494	0.288372				-0.004601	0.002033	-0.000694				88.072036	1.535545	-43.580743
00783	671498	-0.237160	9.810227	0.304838				-0.004405	0.001843	-0.000823				88.073186	1.534293	-43.580487
00784	671548	-0.235837	9.818128	0.300733				-0.003567	-0.001442	-0.000783				88.072150	1.534505	-43.580911
00785	671598	-0.225218	9.808835	0.296811				-0.002372	0.003456	-0.000568				88.073864	1.533181	-43.580189
00786	671648	-0.212673	9.806304	0.286267				-0.003412	-0.001015	0.001271				88.072880	1.532804	-43.580470
00787	671698	-0.218700	9.827192	0.295608				-0.001550	0.005060	0.001266				88.074849	1.530977	-43.579286
00788	671748	-0.206188	9.788224	0.310236				-0.006051	0.000393	0.000966				88.073117	1.530707	-43.579161
00789	671798	-0.223383	9.821561	0.287861				-0.006782	-0.001013	-0.000191				88.073551	1.529236	-43.579713
00790	671848	-0.223322	9.834563	0.290778				-0.000120	-0.002830	0.000546				88.073485	1.529055	-43.580511
00791	671898	-0.219549	9.805911	0.290939				-0.005935	0.001255	-0.004869				88.074191	1.528945	-43.580477
00792	671948	-0.214777	9.808086	0.291978				-0.000774	0.001185	-0.003438				88.073976	1.529939	-43.580170
00793	671998	-0.223101	9.814729	0.285394				-0.004111	-0.000516	-0.002222				88.075171	1.529057	-43.580612
00794	672048	-0.218314	9.814178	0.278479				-0.006496	0.000862	-0.002498				88.073325	1.529782	-43.580395
00795	672098	-0.232854	9.808602	0.289956				-0.005582	0.002494	-0.002392				88.074103	1.528974	-43.579957
00796	672148	-0.227850	9.818597	0.307937				-0.004303	0.001318	-0.004393				88.072891	1.530244	-43.579627
00797	672198	-0.238897	9.827137	0.298819				-0.002958	-0.000698	-0.005749				88.074417	1.530370	-43.580176
00798	672248	-0.254229	9.825066	0.313343				-0.004552	-0.000047	-0.006285				88.073101	1.532164	-43.580245
00799	672298	-0.260328	9.815308	0.279129				-0.003954	-0.001185	0.001534				88.074333	1.530194	-43.580866
00800	672348	-0.250048	9.824578	0.302020				-0.003617	-0.001027	-0.002864				88.073296	1.531001	-43.581191
00801	672398	-0.229307	9.811514	0.304565				-0.003259	-0.001954	-0.000177				88.074709	1.529527	-43.582010
00802	672448	-0.237377	9.834080	0.295910				-0.001746	0.001021	0.002147				88.074211	1.528920	-43.581687
00803	672498	-0.222032	9.818051	0.301578				-0.002903	0.001996	-0.000349				88.075770	1.527526	-43.581399
00804	672548	-0.248926	9.824152	0.283999				-0.001906	-0.002447	-0.001846				88.075204	1.528034	-43.582112
00805	672598	-0.230912	9.805128	0.317248				-0.002787	-0.000317	0.003522				88.076780	1.525510	-43.582463
00806	672648	-0.206019	9.813386	0.278366				-0.006117	0.002866	-0.005789				88.075053	1.527194	-43.581701
00807	672698	-0.226876	9.817664	0.276444				-0.001471	0.000278	-0.000586				88.076992	1.525857	-43.581896
00808	672748	-0.236506	9.825020	0.284170				-0.001860	-0.001375	0.002616				88.076456	1.525097	-43.582259
00809	672798	-0.241977	9.838245	0.283035				-0.001758	0.000979	-0.003079				88.078331	1.524473	-43.582267
00810	672848	-0.221105	9.809602	0.280575				-0.002994	0.001701	-0.000542				88.077478	1.524646	-43.581773
00811	672898	-0.215409	9.812987	0.280937				-0.001148	0.000088	-0.000589				88.079538	1.523307	-43.582039
00812	672948	-0.214847	9.801324	0.284589				-0.003184	0.001504	-0.001889				88.078641	1.523866	-43.581626
00813	672998	-0.226396	9.808487	0.302664				-0.004070	0.000425	0.000990				88.079873	1.522073	-43.581787
00814	673048	-0.235081	9.834789	0.297647				-0.002161	0.001652	-0.001185				88.079259	1.522430	-43.581320
00815	673098	-0.242910	9.819378	0.290820				-0.006559	0.002124	-0.001075				88.079764	1.521243	-43.580976
00816	673148	-0.232463	9.823576	0.273390				-0.004426	0.000319	-0.003017				88.078489	1.522108	-43.580904
00817	673198	-0.248804	9.825747	0.288777				-0.002485	0.001705	-0.003975				88.080186	1.521755	-43.580754
00818	673248	-0.224792	9.803886	0.310153				-0.008486	0.001889	-0.003637				88.077774	1.522818	-43.580255
00819	673298	-0.229281	9.800913	0.284083				-0.000218	-0.000992	-0.000304				88.080086	1.521388	-43.580831
00820	673348	-0.243559	9.821262	0.306384				-0.005408	0.003113	-0.002035				88.078544	1.521998	-43.579949
00821	673398	-0.250262	9.817696	0.317320				-0.004005	0.003265	-0.002392				88.079818	1.521204	-43.579336
00822	673448	-0.242276	9.821917	0.296263				-0.003169	0.003349	-0.002521				88.078935	1.521959	-43.578407
00823	673498	-0.235575	9.818643	0.298170				-0.006714	-0.000915	0.000643				88.079380	1.520260	-43.578922
00824	673548	-0.220491	9.809427	0.292772				-0.004023	0.001746	-0.002529				88.078243	1.521004	-43.578453
00825	673598	-0.213018	9.803304	0.280506				-0.003393	-0.000622	0.002942				88.079626	1.518645	-43.578857
00826	673648	-0.230595	9.808192	0.287776				-0.002852	0.002416	0.000649				88.078820	1.518485	-43.578159
00827	673698	-0.230779	9.823637	0.285999				0.000682	0.001220	0.000342				88.081417	1.516898	-43.578068
00828	673748	-0.233078	9.816173	0.307006				-0.004157	-0.001394	-0.004916				88.080212	1.518292	-43.578513
00829	673798	-0.243310	9.818324	0.281824				-0.002312	-0.000580	0.000919				88.081930	1.516513	-43.578973
00830	673848	-0.201590	9.799628	0.266468				-0.007866	0.003845	-0.001962				88.079701	1.517112	-43.577889
00831	673898	-0.218435	9.812430	0.284371				-0.003991	0.002711	-0.004095				88.080946	1.516805	-43.577435
00832	673948	-0.240267	9.818240	0.305608				-0.003964	0.001679	-0.005446				88.079828	1.518379	-43.577007
00833	673998	-0.195419	9.790329	0.290052				-0.004282	-0.002360	-0.001367				88.080959	1.517239	-43.577983
00834	674048	-0.213126	9.812598	0.292341				0.002479	0.000995	-0.000433				88.081678	1.517368	-43.577702
00835	674098	-0.227412	9.816986	0.289652				-0.002372	0.000031	-0.002961				88.083363	1.516713	-43.578003
00836	674148	-0.238022	9.807918	0.299647				-0.005552	0.002855	0.000948				88.081795	1.516467	-43.577176
00837	674198	-0.230402	9.822081	0.294800				-0.005513	0.002369	-0.002424				88.082605	1.515681	-43.576795
00838	674248	-0.253307	9.829748	0.286995				-0.005728	-0.002261	-0.003924				88.080948	1.516781	-43.577475
00839	674298	-0.232589	9.831589	0.292084				-0.004473	-0.000032	-0.000451				88.082034	1.515405	-43.577758
00840	674348	-0.239820	9.815535	0.296728				-0.003825	-0.000314	-0.000744				88.080937	1.515618	-43.577855
00841	674398	-0.227817	9.818873	0.274102				-0.003193	-0.002082	-0.000820				88.082389	1.514323	-43.578770
00842	674448	-0.233679	9.824040	0.288586				-0.005889	0.002137	-0.002006				88.080712	1.514918	-43.578174
00843	674498	-0.229402	9.804244	0.298898				-0.006790	-0.000560	0.000482				88.081119	1.513271	-43.578606
00844	674548	-0.252655	9.825321	0.313378				-0.005496	0.002983	-0.000365				88.079562	1.513408	-43.577751
00845	674598	-0.231646	9.801884	0.295858				-0.001125	-0.000018	-0.004982				88.081627	1.513332	-43.578100
00846	674648	-0.230293	9.801271	0.305945				-0.002702	-0.001027	0.002299				88.080839	1.512661	-43.578375
00847	674698	-0.221737	9.814483	0.286693				0.000793	-0.000758	-0.004028				88.083458	1.512313	-43.578924
00848	674748	-0.230228	9.816657	0.277754				-0.004733	-0.000108	-0.003240				88.082103	1.513238	-43.578990
00849	674798	-0.237633	9.814336	0.283651				-0.007158	-0.000376	-0.001729				88.082416	1.512238	-43.579387
00850	674848	-0.228016	9.798003	0.304802				-0.001853	0.003082	-0.002941				88.081896	1.513108	-43.578526
00851	674898	-0.225633	9.801726	0.295897				-0.003632	0.004727	-0.002097				88.083286	1.512257	-43.577492
00852	674948	-0.213783	9.807412	0.290777				-0.002497	0.000896	-0.003885				88.082569	1.513378	-43.577274
00853	674998	-0.233362	9.808447	0.300446				-0.002170	-0.000098	-0.002253				88.084319	1.512527	-43.577619
00854	675048	-0.212503	9.809203	0.282639				-0.002921	0.001514	-0.000767				88.083497	1.512765	-43.577192
00855	675098	-0.236742	9.819780	0.285152				-0.003622	-0.001605	-0.000752				88.084827	1.511466	-43.577951
00856	675148	-0.233419	9.804281	0.261983				-0.004075	0.003096	-0.006402				88.083685	1.513327	-43.577132
00857	675198	-0.223900	9.818576	0.296454				-0.006693	-0.000756	-0.001509				88.084126	1.512250	-43.577622
00858	675248	-0.232401	9.830778	0.298615				-0.004214	-0.001422	-0.002192				88.082904	1.512864	-43.578043
00859	675298	-0.236983	9.800576	0.284495				-0.003665	0.001493	-0.003590				88.084266	1.512410	-43.577963
00860	675348	-0.238876	9.821013	0.295759				-0.004331	-0.003457	0.001875				88.082995	1.511837	-43.578935
00861	675398	-0.226517	9.801014	0.280126				-0.005739	0.001166	-0.003009				88.083732	1.511217	-43.578909
00862	675448	-0.226807	9.808436	0.290671				-0.004755	-0.000298	-0.001188				88.082372	1.511553	-43.579013
00863	675498	-0.247952	9.818259	0.298218				-0.004341	0.001742	-0.001115				88.083529	1.510403	-43.578819
00864	675548	-0.236371	9.825113	0.293505				-0.001614	0.001727	-0.001509				88.083083	1.510854	-43.578345
00865	675598	-0.226000	9.798218	0.291810				-0.003778	-0.001027	-0.002317				88.084357	1.510013	-43.578952
00866	675648	-0.240545	9.817394	0.298775				-0.000792	-0.001909	0.000592				88.084119	1.509827	-43.579495
00867	675698	-0.235963	9.816254	0.283349				-0.006625	0.001991	-0.001972				88.084589	1.508912	-43.579243
00868	675748	-0.233759	9.827284	0.293286				-0.003764	-0.000511	-0.002313				88.083509	1.509573	-43.579411
00869	675798	-0.241951	9.833817	0.293904				-0.004831	0.000053	-0.001314				88.084505	1.508464	-43.579727
00870	675848	-0.238814	9.815810	0.279606				-0.001536	0.000143	-0.001550				88.084079	1.508911	-43.579707
00871	675898	-0.206418	9.801950	0.281287				-0.005020	0.000019	-0.000869				88.085010	1.507665	-43.579990
00872	675948	-0.214747	9.810701	0.291870				-0.007459	0.001074	-0.001308				88.082881	1.508052	-43.579694
00873	675998	-0.218997	9.818335	0.301008				-0.007039	0.001656	-0.004092				88.083257	1.507744	-43.579556
00874	676048	-0.225497	9.809165	0.274814				-0.004584	-0.000647	0.000763				88.081937	1.507521	-43.579733
00875	676098	-0.217900	9.812414	0.285498				-0.001497	-0.000115	-0.002129				88.083866	1.506632	-43.580062
00876	676148	-0.222434	9.796484	0.299922				-0.001158	0.000512	0.000024				88.083538	1.506632	-43.579919
00877	676198	-0.229837	9.803524	0.298575				-0.003999	-0.000698	0.001854				88.084758	1.504600	-43.580370
00878	676248	-0.237023	9.799015	0.293291				-0.002316	-0.001457	-0.000657				88.084077	1.504776	-43.580781
00879	676298	-0.229832	9.801767	0.274205				-0.006501	0.006158	-0.004745				88.084649	1.504695	-43.579374
00880	676348	-0.222090	9.808417	0.295686				-0.004156	0.003040	-0.000660				88.083482	1.504915	-43.578513
00881	676398	-0.233791	9.811435	0.305572				-0.005084	-0.001916	0.002492				88.084390	1.502697	-43.579339
00882	676448	-0.244748	9.815583	0.273930				-0.003321	0.000752	-0.002918				88.083438	1.503540	-43.579154
00883	676498	-0.252048	9.846022	0.278755				-0.002818	0.006358	-0.003272				88.085055	1.503053	-43.577645
00884	676548	-0.241035	9.818769	0.285573				0.000036	0.002269	-0.001507				88.085077	1.503504	-43.577005
00885	676598	-0.239526	9.807994	0.293552				-0.002626	-0.001041	-0.002450				88.086712	1.502711	-43.577650
00886	676648	-0.247110	9.808126	0.293872				-0.004014	0.001624	-0.001243				88.085564	1.503081	-43.577192
00887	676698	-0.227933	9.810124	0.287603				-0.005375	0.001343	0.001930				88.086427	1.501057	-43.577103
00888	676748	-0.217297	9.800109	0.299883				-0.002257	-0.000652	-0.002902				88.085775	1.501884	-43.577318
00889	676798	-0.227365	9.818805	0.263319				-0.005354	0.002271	-0.002365				88.086620	1.501100	-43.576968
00890	676848	-0.244630	9.827620	0.293296				-0.002010	0.000274	0.001406				88.086054	1.500703	-43.576878
00891	676898	-0.206924	9.798777	0.302121				-0.006183	-0.000107	-0.005714				88.086647	1.500852	-43.577270
00892	676948	-0.229882	9.832697	0.299432				-0.007793	-0.000779	-0.004358				88.084409	1.502087	-43.577528
00893	676998	-0.224563	9.820643	0.269530				-0.002337	-0.001007	-0.003318				88.086083	1.501546	-43.578145
00894	677048	-0.228148	9.802092	0.285206				-0.004122	-0.001226	-0.001104				88.084899	1.501852	-43.578507
00895	677098	-0.219843	9.798257	0.294398				-0.001824	0.002176	-0.002404				88.086787	1.501076	-43.578214
00896	677148	-0.222009	9.817735	0.291118				-0.005476	0.001103	-0.003716				88.085232	1.502151	-43.577937
00897	677198	-0.220375	9.784840	0.287319				-0.004476	0.001869	-0.002301				88.086327	1.501342	-43.577699
00898	677248	-0.222623	9.788731	0.294934				-0.002906	0.002961	-0.002651				88.085518	1.502131	-43.576880
00899	677298	-0.212571	9.806273	0.288225				-0.006574	0.000113	-0.003911				88.086012	1.501773	-43.577181
00900	677348	-0.234361	9.802109	0.279322				-0.008203	0.000152	-0.002780				88.083650	1.502569	-43.577162
00901	677398	-0.215465	9.817139	0.288711				-0.006254	-0.000551	-0.000514				88.084225	1.501229	-43.577604
00902	677448	-0.234332	9.822831	0.273703				-0.003777	-0.000962	-0.000168				88.083132	1.501270	-43.577888
00903	677498	-0.226416	9.811220	0.294742				-0.006427	-0.001267	-0.000230				88.083666	1.499839	-43.578533
00904	677548	-0.229327	9.822559	0.295675				-0.002457	0.000735	-0.004720				88.082959	1.501196	-43.578360
00905	677598	-0.235679	9.808807	0.289931				-0.003217	-0.000500	-0.002319				88.084409	1.500373	-43.578849
00906	677648	-0.239169	9.806514	0.297422				-0.003370	0.002701	0.000360				88.083455	1.500295	-43.578071
00907	677698	-0.252475	9.832623	0.301129				-0.004540	0.002000	-0.002552				88.084575	1.499572	-43.577820
00908	677748	-0.240397	9.819664	0.289498				-0.001037	-0.000001	0.003707				88.084279	1.498512	-43.577781
00909	677798	-0.246822	9.825356	0.300118				-0.006598	0.000477	0.000937				88.084756	1.496769	-43.577953
00910	677848	-0.236242	9.837353	0.284717				-0.003589	0.003273	-0.002521				88.083760	1.497524	-43.577040
00911	677898	-0.224240	9.831219	0.291770				-0.003242	0.000700	0.000769				88.085205	1.495837	-43.577120
00912	677948	-0.230482	9.812245	0.286644				-0.005297	-0.001637	-0.003086				88.083676	1.496708	-43.577626
00913	677998	-0.234709	9.821060	0.264789				-0.004596	0.000608	-0.002304				88.084730	1.495891	-43.577766
00914	678048	-0.223238	9.822026	0.289163				-0.003117	-0.000698	-0.004114				88.083850	1.497067	-43.578010
00915	678098	-0.219085	9.816908	0.285771				-0.001436	0.003116	-0.002178				88.085843	1.496248	-43.577434
00916	678148	-0.227491	9.801314	0.290202				-0.005958	0.001135	-0.001373				88.084137	1.496652	-43.577115
00917	678198	-0.201702	9.810466	0.271321				-0.003090	0.005133	-0.000143				88.085659	1.495269	-43.575983
00918	678248	-0.202637	9.811162	0.271317				-0.002167	0.001109	0.001952				88.085056	1.494725	-43.575653
00919	678298	-0.220073	9.804418	0.295035				0.002302	0.001637	0.000407				88.088072	1.493146	-43.575468
00920	678348	-0.223979	9.821682	0.295412				-0.003255	0.000762	-0.001542				88.087141	1.493593	-43.575270
00921	678398	-0.219682	9.807083	0.292069				-0.004371	-0.001325	-0.000843				88.088264	1.492345	-43.575947
00922	678448	-0.235846	9.827403	0.298892				-0.006258	-0.003066	0.003099				88.086448	1.491432	-43.576796
00923	678498	-0.239251	9.810836	0.294028				-0.003724	0.002627	-0.002428				88.087793	1.490682	-43.576390
00924	678548	-0.237154	9.817255	0.310601				-0.003045	0.000079	-0.004724				88.086922	1.492034	-43.576415
00925	678598	-0.259104	9.824257	0.315263				-0.003970	-0.000866	-0.002572				88.088151	1.491295	-43.576981
00926	678648	-0.240634	9.837459	0.289334				-0.003699	-0.001647	-0.004889				88.087088	1.492680	-43.577504
00927	678698	-0.246880	9.812048	0.286448				-0.003819	0.001626	-0.000060				88.088361	1.491245	-43.577350
00928	678748	-0.234349	9.813976	0.294208				-0.000467	-0.002589	-0.003682				88.088199	1.492272	-43.578126
00929	678798	-0.256730	9.819795	0.252208				-0.002881	-0.002880	0.001197				88.089759	1.490435	-43.579265
00930	678848	-0.243391	9.813763	0.300722				-0.000528	0.000711	-0.000136				88.089624	1.490487	-43.579059
00931	678898	-0.235258	9.819397	0.264357				-0.002591	0.002935	-0.004450				88.091248	1.490310	-43.578574
00932	678948	-0.203249	9.798222	0.279442				-0.001992	-0.000537	0.001080				88.090674	1.489998	-43.578714
00933	678998	-0.228556	9.808385	0.277454				-0.003586	-0.001193	-0.004372				88.092010	1.489767	-43.579411
00934	679048	-0.213731	9.824036	0.288748				-0.008152	0.002775	-0.002286				88.089691	1.490449	-43.578636
00935	679098	-0.224228	9.818882	0.307682				-0.003938	-0.001905	-0.001203				88.090928	1.489310	-43.579507
00936	679148	-0.205105	9.799638	0.294186				-0.006226	0.000513	-0.001988				88.089148	1.489883	-43.579374
00937	679198	-0.228308	9.819238	0.280552				-0.001589	-0.003021	0.000644				88.091021	1.488202	-43.580528
00938	679248	-0.227838	9.814002	0.313414				-0.004602	-0.001272	-0.003059				88.089698	1.489067	-43.580925
00939	679298	-0.231054	9.822104	0.292852				-0.003169	0.001116	-0.002370				88.091182	1.488295	-43.580960
00940	679348	-0.252036	9.807855	0.323425				0.001191	0.002169	-0.000074				88.091543	1.488338	-43.580341
00941	679398	-0.255759	9.832075	0.303514				-0.005165	-0.002565	0.000276				88.092415	1.486774	-43.581380
00942	679448	-0.253407	9.835833	0.292194				-0.001962	-0.002512	-0.001013				88.091832	1.487034	-43.582109
00943	679498	-0.227788	9.809422	0.287247				-0.003158	-0.000205	-0.000972				88.093298	1.485846	-43.582515
00944	679548	-0.225138	9.815260	0.280118				-0.004427	-0.000422	0.000027				88.092021	1.485833	-43.582631
00945	679598	-0.223230	9.817411	0.264679				-0.002950	0.001410	-0.001153				88.093555	1.484726	-43.582542
00946	679648	-0.221248	9.807520	0.277142				-0.000481	0.002334	-0.000901				88.093436	1.485003	-43.581888
00947	679698	-0.236981	9.806452	0.272000				-0.002140	0.000909	-0.002986				88.095216	1.484407	-43.581967
00948	679748	-0.240940	9.822397	0.266052				-0.005341	0.000981	-0.002017				88.093677	1.484990	-43.581702
00949	679798	-0.238056	9.828624	0.279951				-0.004968	-0.001055	-0.005071				88.094624	1.484975	-43.582391
00950	679848	-0.226372	9.801346	0.286685				-0.006724	0.000884	-0.005417				88.092711	1.486538	-43.582190
00951	679898	-0.237188	9.809058	0.280655				-0.001690	0.002369	-0.001562				88.094611	1.485549	-43.581836
00952	679948	-0.229256	9.795747	0.289067				-0.002368	-0.000878	-0.002126				88.093925	1.486147	-43.582106
00953	679998	-0.240536	9.814734	0.310471				-0.003755	-0.002388	-0.000811				88.095206	1.484906	-43.583092
00954	680048	-0.249621	9.822464	0.309224				-0.000834	-0.000265	0.001184				88.094971	1.484567	-43.583156
00955	680098	-0.235387	9.815123	0.320301				-0.004625	0.000859	-0.001082				88.096026	1.483419	-43.583247
00956	680148	-0.225064	9.819233	0.307804				-0.004860	-0.000761	0.000770				88.094622	1.483188	-43.583457
00957	680198	-0.219116	9.820207	0.295534				-0.005390	-0.000515	-0.003044				88.095450	1.482609	-43.583947
00958	680248	-0.223202	9.803020	0.283406				-0.007845	0.001648	0.002140				88.093218	1.482016	-43.583458
00959	680298	-0.217523	9.811901	0.297091				-0.000167	0.001843	0.000420				88.095562	1.480462	-43.583253
00960	680348	-0.210393	9.817527	0.276558				-0.005434	-0.000192	-0.003330				88.094008	1.481415	-43.583337
00961	680398	-0.219741	9.793921	0.291839				-0.001378	-0.000603	-0.001998				88.095996	1.480524	-43.583872
00962	680448	-0.208489	9.818723	0.276975				-0.004075	0.002515	-0.002357				88.094837	1.481220	-43.583175
00963	680498	-0.225012	9.817816	0.276250				-0.007901	-0.001343	-0.005256				88.094931	1.481258	-43.583927
00964	680548	-0.224483	9.815860	0.296030				-0.005394	-0.001284	-0.000066				88.093383	1.481266	-43.584296
00965	680598	-0.235070	9.828220	0.285713				-0.003720	-0.000482	-0.000126				88.094684	1.479844	-43.584764
00966	680648	-0.239743	9.807858	0.295113				-0.001505	0.003137	-0.005567				88.094268	1.481469	-43.583920
00967	680698	-0.253300	9.822186	0.277752				-0.006469	0.002347	-0.002153				88.094808	1.480655	-43.583606
00968	680748	-0.231106	9.814867	0.278343				-0.005295	0.000389	-0.004256				88.093287	1.481875	-43.583527
00969	680798	-0.267891	9.829901	0.304382				-0.004042	0.000444	-0.004322				88.094509	1.481667	-43.583757
00970	680848	-0.227672	9.805783	0.301022				-0.003677	0.000329	-0.000026				88.093450	1.481679	-43.583657
00971	680898	-0.222021	9.813694	0.315680				-0.005493	0.000812	-0.001979				88.094275	1.480806	-43.583780
00972	680948	-0.233023	9.825376	0.302762				-0.003169	0.003338	-0.003474				88.093390	1.481836	-43.582857
00973	680998	-0.226345	9.804773	0.306246				-0.001335	0.001913	-0.003941				88.095375	1.481528	-43.582638
00974	681048	-0.216673	9.813025	0.302162				-0.002813	0.000112	-0.002693				88.094575	1.482302	-43.582635
00975	681098	-0.228677	9.818830	0.315811				-0.000324	0.003711	-0.002040				88.096876	1.481470	-43.581911
00976	681148	-0.230334	9.818825	0.299133				-0.001580	-0.000448	-0.001963				88.096425	1.482030	-43.582059
00977	681198	-0.248281	9.832118	0.299629				0.000120	-0.000217	-0.000873				88.098838	1.480840	-43.582464
00978	681248	-0.206812	9.819694	0.276878				-0.002126	-0.000262	-0.001612				88.098214	1.481293	-43.582549
00979	681298	-0.228116	9.825882	0.273652				0.000220	0.001362	-0.002053				88.100658	1.480450	-43.582521
00980	681348	-0.233321	9.820368	0.258153				-0.003479	0.002013	-0.001169				88.099668	1.480806	-43.581951
00981	681398	-0.225705	9.806155	0.278536				-0.002766	-0.000466	-0.002632				88.101242	1.480114	-43.582432
00982	681448	-0.228015	9.809978	0.274399				-0.000243	0.002132	-0.000412				88.101180	1.480250	-43.581818
00983	681498	-0.212724	9.804173	0.262679				-0.003087	-0.000175	-0.000709				88.102689	1.479010	-43.582202
00984	681548	-0.200986	9.805099	0.289863				-0.002566	0.002416	-0.000858				88.101974	1.479278	-43.581522
00985	681598	-0.217103	9.813018	0.301934				-0.003881	-0.003556	-0.000595				88.103214	1.477977	-43.582862
00986	681648	-0.216137	9.810228	0.298804				-0.002476	0.000478	-0.002085				88.102520	1.478580	-43.582754
00987	681698	-0.216022	9.805231	0.299992				-0.000501	0.002161	-0.000475				88.104757	1.477296	-43.582463
00988	681748	-0.230501	9.811946	0.299173				-0.005957	0.004224	-0.004812				88.103087	1.478717	-43.581300
00989	681798	-0.235199	9.808914	0.307371				-0.006141	-0.003011	-0.000903				88.103670	1.477507	-43.582487
00990	681848	-0.250258	9.806305	0.310703				-0.001142	0.000819	-0.004395				88.103348	1.478771	-43.582297
00991	681898	-0.256382	9.815407	0.330697				-0.005043	0.001855	-0.002965				88.104270	1.478199	-43.582108
00992	681948	-0.261119	9.814015	0.309573				-0.001700	0.000852	0.001801				88.103788	1.477694	-43.581847
00993	681998	-0.248206	9.816629	0.288617				-0.000086	0.002430	0.000809				88.106158	1.476041	-43.581486
00994	682048	-0.234542	9.811673	0.282164				-0.003701	0.002275	0.001718				88.105120	1.475568	-43.580821
00995	682098	-0.229401	9.807496	0.296239				-0.001987	0.003525	-0.002261				88.106951	1.474820	-43.580162
00996	682148	-0.222801	9.821426	0.274847				-0.002323	0.000830	-0.001760				88.106287	1.475331	-43.579945
00997	682198	-0.199454	9.812643	0.278528				-0.001238	0.004888	-0.004343				88.108336	1.475182	-43.578900
00998	682248	-0.226141	9.808756	0.263243				-0.006443	0.003574	-0.001607				88.106507	1.475678	-43.577888
00999	682298	-0.210139	9.817545	0.275289				-0.002332	-0.002044	-0.002642				88.108200	1.474986	-43.578807
01000	682348	-0.198041	9.812679	0.261822				-0.003152	-0.000148	-0.000518				88.107298	1.475133	-43.578856
01001	682398	-0.223080	9.805528	0.274495				-0.007052	0.000330	-0.002040				88.107652	1.474282	-43.579124
01002	682448	-0.197045	9.799216	0.274581				-0.005310	0.001104	-0.002430				88.106131	1.474986	-43.578826
01003	682498	-0.216818	9.814775	0.280084				-0.000852	0.001826	-0.004104				88.108302	1.474757	-43.578693
01004	682548	-0.213565	9.805275	0.283576				0.001058	0.000310	-0.001712				88.108613	1.475253	-43.578621
01005	682598	-0.237089	9.804871	0.290623				-0.005216	-0.000629	0.002377				88.109475	1.473124	-43.579096
01006	682648	-0.228273	9.808299	0.306534				-0.002049	-0.000675	-0.000615				88.108889	1.473295	-43.579296
01007	682698	-0.254940	9.804619	0.308322				-0.001071	-0.000277	-0.002889				88.110967	1.472693	-43.579725
01008	682748	-0.240608	9.812761	0.299970				-0.005148	-0.000958	0.000516				88.109488	1.472535	-43.579993
01009	682798	-0.239064	9.801419	0.313330				-0.003293	-0.001561	0.003075				88.110904	1.470211	-43.580739
01010	682848	-0.248393	9.825961	0.298406				0.000397	0.003346	0.001168				88.111050	1.469909	-43.579774
01011	682898	-0.211688	9.807892	0.284628				-0.000466	0.001967	-0.001308				88.113281	1.468872	-43.579550
01012	682948	-0.216367	9.821522	0.273873				-0.002471	-0.000462	-0.001352				88.112568	1.469254	-43.579697
01013	682998	-0.202846	9.800960	0.295200				-0.005164	0.000724	-0.000025				88.113480	1.467844	-43.579835
01014	683048	-0.235356	9.818417	0.275052				-0.006323	-0.002338	-0.001124				88.111658	1.468146	-43.580517
01015	683098	-0.224957	9.808163	0.271495				-0.002736	-0.001334	-0.000809				88.113228	1.466929	-43.581244
01016	683148	-0.226643	9.820837	0.278917				-0.000985	-0.001045	-0.001290				88.112939	1.467289	-43.581551
01017	683198	-0.253790	9.821168	0.282239				-0.003479	-0.001226	-0.003213				88.114299	1.466770	-43.582268
01018	683248	-0.235700	9.826719	0.274836				-0.007458	0.002196	-0.000940				88.112178	1.467064	-43.581648
01019	683298	-0.231950	9.822752	0.289590				-0.002141	0.003394	-0.001621				88.113950	1.466132	-43.581021
01020	683348	-0.227612	9.826918	0.315261				-0.006563	-0.000758	-0.000600				88.112071	1.466298	-43.581250
01021	683398	-0.224374	9.810617	0.313025				-0.003017	-0.003175	0.003609				88.113555	1.463809	-43.582443
01022	683448	-0.238834	9.809677	0.316667				-0.005081	0.004082	-0.001737				88.112129	1.464346	-43.581289
01023	683498	-0.224698	9.809299	0.306026				-0.002196	0.000872	-0.002176				88.113903	1.463551	-43.581418
01024	683548	-0.208708	9.805269	0.303393				-0.003783	-0.001613	-0.001099				88.112809	1.463849	-43.581902
01025	683598	-0.222005	9.803882	0.320979				-0.004501	-0.003917	0.002487				88.113856	1.461684	-43.583331
01026	683648	-0.235094	9.813327	0.313424				-0.007530	-0.001716	-0.002370				88.111683	1.462345	-43.583844
01027	683698	-0.233264	9.817224	0.277353				-0.001792	0.000162	-0.003625				88.113550	1.461962	-43.584154
01028	683748	-0.240138	9.816146	0.280263				-0.003751	0.001587	-0.001752				88.112502	1.462482	-43.583718
01029	683798	-0.203817	9.816760	0.269572				-0.003213	0.000823	0.001127				88.113953	1.460746	-43.583791
01030	683848	-0.234465	9.819019	0.283101				-0.002843	0.000017	-0.001059				88.113134	1.461046	-43.583793
01031	683898	-0.256279	9.850639	0.276241				-0.002033	0.002740	-0.004219				88.114945	1.460868	-43.583413
01032	683948	-0.227114	9.807749	0.281544				-0.009211	0.005276	-0.000467				88.112341	1.461052	-43.581906
01033	683998	-0.231075	9.819032	0.254007				-0.001837	0.000913	0.000995				88.114190	1.459355	-43.581970
01034	684048	-0.231275	9.821222	0.281217				-0.003903	0.003194	-0.003413				88.113097	1.460365	-43.581083
01035	684098	-0.228949	9.825336	0.293430				-0.004697	0.001787	-0.004958				88.114149	1.460388	-43.580943
01036	684148	-0.235890	9.815804	0.290575				-0.003803	0.000033	-0.000540				88.113063	1.460546	-43.580944
01037	684198	-0.225387	9.813892	0.299874				-0.003574	0.002336	0.000463				88.114422	1.459019	-43.580628
01038	684248	-0.222051	9.820149	0.312583				-0.006866	0.000688	-0.001753				88.112459	1.459526	-43.580448
01039	684298	-0.240350	9.820987	0.305012				-0.007783	-0.000684	-0.001848				88.112606	1.458632	-43.580998
01040	684348	-0.220678	9.812282	0.300322				-0.004061	0.000125	-0.000670				88.111452	1.458828	-43.580976
01041	684398	-0.232557	9.824719	0.315261				-0.005706	0.002882	-0.000137				88.112197	1.457482	-43.580464
01042	684448	-0.224109	9.799749	0.310892				-0.004949	0.000019	0.000163				88.110788	1.457436	-43.580458
01043	684498	-0.228479	9.831034	0.293341				-0.003013	0.002567	-0.000818				88.112307	1.456277	-43.580081
01044	684548	-0.224611	9.810470	0.291934				-0.003824	-0.002322	-0.000139				88.111195	1.456296	-43.580751
01045	684598	-0.229627	9.803585	0.272452				-0.000715	0.000901	0.000960				88.113376	1.454623	-43.580802
01046	684648	-0.234468	9.827321	0.282383				-0.001165	-0.000946	0.001759				88.113027	1.454109	-43.581053
01047	684698	-0.215680	9.810513	0.280653				-0.007209	0.000491	-0.000724				88.113345	1.452916	-43.581258
01048	684748	-0.227426	9.822473	0.265001				-0.002722	0.003680	0.001271				88.112603	1.452587	-43.580205
01049	684798	-0.219968	9.807483	0.273558				-0.004991	0.000042	-0.003041				88.113531	1.452043	-43.580547
01050	684848	-0.235879	9.826504	0.273626				-0.008610	0.000305	-0.000110				88.111069	1.452080	-43.580458
01051	684898	-0.215223	9.807136	0.269159				-0.006666	0.000335	-0.002686				88.111539	1.451447	-43.580738
01052	684948	-0.220463	9.812462	0.289072				-0.005310	-0.001195	-0.004683				88.110008	1.452774	-43.581127
01053	684998	-0.242230	9.831424	0.288272				-0.007679	0.000128	-0.000881				88.110203	1.451627	-43.581439
01054	685048	-0.239845	9.822316	0.296122				-0.006343	0.001380	-0.001682				88.108404	1.452121	-43.581060
01055	685098	-0.251982	9.799789	0.301136				-0.003339	0.002462	-0.002740				88.109814	1.451516	-43.580701
01056	685148	-0.239266	9.818790	0.294155				-0.002865	0.000987	-0.000313				88.108999	1.451616	-43.580413
01057	685198	-0.249467	9.823940	0.305919				-0.002350	-0.000430	-0.003564				88.110689	1.451233	-43.580917
01058	685248	-0.236900	9.802333	0.302103				-0.005463	0.001012	0.001360				88.109124	1.450851	-43.580605
01059	685298	-0.248421	9.818322	0.317078				-0.007319	0.000038	0.001428				88.109411	1.449041	-43.580941
01060	685348	-0.243989	9.826910	0.302635				-0.006636	-0.000436	-0.001214				88.107516	1.449385	-43.581082
01061	685398	-0.236563	9.817953	0.289299				-0.003199	0.001470	-0.000474				88.108971	1.448132	-43.580996
01062	685448	-0.219395	9.808154	0.292557				-0.000730	0.001222	-0.000159				88.108776	1.448195	-43.580651
01063	685498	-0.215615	9.820957	0.280542				-0.000999	-0.000336	-0.000744				88.110874	1.447006	-43.581126
01064	685548	-0.214474	9.819463	0.270481				-0.002471	-0.001954	-0.005148				88.110152	1.448463	-43.581741
01065	685598	-0.213675	9.806822	0.260011				-0.003667	-0.000288	-0.003143				88.111466	1.447963	-43.582204
01066	685648	-0.215652	9.813460	0.258778				-0.003050	0.000597	-0.000800				88.110595	1.448198	-43.582045
01067	685698	-0.214910	9.789337	0.285213				-0.004853	0.003563	-0.006263				88.111605	1.448625	-43.581409
01068	685748	-0.214015	9.800900	0.274577				-0.002914	-0.001926	-0.003378				88.110748	1.449572	-43.581985
01069	685798	-0.223553	9.816491	0.286684				-0.006569	-0.000925	-0.003874				88.111249	1.449280	-43.582634
01070	685848	-0.232061	9.837223	0.289025				-0.002429	0.002518	0.000782				88.110578	1.449077	-43.581911
01071	685898	-0.231240	9.801501	0.299019				-0.006872	0.000078	0.000235				88.110969	1.447615	-43.582221
01072	685948	-0.249828	9.810900	0.320602				-0.005990	0.000481	-0.000884				88.109255	1.447877	-43.582086
01073	685998	-0.238260	9.816287	0.319153				-0.006715	0.002118	-0.000939				88.109718	1.446778	-43.581809
01074	686048	-0.237778	9.835777	0.301059				-0.002549	0.003326	0.000276				88.109015	1.446730	-43.580858
01075	686098	-0.238500	9.824687	0.312327				-0.002630	-0.000463	-0.000512				88.110634	1.445478	-43.581333
01076	686148	-0.219577	9.816628	0.312038				-0.002844	-0.001889	-0.000301				88.109787	1.445545	-43.581870
01077	686198	-0.232241	9.821568	0.304044				0.000537	-0.000211	0.000378				88.112330	1.444040	-43.582280
01078	686248	-0.221422	9.818978	0.296476				-0.003318	0.004087	-0.001132				88.111400	1.444403	-43.581109
01079	686298	-0.236810	9.820178	0.282553				0.000139	0.002403	0.001741				88.113838	1.442539	-43.580763
01080	686348	-0.227355	9.820403	0.276133				-0.004222	0.004289	-0.002863				88.112656	1.443398	-43.579567
01081	686398	-0.225246	9.816623	0.292235				-0.005922	0.003320	-0.002956				88.113372	1.442892	-43.578990
01082	686448	-0.233242	9.821285	0.275649				-0.003376	-0.000345	-0.001053				88.112393	1.443190	-43.579097
01083	686498	-0.223595	9.809923	0.266587				-0.006878	0.003111	-0.003117				88.112823	1.442727	-43.578588
01084	686548	-0.224590	9.817929	0.269214				-0.006600	0.000534	-0.000950				88.110936	1.443006	-43.578448
01085	686598	-0.225037	9.804297	0.276372				-0.003979	-0.001688	-0.004403				88.112170	1.442869	-43.579291
01086	686648	-0.231116	9.822282	0.274497				-0.005211	0.001011	-0.001144				88.110686	1.443206	-43.579017
01087	686698	-0.236461	9.822865	0.293479				-0.005984	0.000386	0.000332				88.111343	1.441726	-43.579247
01088	686748	-0.240255	9.830909	0.307743				-0.000314	-0.000975	-0.001420				88.111253	1.442124	-43.579549
01089	686798	-0.245989	9.821136	0.290720				-0.007259	-0.000255	-0.003001				88.111541	1.441600	-43.579995
01090	686848	-0.229263	9.811823	0.307908				0.000841	0.003284	-0.000534				88.111811	1.441782	-43.579058
01091	686898	-0.234170	9.822417	0.309414				-0.001403	-0.001960	-0.001200				88.113774	1.440725	-43.579972
01092	686948	-0.244765	9.824100	0.299426				-0.000282	0.001799	-0.006540				88.113715	1.442615	-43.579529
01093	686998	-0.231285	9.819517	0.284075				-0.004635	-0.000883	0.000130				88.114719	1.441186	-43.580119
01094	687048	-0.248230	9.827621	0.298980				-0.003830	0.004301	-0.000198				88.113653	1.441283	-43.578889
01095	687098	-0.247226	9.818327	0.302797				-0.001369	0.002208	-0.002651				88.115658	1.440689	-43.578633
01096	687148	-0.230455	9.795623	0.295986				-0.000880	-0.000402	-0.002319				88.115401	1.441353	-43.578766
01097	687198	-0.236486	9.813561	0.281640				-0.001427	0.004148	-0.000367				88.117393	1.440113	-43.577957
01098	687248	-0.242198	9.818179	0.269414				0.000773	0.002579	0.001133				88.117634	1.439813	-43.577204
01099	687298	-0.214557	9.812264	0.275400				-0.007236	-0.000639	-0.000025				88.117917	1.438436	-43.577720
01100	687348	-0.230009	9.786809	0.283136				-0.002961	0.002664	-0.002966				88.117082	1.439307	-43.576984
01101	687398	-0.225657	9.818403	0.284414				-0.000679	0.002771	-0.001662				88.119296	1.438438	-43.576582
01102	687448	-0.229271	9.813656	0.296545				-0.003911	0.001259	-0.002779				88.118170	1.439243	-43.576246
01103	687498	-0.210014	9.816174	0.302736				-0.006634	0.002800	0.000730				88.118671	1.437691	-43.575798
01104	687548	-0.210639	9.802346	0.306911				-0.001661	0.001103	-0.003436				88.118213	1.438688	-43.575517
01105	687598	-0.219142	9.819442	0.299143				-0.006627	0.000206	-0.001945				88.118660	1.437865	-43.575799
01106	687648	-0.234409	9.812615	0.298526				-0.007756	0.001714	-0.000583				88.116454	1.438049	-43.575313
01107	687698	-0.234875	9.819733	0.298419				-0.002854	-0.001830	-0.004019				88.118011	1.437807	-43.576230
01108	687748	-0.242293	9.816859	0.293748				-0.005951	0.002895	-0.006647				88.116323	1.439737	-43.575463
01109	687798	-0.242420	9.823277	0.308925				-0.000876	-0.002638	-0.005758				88.118411	1.439986	-43.576624
01110	687848	-0.229412	9.827362	0.284536				-0.003421	0.002106	-0.003741				88.117444	1.441080	-43.576057
01111	687898	-0.232667	9.820385	0.303742				-0.004403	0.002031	-0.000303				88.118548	1.439813	-43.575788
01112	687948	-0.214035	9.795606	0.294694				-0.000832	0.002348	-0.002655				88.118321	1.440594	-43.575143
01113	687998	-0.226167	9.811736	0.300755				-0.002812	0.002280	-0.002010				88.119912	1.439820	-43.574878
01114	688048	-0.237630	9.821415	0.294355				-0.001377	0.002537	-0.000504				88.119528	1.439989	-43.574153
01115	688098	-0.231014	9.817294	0.274747				-0.005139	-0.001211	0.000095				88.120433	1.438588	-43.574869
01116	688148	-0.231197	9.829364	0.276366				-0.001600	0.002463	-0.000568				88.119982	1.438772	-43.574162
01117	688198	-0.232695	9.817245	0.276484				-0.006619	0.002218	0.000088				88.120471	1.437396	-43.573893
01118	688248	-0.230712	9.823622	0.279833				-0.006307	0.003380	-0.002605				88.118698	1.438179	-43.572947
01119	688298	-0.245915	9.816703	0.285608				-0.006031	-0.000522	-0.002301				88.119324	1.437462	-43.573481
01120	688348	-0.238820	9.817282	0.284545				-0.002402	-0.000754	-0.002603				88.118635	1.438198	-43.573727
01121	688398	-0.235415	9.820414	0.284042				-0.001775	-0.000284	-0.001225				88.120503	1.437190	-43.574171
01122	688448	-0.228041	9.812732	0.296095				-0.005173	0.000719	-0.002746				88.119012	1.437982	-43.573987
01123	688498	-0.253560	9.835436	0.295517				-0.007834	0.000126	-0.000497				88.119144	1.436762	-43.574314
01124	688548	-0.227743	9.822802	0.305324				-0.001297	0.002891	-0.001752				88.118797	1.437291	-43.573502
