// General information: 
//  MT Manager version: 2022.0.0 
//  XDA version: 2022.0.0 build 7085 rev 119802 built on 2022-11-08
// Device information: 
//  DeviceId: 037004D1
//  ProductCode: MTi-300-2A5G4
//  Firmware Version: 1.4.1
//  Hardware Version: 2.1.0
// Device settings: 
//  Filter Profile: general(39.16)
//  Option Flags: Orientation Smoother Disabled, Position/Velocity Smoother Disabled, Continuous Zero Rotation Update Disabled, AHS Disabled, ICC Disabled
// Coordinate system: ENU
PacketCounter	SampleTimeFine	Acc_X	Acc_Y	Acc_Z	AccHR_X	AccHR_Y	AccHR_Z	Gyr_X	Gyr_Y	Gyr_Z	GyrHR_X	GyrHR_Y	GyrHR_Z	Roll	Pitch	Yaw
00001	753974	0.136038	-9.793875	-0.102824				-0.004049	0.000475	0.001322				-90.061735	-0.958476	-39.762296
00002	754024	0.131678	-9.782309	-0.103067				-0.004253	-0.000376	-0.001726				-90.062954	-0.958967	-39.762193
00003	754074	0.127740	-9.785833	-0.093125				-0.002479	-0.002000	-0.005622				-90.061436	-0.959785	-39.761480
00004	754124	0.144584	-9.810228	-0.096729				-0.008316	-0.000281	0.000177				-90.063819	-0.959733	-39.761398
00005	754174	0.155060	-9.815613	-0.108862				-0.003113	-0.001198	-0.003854				-90.062444	-0.960038	-39.760872
00006	754224	0.166509	-9.809821	-0.106071				-0.002899	-0.002644	-0.000494				-90.063286	-0.960178	-39.760117
00007	754274	0.181785	-9.803601	-0.096833				-0.004905	-0.000332	-0.006382				-90.062430	-0.961208	-39.759794
00008	754324	0.158228	-9.775064	-0.089799				-0.004739	-0.000293	-0.004903				-90.063787	-0.962611	-39.759707
00009	754374	0.176831	-9.791649	-0.107411				-0.006858	-0.002233	-0.002053				-90.063499	-0.962400	-39.758870
00010	754424	0.177821	-9.780530	-0.119309				-0.002191	0.003114	-0.004506				-90.064116	-0.963693	-39.759763
00011	754474	0.186561	-9.775790	-0.096600				-0.004734	-0.001322	-0.001638				-90.063200	-0.963360	-39.759135
00012	754524	0.202728	-9.802851	-0.113147				-0.000142	0.001309	-0.002825				-90.063234	-0.964170	-39.759507
00013	754574	0.208021	-9.796900	-0.079512				-0.005957	0.003824	-0.004498				-90.062647	-0.964664	-39.760380
00014	754624	0.219605	-9.799465	-0.088672				-0.007695	0.001345	-0.000338				-90.064836	-0.964760	-39.760754
00015	754674	0.202376	-9.804619	-0.090882				-0.001239	0.003617	-0.003262				-90.062907	-0.964899	-39.761574
00016	754724	0.187101	-9.779447	-0.105219				-0.005806	-0.000656	0.000998				-90.064567	-0.964611	-39.761385
00017	754774	0.178465	-9.776087	-0.099224				-0.004808	-0.000868	-0.000163				-90.063697	-0.963863	-39.760943
00018	754824	0.180632	-9.797820	-0.103531				-0.003396	0.000229	0.000936				-90.064663	-0.963591	-39.761009
00019	754874	0.166245	-9.773240	-0.109452				-0.004750	-0.001004	-0.004266				-90.063772	-0.964020	-39.760496
00020	754924	0.167602	-9.788324	-0.098928				-0.005185	0.001071	0.001968				-90.065257	-0.963460	-39.760804
00021	754974	0.130262	-9.780807	-0.108863				-0.007202	0.002969	-0.002120				-90.065035	-0.963265	-39.761466
00022	755024	0.137655	-9.800209	-0.106704				-0.004511	0.001689	-0.002547				-90.066318	-0.963993	-39.761949
00023	755074	0.145309	-9.801826	-0.087559				-0.004688	-0.000345	0.001964				-90.065389	-0.962633	-39.761579
00024	755124	0.153908	-9.815358	-0.095220				-0.004160	-0.002147	-0.000200				-90.066578	-0.962692	-39.760951
00025	755174	0.155215	-9.807165	-0.087034				-0.002877	0.000746	-0.002177				-90.065144	-0.962516	-39.760942
00026	755224	0.161463	-9.807786	-0.087816				-0.004462	0.002073	-0.002968				-90.066412	-0.963366	-39.761535
00027	755274	0.154159	-9.778600	-0.094083				-0.003704	-0.000269	0.000453				-90.065218	-0.962438	-39.761214
00028	755324	0.157604	-9.771744	-0.105582				-0.002361	0.000364	-0.005387				-90.065891	-0.963979	-39.761319
00029	755374	0.171370	-9.788677	-0.103902				-0.003723	0.001988	-0.003938				-90.064693	-0.964312	-39.761682
00030	755424	0.174437	-9.806489	-0.100250				-0.009478	0.001562	-0.005077				-90.067401	-0.965768	-39.762123
00031	755474	0.197076	-9.787012	-0.099058				-0.003863	0.002241	-0.005987				-90.066222	-0.966683	-39.762543
00032	755524	0.200269	-9.789585	-0.098775				-0.000652	0.001307	-0.000772				-90.066401	-0.966907	-39.762913
00033	755574	0.190731	-9.802619	-0.106991				-0.008918	0.001452	-0.000046				-90.066703	-0.966122	-39.763108
00034	755624	0.200025	-9.789320	-0.100317				-0.005287	0.002293	0.001108				-90.068213	-0.965810	-39.763766
00035	755674	0.197437	-9.787940	-0.115007				-0.000115	0.002067	0.003015				-90.065949	-0.964143	-39.764128
00036	755724	0.185021	-9.773469	-0.094404				-0.003012	-0.001027	0.000954				-90.066804	-0.963866	-39.763833
00037	755774	0.200034	-9.781969	-0.116096				-0.004233	0.002409	0.000463				-90.065750	-0.962937	-39.764292
00038	755824	0.185463	-9.783465	-0.092553				-0.004838	0.001036	-0.002363				-90.067130	-0.963612	-39.764593
00039	755874	0.195996	-9.797599	-0.089964				-0.005539	0.001127	0.000978				-90.066448	-0.962536	-39.764670
00040	755924	0.169920	-9.762353	-0.089282				-0.002442	0.002342	-0.000919				-90.067136	-0.962802	-39.765345
00041	755974	0.161985	-9.789259	-0.104678				-0.005905	0.001343	0.000207				-90.066545	-0.961941	-39.765497
00042	756024	0.140543	-9.795802	-0.097339				-0.003930	-0.000037	0.002059				-90.067667	-0.961351	-39.765482
00043	756074	0.144347	-9.813116	-0.094492				-0.004182	0.003733	-0.000297				-90.066597	-0.960639	-39.766332
00044	756124	0.152840	-9.819017	-0.105495				-0.001519	-0.002750	-0.000659				-90.067052	-0.960829	-39.765548
00045	756174	0.149805	-9.805918	-0.095241				-0.003969	-0.000209	-0.001667				-90.065919	-0.960503	-39.765227
00046	756224	0.148228	-9.789040	-0.099123				-0.006917	-0.000265	-0.004096				-90.067900	-0.961673	-39.765151
00047	756274	0.135969	-9.781771	-0.103566				-0.005722	0.001699	-0.001678				-90.067270	-0.961360	-39.765423
00048	756324	0.151727	-9.793605	-0.092583				-0.003376	0.004622	-0.000967				-90.068216	-0.961637	-39.766745
00049	756374	0.168133	-9.808207	-0.101355				-0.006519	0.000395	-0.001206				-90.067804	-0.961183	-39.766649
00050	756424	0.169224	-9.794987	-0.096571				-0.005426	0.000151	-0.002593				-90.069366	-0.961929	-39.766693
00051	756474	0.176929	-9.768293	-0.098169				-0.001887	-0.000104	-0.001349				-90.067634	-0.961515	-39.766440
00052	756524	0.190109	-9.820910	-0.106212				-0.005077	0.000193	-0.002178				-90.069094	-0.962139	-39.766494
00053	756574	0.188838	-9.797226	-0.104283				-0.002541	0.000003	-0.004529				-90.067540	-0.962631	-39.766274
00054	756624	0.201815	-9.781649	-0.089341				-0.008465	-0.001934	-0.001633				-90.069977	-0.963099	-39.765721
00055	756674	0.202456	-9.767786	-0.095253				-0.004258	-0.001153	-0.001671				-90.068930	-0.962774	-39.765163
00056	756724	0.205451	-9.779833	-0.111787				-0.004185	-0.001439	0.000250				-90.070142	-0.962704	-39.764751
00057	756774	0.217858	-9.790348	-0.112323				-0.002987	0.002170	-0.000798				-90.068730	-0.962139	-39.765149
00058	756824	0.211002	-9.788384	-0.106572				-0.005131	0.001357	0.001102				-90.070187	-0.961823	-39.765535
00059	756874	0.196947	-9.794620	-0.098165				-0.006025	0.001245	0.000782				-90.069660	-0.960797	-39.765642
00060	756924	0.168241	-9.788587	-0.096469				-0.003066	-0.000021	0.002760				-90.070537	-0.960005	-39.765638
00061	756974	0.185277	-9.818306	-0.109629				0.000028	0.003129	-0.001216				-90.068246	-0.959556	-39.766300
00062	757024	0.150295	-9.801590	-0.114099				-0.000288	0.000953	-0.002149				-90.068336	-0.960177	-39.766576
00063	757074	0.162896	-9.791609	-0.105625				-0.004802	-0.001866	0.002050				-90.067433	-0.958782	-39.765780
00064	757124	0.145220	-9.794823	-0.080331				-0.004480	-0.000957	0.001383				-90.068715	-0.958386	-39.765498
00065	757174	0.148814	-9.786014	-0.094958				-0.002101	0.001540	-0.002588				-90.067068	-0.958334	-39.765692
00066	757224	0.146706	-9.788129	-0.097801				-0.002784	-0.003289	-0.001334				-90.067879	-0.958715	-39.764750
00067	757274	0.135338	-9.795095	-0.086290				-0.003781	-0.001274	-0.003336				-90.066703	-0.958865	-39.764158
00068	757324	0.144088	-9.798002	-0.089648				-0.003489	0.000101	0.002251				-90.067707	-0.958222	-39.764189
00069	757374	0.132845	-9.783552	-0.098090				-0.005935	0.001311	-0.000688				-90.067137	-0.957621	-39.764336
00070	757424	0.149589	-9.786223	-0.111227				-0.003113	0.002430	0.000691				-90.068017	-0.957424	-39.765033
00071	757474	0.172891	-9.806890	-0.090793				-0.004210	-0.002862	-0.002065				-90.066953	-0.957216	-39.763953
00072	757524	0.190056	-9.801576	-0.098842				-0.007010	0.001544	-0.004058				-90.068942	-0.958377	-39.764389
00073	757574	0.179725	-9.794025	-0.104477				-0.005446	-0.000368	-0.003941				-90.068248	-0.958711	-39.764050
00074	757624	0.190980	-9.779544	-0.095986				-0.006268	0.000227	-0.005282				-90.070040	-0.960228	-39.764103
00075	757674	0.188431	-9.769217	-0.106483				-0.005503	-0.000335	-0.001984				-90.069354	-0.959991	-39.763798
00076	757724	0.218460	-9.811727	-0.093975				-0.004850	-0.000840	-0.002635				-90.070741	-0.960744	-39.763556
00077	757774	0.206876	-9.805118	-0.085820				-0.001109	0.000416	-0.003151				-90.068818	-0.960855	-39.763445
00078	757824	0.204286	-9.792463	-0.093097				-0.005633	0.000929	0.000427				-90.070424	-0.960730	-39.763713
00079	757874	0.214053	-9.787919	-0.087581				-0.008593	0.001357	-0.000398				-90.070607	-0.960045	-39.763846
00080	757924	0.201763	-9.795971	-0.098722				-0.006404	-0.002189	-0.000325				-90.072442	-0.960138	-39.763212
00081	757974	0.187567	-9.818864	-0.102297				-0.003824	0.000445	0.000905				-90.071291	-0.959082	-39.763149
00082	758024	0.179434	-9.810093	-0.108815				-0.006125	-0.001862	0.000092				-90.073054	-0.959053	-39.762616
00083	758074	0.162740	-9.794209	-0.105776				-0.002974	0.000140	0.001768				-90.071647	-0.957751	-39.762436
00084	758124	0.160843	-9.778886	-0.085701				-0.003876	0.001730	-0.003290				-90.072736	-0.958690	-39.762926
00085	758174	0.153876	-9.798691	-0.114846				-0.002750	-0.001321	-0.003183				-90.071286	-0.958808	-39.762327
00086	758224	0.170906	-9.812398	-0.104167				-0.004540	0.001458	-0.003228				-90.072572	-0.959733	-39.762740
00087	758274	0.161859	-9.799777	-0.099388				-0.004449	-0.002284	-0.000875				-90.071604	-0.959183	-39.761923
00088	758324	0.155149	-9.788081	-0.109839				-0.002738	-0.001611	-0.001998				-90.072393	-0.959756	-39.761456
00089	758374	0.144795	-9.804006	-0.100199				-0.002644	0.000459	-0.002047				-90.070897	-0.959546	-39.761396
00090	758424	0.156114	-9.790896	-0.095724				-0.003953	0.000144	-0.003363				-90.072031	-0.960508	-39.761440
00091	758474	0.167161	-9.808636	-0.089489				-0.001841	-0.002659	-0.001138				-90.070321	-0.960038	-39.760470
00092	758524	0.179085	-9.785892	-0.093454				-0.005130	-0.000100	-0.002913				-90.071784	-0.960873	-39.760439
00093	758574	0.187014	-9.785143	-0.105473				-0.004024	0.000402	-0.003012				-90.070689	-0.960940	-39.760342
00094	758624	0.186619	-9.801913	-0.094983				-0.004668	-0.000284	-0.001220				-90.072032	-0.961291	-39.760267
00095	758674	0.188825	-9.777817	-0.101922				-0.003589	0.001737	-0.003133				-90.070789	-0.961389	-39.760560
00096	758724	0.217906	-9.797012	-0.095329				-0.004343	0.002198	-0.005829				-90.072030	-0.963059	-39.761196
00097	758774	0.200917	-9.799158	-0.108180				-0.004222	0.002993	0.000466				-90.070950	-0.962130	-39.761794
00098	758824	0.208025	-9.792598	-0.096962				-0.005642	0.002053	-0.003292				-90.072555	-0.963075	-39.762376
00099	758874	0.205470	-9.791171	-0.115095				-0.001844	0.001345	-0.002565				-90.070820	-0.963010	-39.762521
00100	758924	0.197482	-9.785473	-0.106185				-0.002721	-0.001518	-0.003985				-90.071604	-0.964152	-39.762081
00101	758974	0.174663	-9.792987	-0.098441				-0.002918	0.001070	-0.001982				-90.070192	-0.963927	-39.762196
00102	759024	0.179488	-9.782579	-0.092782				-0.005308	0.004680	-0.002086				-90.071679	-0.964523	-39.763533
00103	759074	0.167248	-9.791718	-0.110141				-0.003457	0.002163	0.001523				-90.070401	-0.963296	-39.763925
00104	759124	0.163662	-9.784029	-0.088355				-0.003094	0.003950	0.000380				-90.071271	-0.963189	-39.765061
00105	759174	0.166633	-9.799555	-0.094560				-0.004054	0.000402	-0.002688				-90.070165	-0.963158	-39.764949
00106	759224	0.164014	-9.812684	-0.075465				-0.006913	-0.001167	-0.000249				-90.072146	-0.963227	-39.764614
00107	759274	0.150814	-9.806218	-0.106064				-0.006261	0.000302	-0.001591				-90.071692	-0.962889	-39.764496
00108	759324	0.138460	-9.777454	-0.088707				-0.004784	0.000160	-0.001851				-90.073048	-0.963419	-39.764531
00109	759374	0.141768	-9.803675	-0.109162				-0.005320	0.002065	-0.002481				-90.072323	-0.963334	-39.764924
00110	759424	0.153337	-9.804439	-0.095940				-0.004222	-0.002118	0.000027				-90.073543	-0.963325	-39.764316
00111	759474	0.165971	-9.795413	-0.117592				-0.004710	0.001073	-0.000824				-90.072618	-0.962760	-39.764474
00112	759524	0.176110	-9.796805	-0.096043				-0.003593	0.000057	-0.001407				-90.073642	-0.963159	-39.764488
00113	759574	0.167746	-9.790327	-0.107748				-0.003297	0.003137	0.000308				-90.072323	-0.962283	-39.765110
00114	759624	0.177434	-9.794736	-0.074981				-0.004470	0.001426	-0.003455				-90.073589	-0.963273	-39.765512
00115	759674	0.188657	-9.798171	-0.074006				-0.001967	0.003212	-0.003841				-90.071892	-0.963577	-39.766240
00116	759724	0.195482	-9.801088	-0.094727				-0.003061	-0.000519	-0.002318				-90.072777	-0.964243	-39.766084
00117	759774	0.193953	-9.781690	-0.108237				-0.006232	-0.001707	-0.003369				-90.072295	-0.964404	-39.765372
00118	759824	0.195635	-9.767119	-0.113236				-0.005583	-0.000182	-0.004552				-90.073901	-0.965707	-39.765324
00119	759874	0.196473	-9.795228	-0.102833				-0.004300	-0.000799	-0.000319				-90.072890	-0.965005	-39.764883
00120	759924	0.200686	-9.796432	-0.090800				-0.004023	0.001558	-0.000785				-90.074025	-0.965228	-39.765322
00121	759974	0.192432	-9.782608	-0.101596				-0.005954	0.003146	-0.000383				-90.073467	-0.964541	-39.765976
00122	760024	0.206648	-9.794135	-0.096373				-0.004832	-0.000265	-0.000571				-90.074848	-0.964704	-39.765896
00123	760074	0.161726	-9.765666	-0.102369				-0.003840	0.003087	0.000161				-90.073660	-0.963865	-39.766559
00124	760124	0.172120	-9.789932	-0.104372				-0.005591	0.001763	0.000218				-90.075248	-0.963803	-39.767058
00125	760174	0.182046	-9.790151	-0.112886				0.001357	0.005287	0.004517				-90.072581	-0.961712	-39.768315
00126	760224	0.174499	-9.795964	-0.096032				-0.005599	0.003894	-0.000764				-90.074175	-0.961934	-39.769434
00127	760274	0.161595	-9.787102	-0.081046				-0.004784	0.000747	0.002843				-90.073280	-0.960319	-39.769453
00128	760324	0.142030	-9.799149	-0.084569				-0.004024	-0.003251	0.002306				-90.074451	-0.959656	-39.768526
00129	760374	0.147476	-9.806093	-0.091305				-0.005448	0.002021	-0.001063				-90.073733	-0.959168	-39.768842
00130	760424	0.159617	-9.826933	-0.115320				-0.005034	0.000856	-0.004248				-90.075169	-0.960386	-39.769085
00131	760474	0.147362	-9.797272	-0.094792				-0.002009	0.000724	-0.000789				-90.073489	-0.959815	-39.769113
00132	760524	0.146263	-9.772856	-0.109922				-0.002247	0.000005	-0.002617				-90.074133	-0.960562	-39.769120
00133	760574	0.160465	-9.787343	-0.081555				-0.006841	0.002676	0.000001				-90.073837	-0.959767	-39.769664
00134	760624	0.166268	-9.806761	-0.110640				-0.008516	0.000701	-0.003663				-90.076282	-0.960819	-39.769864
00135	760674	0.172873	-9.788643	-0.094884				-0.000117	-0.001937	-0.006744				-90.074050	-0.961948	-39.769091
00136	760724	0.195139	-9.794505	-0.112617				-0.003179	-0.001083	-0.004746				-90.074971	-0.963311	-39.768780
00137	760774	0.188053	-9.785414	-0.108036				-0.005492	-0.002864	-0.002022				-90.074293	-0.963089	-39.767758
00138	760824	0.193918	-9.801184	-0.095813				-0.004144	-0.001970	-0.003948				-90.075496	-0.964220	-39.767197
00139	760874	0.200259	-9.796298	-0.099963				-0.004908	-0.001945	-0.000382				-90.074655	-0.963530	-39.766395
00140	760924	0.200085	-9.792871	-0.106896				-0.002963	0.001188	-0.003583				-90.075501	-0.964556	-39.766743
00141	760974	0.190599	-9.769009	-0.092965				-0.006159	0.003297	-0.002754				-90.074992	-0.964553	-39.767457
00142	761024	0.209836	-9.801223	-0.096226				-0.006047	-0.000384	-0.002301				-90.076733	-0.965213	-39.767349
00143	761074	0.195009	-9.789889	-0.104187				-0.002588	-0.001354	-0.001156				-90.075218	-0.964745	-39.766788
00144	761124	0.182731	-9.805909	-0.090434				-0.002950	0.000864	-0.003773				-90.076067	-0.965828	-39.767041
00145	761174	0.191144	-9.787210	-0.112139				-0.004303	-0.001772	-0.000253				-90.075032	-0.965098	-39.766332
00146	761224	0.175010	-9.778665	-0.094732				-0.002168	-0.004548	-0.000627				-90.075671	-0.965276	-39.765030
00147	761274	0.174568	-9.809111	-0.089519				-0.005994	0.001240	0.001755				-90.075141	-0.963976	-39.765195
00148	761324	0.144224	-9.808449	-0.110638				-0.001533	0.000866	-0.001658				-90.075579	-0.964454	-39.765445
00149	761374	0.152589	-9.789833	-0.111336				-0.000580	0.001138	0.000139				-90.073459	-0.963613	-39.765530
00150	761424	0.139109	-9.798120	-0.108263				-0.003415	0.003675	-0.000513				-90.074419	-0.963760	-39.766582
00151	761474	0.148319	-9.792061	-0.109007				-0.003169	0.000800	-0.001013				-90.073091	-0.963258	-39.766641
00152	761524	0.167006	-9.798237	-0.108928				-0.004543	0.002679	-0.002538				-90.074373	-0.963983	-39.767406
00153	761574	0.156540	-9.790664	-0.084667				0.000983	0.001193	-0.003202				-90.071821	-0.964103	-39.767518
00154	761624	0.169073	-9.794984	-0.102237				-0.005603	-0.002124	-0.000541				-90.073432	-0.964257	-39.766906
00155	761674	0.154037	-9.792999	-0.089710				-0.006461	0.001285	-0.005295				-90.073019	-0.964981	-39.767075
00156	761724	0.182189	-9.801337	-0.110587				-0.004447	-0.000990	0.003213				-90.074293	-0.964061	-39.766790
00157	761774	0.188965	-9.798992	-0.087863				-0.003870	-0.000244	-0.000341				-90.073142	-0.963355	-39.766450
00158	761824	0.180448	-9.791135	-0.096671				-0.004730	0.001580	-0.002260				-90.074496	-0.964005	-39.766898
00159	761874	0.191633	-9.793555	-0.099844				-0.000421	0.001371	0.000746				-90.072355	-0.962990	-39.767104
00160	761924	0.186820	-9.769506	-0.109654				-0.003333	-0.000843	0.001481				-90.073298	-0.962564	-39.766857
00161	761974	0.191608	-9.782182	-0.114426				0.000007	0.001889	-0.001083				-90.071049	-0.962080	-39.767141
00162	762024	0.188192	-9.785120	-0.096002				-0.002278	0.000136	-0.000537				-90.071695	-0.962233	-39.767177
00163	762074	0.169787	-9.789248	-0.105324				-0.006612	0.003288	-0.003972				-90.071327	-0.962576	-39.767894
00164	762124	0.199593	-9.800941	-0.091788				-0.003770	0.000625	-0.001784				-90.072404	-0.963087	-39.768071
00165	762174	0.191600	-9.802021	-0.104701				-0.004546	0.001842	-0.001939				-90.071442	-0.962851	-39.768353
00166	762224	0.171488	-9.796812	-0.105352				-0.004236	0.002266	-0.000808				-90.072642	-0.963080	-39.769008
00167	762274	0.171686	-9.823548	-0.109584				-0.002805	-0.000915	-0.004197				-90.071206	-0.963490	-39.768557
00168	762324	0.139664	-9.796788	-0.086152				-0.002940	0.003035	-0.000515				-90.072047	-0.963642	-39.769430
00169	762374	0.153979	-9.795578	-0.091538				-0.003111	0.000027	-0.001596				-90.070678	-0.963302	-39.769198
00170	762424	0.159313	-9.789870	-0.103480				0.000494	-0.000755	-0.003856				-90.070546	-0.964407	-39.768981
00171	762474	0.166461	-9.799690	-0.106941				-0.003815	0.001310	0.001016				-90.069375	-0.963323	-39.769102
00172	762524	0.157387	-9.815507	-0.088589				0.000431	0.002416	-0.002649				-90.069238	-0.964085	-39.769794
00173	762574	0.157121	-9.793099	-0.095891				-0.004365	0.002134	-0.003473				-90.068223	-0.964283	-39.770207
00174	762624	0.157151	-9.791812	-0.102586				-0.003342	-0.002988	-0.002506				-90.069204	-0.965002	-39.769354
00175	762674	0.161407	-9.795604	-0.114839				-0.003651	-0.000510	-0.005764				-90.068015	-0.965851	-39.768962
00176	762724	0.179976	-9.823314	-0.102929				-0.004295	0.002844	-0.003980				-90.069229	-0.966994	-39.769766
00177	762774	0.166650	-9.801415	-0.118162				-0.002842	0.001744	-0.001650				-90.067782	-0.966673	-39.770074
00178	762824	0.180044	-9.776043	-0.106970				-0.002839	0.000511	-0.002459				-90.068585	-0.967373	-39.770220
00179	762874	0.196060	-9.781618	-0.101286				-0.000147	0.000430	-0.001923				-90.066378	-0.967129	-39.770122
00180	762924	0.196672	-9.777956	-0.107803				-0.003070	-0.002198	0.001567				-90.067276	-0.966682	-39.769495
00181	762974	0.195178	-9.796597	-0.084655				-0.005973	-0.000738	-0.001336				-90.066737	-0.966271	-39.769112
00182	763024	0.198342	-9.795625	-0.099001				-0.006146	0.006145	-0.000592				-90.068462	-0.966441	-39.770869
00183	763074	0.191293	-9.782220	-0.097150				-0.001596	-0.001274	-0.001507				-90.066696	-0.966078	-39.770310
00184	763124	0.169623	-9.758195	-0.072779				-0.006419	0.001585	-0.000547				-90.068527	-0.966237	-39.770762
00185	763174	0.185289	-9.799176	-0.094614				-0.005270	-0.003797	-0.002316				-90.067791	-0.966097	-39.769426
00186	763224	0.183122	-9.805708	-0.119093				-0.006846	0.000602	-0.001873				-90.069759	-0.966635	-39.769606
00187	763274	0.181021	-9.796700	-0.089031				-0.003641	0.001237	-0.004824				-90.068563	-0.967229	-39.769730
00188	763324	0.178989	-9.779528	-0.112375				-0.007124	-0.001957	-0.003745				-90.070625	-0.968305	-39.769169
00189	763374	0.151624	-9.774079	-0.103255				-0.003456	0.002123	-0.000554				-90.069340	-0.967665	-39.769570
00190	763424	0.156293	-9.801332	-0.100890				-0.003805	0.000792	0.000501				-90.070425	-0.967522	-39.769794
00191	763474	0.163455	-9.806291	-0.097188				-0.006147	-0.002324	-0.000892				-90.069938	-0.966977	-39.768910
00192	763524	0.162359	-9.814913	-0.092258				-0.002439	0.000940	-0.002425				-90.070627	-0.967672	-39.769172
00193	763574	0.144047	-9.797284	-0.096511				-0.002719	0.000907	-0.001268				-90.069162	-0.967245	-39.769217
00194	763624	0.159800	-9.794847	-0.103531				-0.004134	0.003111	-0.001127				-90.070323	-0.967566	-39.770107
00195	763674	0.160704	-9.805452	-0.107598				-0.003400	0.001992	-0.002930				-90.069064	-0.967614	-39.770453
00196	763724	0.169665	-9.801763	-0.092926				0.000698	0.002025	-0.004959				-90.068849	-0.969032	-39.771032
00197	763774	0.168017	-9.798582	-0.100481				-0.004233	0.000868	-0.004472				-90.067816	-0.969518	-39.771075
00198	763824	0.170117	-9.783415	-0.098344				-0.003923	-0.001638	-0.001565				-90.068949	-0.969966	-39.770609
00199	763874	0.178463	-9.796289	-0.102160				-0.002949	-0.000273	-0.004452				-90.067538	-0.970449	-39.770252
00200	763924	0.179673	-9.810590	-0.097708				-0.005589	-0.000795	-0.002558				-90.069152	-0.971180	-39.770032
00201	763974	0.193594	-9.816707	-0.104482				-0.005944	0.004631	-0.000923				-90.068571	-0.970652	-39.771155
00202	764024	0.185553	-9.804472	-0.089254				-0.004686	-0.000907	-0.002267				-90.069911	-0.971301	-39.770896
00203	764074	0.178074	-9.773563	-0.115171				-0.003508	0.001774	0.001978				-90.068668	-0.969939	-39.771192
00204	764124	0.196261	-9.806427	-0.092401				-0.000170	-0.000669	-0.000036				-90.068715	-0.969950	-39.770992
00205	764174	0.215636	-9.808473	-0.097637				-0.002734	0.004397	-0.002056				-90.067237	-0.969744	-39.772023
00206	764224	0.189460	-9.781155	-0.090737				-0.002292	0.003826	0.001437				-90.067885	-0.969331	-39.773128
00207	764274	0.185483	-9.768957	-0.084458				-0.001617	0.001702	0.000492				-90.066090	-0.968399	-39.773404
00208	764324	0.168373	-9.798603	-0.099257				-0.003761	0.000334	-0.001909				-90.067172	-0.968948	-39.773502
00209	764374	0.161577	-9.803897	-0.099980				-0.003887	0.001433	-0.001517				-90.066037	-0.968587	-39.773753
00210	764424	0.165933	-9.803795	-0.102617				-0.003421	-0.000840	0.004721				-90.067023	-0.967236	-39.773511
00211	764474	0.167754	-9.800915	-0.119111				-0.001479	-0.001043	-0.000928				-90.065201	-0.966702	-39.773045
00212	764524	0.154011	-9.806315	-0.118373				-0.002588	0.003013	-0.000165				-90.065929	-0.966752	-39.773907
00213	764574	0.125369	-9.787725	-0.100940				-0.003207	0.000187	-0.000914				-90.064610	-0.966224	-39.773769
00214	764624	0.166469	-9.814629	-0.107397				-0.001049	0.000809	-0.000246				-90.064907	-0.966298	-39.773997
00215	764674	0.176373	-9.814204	-0.095980				-0.003832	-0.000466	0.000075				-90.063763	-0.965477	-39.773703
00216	764724	0.148765	-9.803475	-0.106895				-0.005279	-0.000470	-0.003706				-90.065283	-0.966540	-39.773567
00217	764774	0.170098	-9.782548	-0.093012				-0.003424	-0.001276	-0.002147				-90.064003	-0.966351	-39.772978
00218	764824	0.180861	-9.787129	-0.079307				-0.007322	0.000004	-0.006842				-90.066106	-0.968310	-39.772981
00219	764874	0.182001	-9.799911	-0.095533				-0.005914	-0.002644	-0.002020				-90.065569	-0.968100	-39.772007
00220	764924	0.191476	-9.797448	-0.093793				-0.000636	0.001643	-0.004290				-90.065741	-0.969329	-39.772475
00221	764974	0.180284	-9.779552	-0.109605				-0.001416	-0.001753	0.001153				-90.063919	-0.968202	-39.771778
00222	765024	0.203409	-9.784264	-0.092699				-0.001915	-0.002544	-0.002994				-90.064486	-0.969059	-39.771050
00223	765074	0.183590	-9.790436	-0.109137				-0.001987	-0.000020	-0.001023				-90.062808	-0.968560	-39.770848
00224	765124	0.201116	-9.793360	-0.120566				-0.005391	-0.001185	-0.004451				-90.064350	-0.969832	-39.770500
00225	765174	0.180038	-9.794368	-0.103145				-0.002646	-0.002620	-0.002091				-90.062893	-0.969645	-39.769584
00226	765224	0.192996	-9.784360	-0.110448				-0.003289	-0.001331	0.000066				-90.063848	-0.969625	-39.769209
00227	765274	0.204391	-9.815439	-0.116429				-0.000647	0.001296	0.000587				-90.061765	-0.968657	-39.769328
00228	765324	0.192885	-9.795100	-0.106410				-0.005916	0.001920	0.001406				-90.063441	-0.968252	-39.769877
00229	765374	0.177494	-9.785930	-0.113721				-0.004073	0.002538	0.003200				-90.062366	-0.966549	-39.770387
00230	765424	0.188778	-9.814631	-0.120484				-0.002906	-0.000790	-0.005130				-90.063208	-0.968023	-39.770154
00231	765474	0.182788	-9.800421	-0.108024				-0.005548	-0.000148	-0.003517				-90.062563	-0.968234	-39.769953
00232	765524	0.156576	-9.791541	-0.104971				-0.003456	0.002059	0.000506				-90.063535	-0.968089	-39.770540
00233	765574	0.162225	-9.791804	-0.114362				-0.003699	-0.001667	-0.001664				-90.062367	-0.967764	-39.769877
00234	765624	0.155415	-9.818378	-0.088331				-0.007831	-0.000569	-0.000302				-90.064616	-0.967849	-39.769718
00235	765674	0.151244	-9.796131	-0.088445				-0.007009	-0.001570	-0.005152				-90.064369	-0.968534	-39.769022
00236	765724	0.158182	-9.794915	-0.100108				-0.002557	0.000678	-0.002488				-90.065091	-0.969244	-39.769213
00237	765774	0.175614	-9.802645	-0.108109				0.000293	-0.002339	-0.001393				-90.062795	-0.968855	-39.768337
00238	765824	0.166912	-9.793205	-0.096655				-0.006768	-0.000753	-0.001264				-90.064728	-0.969214	-39.768122
00239	765874	0.165948	-9.812271	-0.106900				-0.002884	0.001873	-0.002134				-90.063301	-0.969033	-39.768426
00240	765924	0.160655	-9.771941	-0.095642				-0.004368	-0.000902	-0.001884				-90.064568	-0.969573	-39.768170
00241	765974	0.179378	-9.792946	-0.102985				-0.004131	-0.000291	-0.003325				-90.063505	-0.969727	-39.767818
00242	766024	0.184204	-9.804949	-0.105890				-0.005233	-0.002988	-0.002088				-90.065022	-0.970326	-39.766963
00243	766074	0.191322	-9.793785	-0.116428				-0.002987	0.000090	-0.002047				-90.063625	-0.970114	-39.766801
00244	766124	0.190285	-9.781078	-0.110087				0.000872	-0.002855	-0.006083				-90.063387	-0.971853	-39.765986
00245	766174	0.199327	-9.795134	-0.099469				-0.004195	-0.001194	-0.002082				-90.062352	-0.971657	-39.765427
00246	766224	0.181718	-9.782526	-0.115699				-0.003889	0.000200	-0.003550				-90.063470	-0.972676	-39.765485
00247	766274	0.206369	-9.800239	-0.116540				-0.004130	-0.000250	-0.000954				-90.062431	-0.972158	-39.765188
00248	766324	0.195230	-9.803328	-0.093847				-0.002173	-0.001115	0.001957				-90.063061	-0.971601	-39.764869
00249	766374	0.180941	-9.807201	-0.100513				-0.002227	-0.002906	-0.004081				-90.061452	-0.971970	-39.763804
00250	766424	0.170221	-9.790546	-0.112415				-0.000928	-0.000964	0.001121				-90.061724	-0.971647	-39.763530
00251	766474	0.172489	-9.773368	-0.117195				-0.000814	-0.003590	-0.000751				-90.059750	-0.971070	-39.762278
00252	766524	0.136869	-9.793993	-0.100277				-0.002663	-0.000809	-0.001022				-90.060517	-0.971362	-39.762042
00253	766574	0.151710	-9.799529	-0.098500				-0.004871	-0.002039	-0.000957				-90.059682	-0.970839	-39.761254
00254	766624	0.135096	-9.787567	-0.103034				-0.006121	-0.000734	0.001878				-90.061451	-0.970304	-39.761049
00255	766674	0.149721	-9.785821	-0.097248				-0.003835	0.001331	-0.005301				-90.060292	-0.971024	-39.761213
00256	766724	0.157043	-9.803583	-0.108206				0.000039	-0.000305	-0.000995				-90.060290	-0.971309	-39.761133
00257	766774	0.149508	-9.812529	-0.103496				-0.003016	-0.000973	-0.001439				-90.058939	-0.970936	-39.760674
00258	766824	0.151264	-9.804163	-0.090688				0.000436	0.004350	-0.003087				-90.058778	-0.971819	-39.761915
00259	766874	0.160215	-9.790394	-0.084130				-0.002632	0.001593	0.002524				-90.057280	-0.970299	-39.762141
00260	766924	0.167454	-9.798154	-0.098392				-0.005944	0.000425	-0.002323				-90.058976	-0.970964	-39.762263
00261	766974	0.178338	-9.795568	-0.103120				-0.001510	-0.000785	0.000156				-90.057189	-0.970130	-39.761842
00262	767024	0.195504	-9.813670	-0.100406				-0.004675	0.002937	-0.002540				-90.058505	-0.970858	-39.762676
00263	767074	0.177680	-9.795247	-0.109173				-0.003494	0.003091	-0.001098				-90.057263	-0.970381	-39.763353
00264	767124	0.188000	-9.794382	-0.095864				-0.007571	0.000371	0.000406				-90.059426	-0.970264	-39.763461
00265	767174	0.186563	-9.784370	-0.115405				-0.002056	-0.001863	0.000891				-90.057783	-0.969212	-39.762723
00266	767224	0.207984	-9.785398	-0.092755				-0.001975	-0.001479	-0.001962				-90.058348	-0.969771	-39.762296
00267	767274	0.199767	-9.775436	-0.099446				-0.004308	-0.000709	-0.002850				-90.057369	-0.969804	-39.761896
00268	767324	0.199411	-9.804488	-0.107883				-0.005040	0.000352	0.000139				-90.058810	-0.969766	-39.761997
00269	767374	0.182524	-9.778647	-0.089523				-0.003121	-0.001455	0.001540				-90.057479	-0.968529	-39.761343
00270	767424	0.182691	-9.781152	-0.096222				-0.001904	-0.000731	-0.001216				-90.058022	-0.968876	-39.761128
00271	767474	0.182581	-9.800323	-0.098781				-0.001974	-0.001401	0.001217				-90.056382	-0.967742	-39.760526
00272	767524	0.159120	-9.795611	-0.100495				-0.005417	0.001854	-0.004366				-90.057927	-0.968993	-39.761053
00273	767574	0.167619	-9.777675	-0.118704				-0.003833	0.004125	0.002891				-90.056753	-0.967369	-39.762031
00274	767624	0.165746	-9.788459	-0.113106				-0.009485	0.001043	-0.002117				-90.059468	-0.967977	-39.762331
00275	767674	0.163467	-9.798005	-0.111545				-0.005608	-0.000119	-0.002646				-90.058851	-0.967944	-39.762098
00276	767724	0.155498	-9.797577	-0.114261				0.000823	0.000358	0.001735				-90.058617	-0.967448	-39.762204
00277	767774	0.154818	-9.783632	-0.111626				-0.010662	0.002632	-0.005024				-90.059431	-0.968098	-39.762730
00278	767824	0.155195	-9.774238	-0.105440				-0.003658	0.000079	-0.000498				-90.060475	-0.968241	-39.762750
00279	767874	0.158057	-9.798440	-0.102341				-0.002223	0.000069	-0.004837				-90.058864	-0.968830	-39.762531
00280	767924	0.171110	-9.814551	-0.093224				-0.001060	-0.000101	-0.001759				-90.059161	-0.969335	-39.762492
00281	767974	0.176193	-9.795823	-0.088566				-0.003672	-0.001668	-0.003272				-90.058007	-0.969478	-39.761829
00282	768024	0.162462	-9.813862	-0.098702				-0.002164	0.001263	-0.004155				-90.058631	-0.970671	-39.762194
00283	768074	0.183612	-9.798208	-0.097022				-0.003338	0.001056	-0.001971				-90.057328	-0.970440	-39.762283
00284	768124	0.182720	-9.766559	-0.103819				0.000423	-0.000008	0.001024				-90.057203	-0.970144	-39.762279
00285	768174	0.183796	-9.778165	-0.089067				-0.004530	0.000418	-0.000626				-90.056259	-0.969529	-39.762171
00286	768224	0.194919	-9.789717	-0.100513				-0.005382	0.002082	-0.001291				-90.057786	-0.969897	-39.762770
00287	768274	0.200083	-9.791825	-0.113173				-0.006273	0.001909	-0.001001				-90.057367	-0.969401	-39.763108
00288	768324	0.196751	-9.788454	-0.103770				-0.003166	0.002034	0.000884				-90.058269	-0.969149	-39.763693
00289	768374	0.188049	-9.785109	-0.112569				-0.003457	0.001993	-0.000431				-90.057010	-0.968474	-39.764031
00290	768424	0.183572	-9.784496	-0.093545				-0.002406	0.002401	0.001241				-90.057695	-0.968120	-39.764727
00291	768474	0.172338	-9.788699	-0.107483				-0.005556	-0.001667	-0.000601				-90.057077	-0.967505	-39.764051
00292	768524	0.170437	-9.790297	-0.097668				-0.005378	-0.001344	-0.002753				-90.058627	-0.968294	-39.763665
00293	768574	0.167591	-9.781427	-0.090720				-0.005461	0.002639	-0.000481				-90.057942	-0.967638	-39.764206
00294	768624	0.163460	-9.786725	-0.119144				-0.004049	0.001926	0.003780				-90.059089	-0.966555	-39.764761
00295	768674	0.166682	-9.809187	-0.106136				0.000869	0.000871	-0.001089				-90.056593	-0.966073	-39.764789
00296	768724	0.157703	-9.804224	-0.097166				-0.008322	-0.002293	0.000012				-90.058986	-0.966069	-39.764131
00297	768774	0.142188	-9.772800	-0.116730				-0.006706	-0.000653	-0.000785				-90.058685	-0.965504	-39.763740
00298	768824	0.145240	-9.789519	-0.107114				-0.005208	0.000439	-0.001425				-90.060177	-0.965911	-39.763868
00299	768874	0.155755	-9.802001	-0.088924				-0.005542	0.001886	-0.003563				-90.059524	-0.966137	-39.764192
00300	768924	0.161361	-9.804983	-0.075164				0.000075	-0.003473	-0.000273				-90.059514	-0.966213	-39.763197
00301	768974	0.146005	-9.808244	-0.107365				-0.005252	0.000791	-0.004120				-90.058793	-0.966607	-39.763202
00302	769024	0.188871	-9.815165	-0.101084				-0.004380	0.000519	-0.003483				-90.060049	-0.967601	-39.763359
00303	769074	0.154434	-9.778712	-0.092802				-0.004326	0.000104	0.000689				-90.059057	-0.966612	-39.763177
00304	769124	0.187108	-9.808787	-0.100585				-0.004707	0.004071	-0.000221				-90.060394	-0.966678	-39.764346
00305	769174	0.188618	-9.802575	-0.086922				-0.003551	0.001694	-0.003736				-90.059160	-0.966957	-39.764603
00306	769224	0.190672	-9.784923	-0.106789				-0.003261	0.003702	-0.003469				-90.060072	-0.967951	-39.765662
00307	769274	0.199793	-9.805024	-0.088281				-0.007070	-0.000399	-0.000466				-90.059854	-0.967288	-39.765331
00308	769324	0.171451	-9.791903	-0.100259				-0.004478	-0.002424	-0.002278				-90.061140	-0.967936	-39.764636
00309	769374	0.183498	-9.800285	-0.101155				-0.006934	-0.000920	-0.004255				-90.060905	-0.968364	-39.764176
00310	769424	0.184139	-9.779872	-0.101065				-0.005023	0.000636	-0.002742				-90.062338	-0.969151	-39.764357
00311	769474	0.186937	-9.792396	-0.117355				-0.003047	0.003361	0.000986				-90.060960	-0.968073	-39.765149
00312	769524	0.171824	-9.797190	-0.080091				-0.002619	0.001906	-0.000981				-90.061700	-0.968355	-39.765692
00313	769574	0.180652	-9.789432	-0.099316				-0.002387	0.000558	0.000041				-90.060152	-0.967551	-39.765616
00314	769624	0.173288	-9.795365	-0.104979				-0.000715	0.004792	0.001311				-90.060345	-0.967179	-39.766998
00315	769674	0.176212	-9.791501	-0.091877				-0.002226	0.002931	0.005026				-90.058745	-0.964945	-39.767640
00316	769724	0.163779	-9.785085	-0.118443				-0.003666	0.001632	-0.000139				-90.059795	-0.964990	-39.768108
00317	769774	0.153299	-9.782044	-0.108360				-0.005300	0.000272	-0.004184				-90.059054	-0.965390	-39.767957
00318	769824	0.161261	-9.796388	-0.109747				-0.001369	-0.000326	-0.000094				-90.059455	-0.965419	-39.767870
00319	769874	0.155727	-9.800821	-0.103808				-0.005204	0.001767	0.002979				-90.058724	-0.963775	-39.768203
00320	769924	0.151841	-9.785466	-0.103231				-0.001365	0.000425	-0.004802				-90.059123	-0.965151	-39.768331
00321	769974	0.135680	-9.791351	-0.087662				-0.006161	0.000276	-0.003792				-90.058651	-0.965443	-39.768204
00322	770024	0.161591	-9.774998	-0.096536				-0.000890	-0.000107	-0.000345				-90.058912	-0.965543	-39.768172
00323	770074	0.166365	-9.782393	-0.105701				-0.001210	0.003856	-0.002117				-90.057000	-0.965353	-39.769074
00324	770124	0.183725	-9.806896	-0.102664				-0.001868	-0.000870	-0.002172				-90.057556	-0.965980	-39.768830
00325	770174	0.173080	-9.783906	-0.109926				-0.006899	-0.001771	-0.003454				-90.057292	-0.966174	-39.768098
00326	770224	0.170495	-9.781066	-0.080998				-0.000454	0.003091	-0.004690				-90.057411	-0.967519	-39.768983
00327	770274	0.181972	-9.791427	-0.107764				-0.003044	-0.002450	-0.004525				-90.056044	-0.968014	-39.768053
00328	770324	0.177342	-9.790565	-0.105618				-0.005444	0.001198	-0.000969				-90.057605	-0.968292	-39.768405
00329	770374	0.192624	-9.801850	-0.115004				-0.004010	-0.000106	-0.005024				-90.056551	-0.968946	-39.768172
00330	770424	0.196124	-9.796247	-0.090996				-0.003759	0.000291	-0.001878				-90.057614	-0.969484	-39.768242
00331	770474	0.192551	-9.779633	-0.109943				-0.002397	-0.000266	-0.001050				-90.056083	-0.968990	-39.768008
00332	770524	0.195075	-9.786960	-0.078602				-0.004695	0.000560	-0.002743				-90.057423	-0.969777	-39.768166
00333	770574	0.166991	-9.781948	-0.103345				-0.002311	-0.000943	-0.001183				-90.055868	-0.969327	-39.767689
00334	770624	0.179782	-9.819389	-0.111365				-0.004951	0.002058	0.002824				-90.057279	-0.968523	-39.768275
00335	770674	0.180934	-9.789755	-0.109164				-0.001686	0.001752	-0.000110				-90.055514	-0.967761	-39.768574
00336	770724	0.183815	-9.809401	-0.109600				-0.002002	0.000352	-0.002397				-90.056093	-0.968449	-39.768676
00337	770774	0.177155	-9.799217	-0.098292				-0.001547	0.001597	-0.000335				-90.054314	-0.967754	-39.768900
00338	770824	0.172844	-9.813026	-0.098367				-0.003985	-0.000683	-0.001819				-90.055464	-0.968274	-39.768705
00339	770874	0.155183	-9.810347	-0.102013				-0.000943	0.001609	-0.000721				-90.053493	-0.967691	-39.768913
00340	770924	0.163843	-9.773919	-0.118828				0.000171	0.000946	0.000752				-90.053432	-0.967475	-39.769181
00341	770974	0.162227	-9.783759	-0.097622				-0.005828	-0.000004	-0.001165				-90.052884	-0.967015	-39.768964
00342	771024	0.158963	-9.798503	-0.082382				-0.001296	0.001697	-0.000525				-90.053253	-0.967167	-39.769451
00343	771074	0.174149	-9.801764	-0.104515				-0.003068	-0.000314	-0.001945				-90.051914	-0.966934	-39.769148
00344	771124	0.147906	-9.777220	-0.102230				-0.000677	0.000314	-0.001146				-90.052107	-0.967263	-39.769243
00345	771174	0.164622	-9.794206	-0.110310				-0.003611	-0.000422	-0.002231				-90.050914	-0.967106	-39.768913
00346	771224	0.173962	-9.787869	-0.098525				-0.002442	0.003317	-0.002892				-90.051590	-0.967932	-39.769859
00347	771274	0.174561	-9.786507	-0.109594				-0.004087	0.001546	-0.003470				-90.050544	-0.968139	-39.770048
00348	771324	0.194115	-9.795163	-0.101833				-0.004870	-0.001282	-0.003550				-90.051943	-0.969154	-39.769680
00349	771374	0.188528	-9.787589	-0.105108				-0.001513	0.003435	-0.001703				-90.050142	-0.968850	-39.770426
00350	771424	0.181424	-9.772998	-0.102904				-0.003640	0.000582	-0.002645				-90.051184	-0.969607	-39.770594
00351	771474	0.189783	-9.797432	-0.096281				-0.010499	0.002792	-0.001684				-90.051954	-0.969306	-39.771161
00352	771524	0.192418	-9.802188	-0.093605				-0.002847	-0.000178	-0.001436				-90.052774	-0.969716	-39.771110
00353	771574	0.185270	-9.792861	-0.104394				-0.001493	-0.001673	-0.002506				-90.051009	-0.969645	-39.770424
00354	771624	0.168181	-9.775159	-0.112377				-0.001575	0.004303	-0.002726				-90.051434	-0.970425	-39.771653
00355	771674	0.186163	-9.796553	-0.094685				-0.006486	0.002640	-0.000957				-90.051074	-0.969907	-39.772208
00356	771724	0.170716	-9.795184	-0.103558				-0.002623	0.001995	-0.002061				-90.051821	-0.970500	-39.772782
00357	771774	0.157247	-9.806932	-0.106139				-0.007915	0.002325	0.000748				-90.051838	-0.969492	-39.773239
00358	771824	0.168223	-9.803414	-0.125928				-0.004854	0.001367	-0.003376				-90.053230	-0.970462	-39.773629
00359	771874	0.152741	-9.801900	-0.098255				-0.004867	0.001791	-0.002437				-90.052388	-0.970368	-39.773921
00360	771924	0.169270	-9.774531	-0.105745				-0.003365	0.001075	-0.000911				-90.053353	-0.970629	-39.774240
00361	771974	0.159378	-9.800633	-0.112900				-0.002993	0.000635	0.001270				-90.051983	-0.969480	-39.774267
00362	772024	0.148589	-9.793797	-0.103686				-0.003213	0.002336	-0.001318				-90.052878	-0.969856	-39.774929
00363	772074	0.151850	-9.790164	-0.121026				-0.003193	0.003219	0.002151				-90.051584	-0.968451	-39.775688
00364	772124	0.147516	-9.768281	-0.082827				-0.001216	0.001819	-0.004661				-90.051923	-0.969787	-39.776208
00365	772174	0.167855	-9.798915	-0.110249				-0.002739	-0.001232	0.001711				-90.050486	-0.968504	-39.775644
00366	772224	0.170068	-9.797265	-0.107902				-0.003206	-0.000119	-0.002230				-90.051409	-0.969142	-39.775613
00367	772274	0.182001	-9.794876	-0.099436				-0.006539	-0.000119	-0.004825				-90.051071	-0.969737	-39.775322
00368	772324	0.173205	-9.782944	-0.111049				-0.005061	0.002277	0.000355				-90.052514	-0.969641	-39.775971
00369	772374	0.175018	-9.788289	-0.116856				-0.004500	0.001606	-0.001161				-90.051568	-0.969174	-39.776233
00370	772424	0.188620	-9.795943	-0.116583				-0.000488	0.001286	-0.000053				-90.051711	-0.969194	-39.776601
00371	772474	0.179346	-9.771956	-0.110910				-0.007075	0.000878	-0.001385				-90.051491	-0.968791	-39.776627
00372	772524	0.181074	-9.773548	-0.098843				-0.002291	0.000674	0.000431				-90.052141	-0.968668	-39.776815
00373	772574	0.181220	-9.776928	-0.093973				0.000362	-0.000280	-0.001345				-90.049846	-0.968267	-39.776537
00374	772624	0.190718	-9.785249	-0.101285				-0.004039	0.002626	0.002404				-90.050990	-0.967579	-39.777287
00375	772674	0.174502	-9.783722	-0.089896				-0.001076	-0.000303	-0.000542				-90.049068	-0.966937	-39.776975
00376	772724	0.183462	-9.803616	-0.099996				-0.000914	-0.001531	-0.001828				-90.049335	-0.967461	-39.776529
00377	772774	0.167451	-9.796686	-0.101111				-0.001768	0.002266	-0.001742				-90.047616	-0.967167	-39.777020
00378	772824	0.158934	-9.781847	-0.086099				-0.005099	-0.000293	-0.007294				-90.049068	-0.969254	-39.776928
00379	772874	0.160927	-9.782800	-0.114829				-0.002523	-0.002404	-0.001956				-90.047609	-0.969030	-39.776011
00380	772924	0.171383	-9.805867	-0.102353				-0.002473	-0.002016	-0.003430				-90.048328	-0.970016	-39.775433
00381	772974	0.165834	-9.820649	-0.102241				-0.005952	0.001902	-0.000640				-90.047792	-0.969400	-39.775775
00382	773024	0.147797	-9.805797	-0.110995				-0.006600	0.000048	-0.000776				-90.049680	-0.969624	-39.775785
00383	773074	0.141216	-9.789937	-0.129124				-0.003907	0.000234	0.001787				-90.048588	-0.968323	-39.775672
00384	773124	0.165547	-9.789942	-0.109153				-0.005221	0.000776	-0.004721				-90.050085	-0.969676	-39.775893
00385	773174	0.149312	-9.776402	-0.108006				-0.001670	-0.001898	-0.001119				-90.048351	-0.969207	-39.775125
00386	773224	0.163475	-9.786208	-0.091511				-0.000786	-0.001532	-0.002436				-90.048584	-0.969905	-39.774683
00387	773274	0.176246	-9.796004	-0.107470				-0.002532	0.001184	-0.000332				-90.047087	-0.969209	-39.774830
00388	773324	0.169287	-9.784057	-0.103216				-0.009422	0.000831	-0.004616				-90.049777	-0.970532	-39.775060
00389	773374	0.184138	-9.799870	-0.096368				0.000493	0.000626	-0.002015				-90.047424	-0.970315	-39.775028
00390	773424	0.172795	-9.796285	-0.091603				-0.003678	0.003110	0.000094				-90.048467	-0.970290	-39.775920
00391	773474	0.183614	-9.791039	-0.115992				-0.007865	-0.000490	-0.001129				-90.048501	-0.969816	-39.775549
00392	773524	0.181607	-9.779290	-0.094753				-0.002760	-0.004824	0.001204				-90.049302	-0.969469	-39.774165
00393	773574	0.201794	-9.785815	-0.101625				-0.003898	0.000806	-0.000108				-90.048211	-0.968712	-39.774191
00394	773624	0.189684	-9.797379	-0.084610				-0.005565	-0.000390	-0.002355				-90.049814	-0.969389	-39.774082
00395	773674	0.203838	-9.799621	-0.096874				-0.005079	0.000528	-0.001840				-90.049045	-0.969111	-39.774039
00396	773724	0.168074	-9.795563	-0.096583				-0.002025	0.000229	-0.000596				-90.049614	-0.969282	-39.774098
00397	773774	0.173496	-9.780555	-0.111623				-0.005084	-0.000411	-0.001585				-90.048868	-0.968947	-39.773790
00398	773824	0.187822	-9.772978	-0.098658				-0.002179	0.002230	-0.000302				-90.049489	-0.969038	-39.774431
00399	773874	0.171830	-9.791924	-0.114230				-0.005718	0.000878	0.002529				-90.048896	-0.967514	-39.774452
00400	773924	0.171599	-9.806538	-0.104812				-0.002619	0.002965	-0.000872				-90.049628	-0.967764	-39.775298
00401	773974	0.153127	-9.781766	-0.095634				-0.005891	-0.001004	0.000086				-90.049119	-0.966954	-39.774795
00402	774024	0.154800	-9.781685	-0.130755				-0.000635	0.002899	-0.001770				-90.049283	-0.967461	-39.775617
00403	774074	0.145641	-9.794435	-0.095570				-0.003343	-0.000602	-0.000852				-90.048030	-0.966916	-39.775282
00404	774124	0.155177	-9.781990	-0.110513				-0.006926	-0.000899	-0.003154				-90.050022	-0.967822	-39.775021
00405	774174	0.166013	-9.807799	-0.104470				-0.001664	-0.000323	-0.004448				-90.048303	-0.968298	-39.774721
00406	774224	0.163679	-9.792987	-0.082375				-0.008138	-0.001951	-0.000527				-90.050645	-0.968445	-39.774164
00407	774274	0.186363	-9.809375	-0.093349				-0.002276	-0.000135	-0.001498				-90.049105	-0.968090	-39.773924
00408	774324	0.158364	-9.781885	-0.099064				-0.007204	-0.002255	-0.001270				-90.051183	-0.968455	-39.773281
00409	774374	0.187115	-9.797792	-0.090311				-0.005278	0.000685	-0.001166				-90.050467	-0.967994	-39.773261
00410	774424	0.176748	-9.784730	-0.115082				-0.002316	-0.001181	-0.005864				-90.051130	-0.969675	-39.772914
00411	774474	0.168408	-9.802790	-0.104581				-0.005685	-0.000416	0.000114				-90.050559	-0.968846	-39.772549
00412	774524	0.191451	-9.798990	-0.117068				-0.001496	0.002328	-0.006393				-90.050979	-0.970677	-39.773217
00413	774574	0.189179	-9.790970	-0.100879				-0.006008	0.001743	0.000384				-90.050493	-0.969781	-39.773516
00414	774624	0.193083	-9.814911	-0.098368				-0.002120	-0.000943	-0.001310				-90.051100	-0.970154	-39.773245
00415	774674	0.182313	-9.795650	-0.095039				-0.003897	0.001875	-0.000292				-90.050002	-0.969448	-39.773575
00416	774724	0.196944	-9.791599	-0.114968				-0.001304	-0.002442	-0.000745				-90.050386	-0.969661	-39.772874
00417	774774	0.210214	-9.782960	-0.095150				-0.001758	0.000007	0.000231				-90.048675	-0.968802	-39.772623
00418	774824	0.177608	-9.793389	-0.106536				-0.004569	0.000763	-0.000362				-90.049971	-0.968903	-39.772834
00419	774874	0.175136	-9.811625	-0.094688				-0.001742	0.000718	0.000944				-90.048250	-0.967841	-39.772766
00420	774924	0.154309	-9.791093	-0.104872				-0.000825	0.000385	0.004984				-90.048498	-0.966416	-39.772885
00421	774974	0.159013	-9.786975	-0.107222				-0.007094	-0.001481	-0.000595				-90.048336	-0.965796	-39.772306
00422	775024	0.150455	-9.804200	-0.104759				-0.005836	-0.002304	-0.004736				-90.050014	-0.967149	-39.771651
00423	775074	0.165348	-9.809050	-0.116572				-0.009154	-0.001623	-0.005367				-90.050451	-0.967904	-39.770925
00424	775124	0.135665	-9.792452	-0.108912				-0.003202	-0.001048	0.001038				-90.051378	-0.967607	-39.770625
00425	775174	0.165684	-9.788855	-0.103089				-0.000873	0.004449	-0.001600				-90.049413	-0.967276	-39.771710
00426	775224	0.147506	-9.792054	-0.094380				-0.001086	0.002217	-0.000358				-90.049714	-0.967381	-39.772344
00427	775274	0.160622	-9.768305	-0.101419				-0.004821	0.000530	-0.000587				-90.048873	-0.966757	-39.772273
00428	775324	0.153713	-9.791080	-0.091123				-0.006998	0.000461	-0.002087				-90.050876	-0.967355	-39.772404
00429	775374	0.176092	-9.802306	-0.098847				-0.002161	0.001285	-0.004537				-90.049287	-0.967863	-39.772569
00430	775424	0.179588	-9.815355	-0.095721				-0.003436	0.002266	-0.003470				-90.050267	-0.968862	-39.773212
00431	775474	0.172387	-9.783296	-0.103901				-0.004134	0.000764	-0.004981				-90.049232	-0.969495	-39.773220
00432	775524	0.178115	-9.783082	-0.097898				-0.006372	0.002155	-0.000384				-90.051051	-0.969607	-39.773842
00433	775574	0.169996	-9.791199	-0.116425				0.001079	0.000481	0.001194				-90.048532	-0.968472	-39.773812
00434	775624	0.196185	-9.800283	-0.121892				-0.003441	0.001459	-0.001647				-90.049505	-0.968940	-39.774232
00435	775674	0.187859	-9.773045	-0.110630				-0.003013	0.003216	-0.001126				-90.048148	-0.968471	-39.774994
00436	775724	0.196444	-9.791941	-0.109009				-0.003060	0.002632	-0.001001				-90.048996	-0.968753	-39.775738
00437	775774	0.176825	-9.792277	-0.102901				-0.003015	0.000475	0.001846				-90.047669	-0.967444	-39.775677
00438	775824	0.181602	-9.789098	-0.104892				-0.005185	0.000978	-0.000425				-90.049158	-0.967570	-39.775956
00439	775874	0.193185	-9.795979	-0.111129				-0.003652	-0.002161	-0.001346				-90.047993	-0.967151	-39.775206
00440	775924	0.186919	-9.804421	-0.107055				-0.003765	0.001419	-0.003731				-90.049066	-0.968221	-39.775611
00441	775974	0.169119	-9.783568	-0.104201				-0.005941	0.001611	-0.001378				-90.048543	-0.967826	-39.775867
00442	776024	0.180677	-9.808426	-0.098392				-0.004672	-0.000276	-0.002068				-90.049879	-0.968418	-39.775787
00443	776074	0.159292	-9.799236	-0.096122				-0.003572	0.001523	-0.001037				-90.048681	-0.967918	-39.776012
00444	776124	0.138504	-9.768245	-0.091766				-0.004571	0.001764	-0.002278				-90.049983	-0.968571	-39.776520
00445	776174	0.152113	-9.798596	-0.112772				-0.010471	0.000752	-0.004002				-90.050797	-0.968930	-39.776544
00446	776224	0.149934	-9.785405	-0.108326				-0.005162	0.001204	-0.002506				-90.052278	-0.969647	-39.776900
00447	776274	0.143802	-9.790960	-0.106828				-0.001769	0.000168	-0.001430				-90.050568	-0.969261	-39.776724
00448	776324	0.167664	-9.801342	-0.122249				-0.001991	-0.001069	-0.003424				-90.051138	-0.970240	-39.776416
00449	776374	0.160230	-9.818304	-0.089857				-0.002833	0.003541	-0.002438				-90.049734	-0.970153	-39.777229
00450	776424	0.177295	-9.805235	-0.092630				-0.004324	0.000761	-0.005084				-90.050959	-0.971610	-39.777439
00451	776474	0.161773	-9.780816	-0.088757				-0.004823	0.001300	-0.004752				-90.050137	-0.972171	-39.777590
00452	776524	0.172908	-9.804589	-0.091057				0.000931	-0.001913	0.001308				-90.049875	-0.971795	-39.777039
00453	776574	0.164969	-9.777909	-0.089741				-0.006705	0.000104	-0.003628				-90.049590	-0.972044	-39.776863
00454	776624	0.196274	-9.792703	-0.105597				-0.000964	0.003050	-0.003923				-90.049846	-0.973170	-39.777733
00455	776674	0.192624	-9.778959	-0.091754				-0.003893	-0.001553	-0.001980				-90.048770	-0.972943	-39.777049
00456	776724	0.190291	-9.794465	-0.103902				-0.000550	0.001188	-0.002456				-90.048918	-0.973647	-39.777383
00457	776774	0.192423	-9.794820	-0.078800				-0.005736	0.000601	-0.007129				-90.048369	-0.974900	-39.777369
00458	776824	0.185961	-9.773384	-0.105072				-0.002214	0.001192	-0.001746				-90.049000	-0.975403	-39.777709
00459	776874	0.191650	-9.791045	-0.093671				-0.003199	0.001916	-0.003058				-90.047686	-0.975478	-39.778085
00460	776924	0.185817	-9.809813	-0.096505				-0.004359	0.002253	-0.000003				-90.048921	-0.975479	-39.778733
00461	776974	0.182413	-9.804464	-0.092014				-0.006128	0.003581	0.000007				-90.048472	-0.974688	-39.779552
00462	777024	0.178714	-9.792105	-0.112290				-0.004185	0.001638	-0.002508				-90.049662	-0.975406	-39.780020
00463	777074	0.158258	-9.789923	-0.101183				-0.005117	0.002920	-0.002336				-90.048934	-0.975289	-39.780647
00464	777124	0.162915	-9.791775	-0.115779				-0.001986	-0.000129	-0.002524				-90.049510	-0.976012	-39.780612
00465	777174	0.162045	-9.803886	-0.100179				-0.004136	0.000122	-0.001745				-90.048469	-0.975719	-39.780414
00466	777224	0.146620	-9.792135	-0.105097				-0.001526	0.000886	0.000627				-90.048911	-0.975543	-39.780669
00467	777274	0.161286	-9.808548	-0.090420				-0.004299	0.000222	-0.000589				-90.047929	-0.974919	-39.780540
00468	777324	0.146561	-9.781787	-0.099672				-0.003117	-0.000864	-0.002876				-90.048823	-0.975744	-39.780284
00469	777374	0.172118	-9.785351	-0.109841				-0.004542	0.003865	-0.001723				-90.047906	-0.975449	-39.781178
00470	777424	0.164588	-9.781645	-0.094420				-0.002670	0.000339	-0.002491				-90.048672	-0.976162	-39.781273
00471	777474	0.167297	-9.804003	-0.103831				-0.004099	-0.003366	-0.002345				-90.047676	-0.976043	-39.780102
00472	777524	0.172853	-9.785693	-0.117269				-0.001825	-0.001159	-0.002597				-90.048201	-0.976786	-39.779768
00473	777574	0.169975	-9.794312	-0.099287				-0.003622	0.001007	-0.001807				-90.047030	-0.976518	-39.779844
00474	777624	0.182238	-9.783827	-0.092365				-0.002623	-0.000007	-0.000599				-90.047784	-0.976692	-39.779845
00475	777674	0.192345	-9.810676	-0.112147				-0.004628	0.002702	0.000031				-90.046926	-0.975894	-39.780401
00476	777724	0.188568	-9.798772	-0.087102				-0.002465	0.001930	-0.001421				-90.047627	-0.976299	-39.780957
00477	777774	0.183050	-9.790971	-0.105331				-0.003303	0.001144	0.000181				-90.046360	-0.975456	-39.781094
00478	777824	0.200983	-9.790038	-0.105455				-0.003705	0.000516	-0.002611				-90.047403	-0.976200	-39.781235
00479	777874	0.181745	-9.806548	-0.096488				-0.003870	0.000969	-0.001390				-90.046325	-0.975812	-39.781247
00480	777924	0.184123	-9.797260	-0.096313				-0.003843	0.004137	-0.001407				-90.047397	-0.976216	-39.782429
00481	777974	0.186486	-9.801801	-0.092222				-0.007309	-0.000099	-0.004660				-90.047299	-0.976761	-39.782205
00482	778024	0.161909	-9.800347	-0.099182				-0.002427	-0.002304	-0.000126				-90.048001	-0.976795	-39.781545
00483	778074	0.169115	-9.782177	-0.102104				-0.002474	-0.000458	0.001233				-90.046525	-0.975655	-39.781190
00484	778124	0.160388	-9.785545	-0.106451				-0.004326	-0.001011	-0.000821				-90.047773	-0.975891	-39.780905
00485	778174	0.167852	-9.792030	-0.094928				-0.002425	-0.002433	-0.002471				-90.046270	-0.975801	-39.779991
00486	778224	0.165921	-9.792483	-0.112861				-0.002249	-0.000547	0.001036				-90.046927	-0.975506	-39.779839
00487	778274	0.140026	-9.784678	-0.101823				-0.003149	0.002670	0.001702				-90.045619	-0.974231	-39.780387
00488	778324	0.175184	-9.792924	-0.108395				-0.003866	0.005013	0.000203				-90.046696	-0.974174	-39.781820
00489	778374	0.165903	-9.794077	-0.087014				-0.002979	0.000884	-0.003060				-90.045357	-0.974258	-39.781874
00490	778424	0.164330	-9.792346	-0.108359				-0.002253	-0.000814	-0.002369				-90.046002	-0.974936	-39.781640
00491	778474	0.175172	-9.802332	-0.113153				-0.001295	0.002570	0.000148				-90.044170	-0.974102	-39.782169
00492	778524	0.184137	-9.805136	-0.093652				-0.004835	0.003954	-0.003936				-90.045527	-0.975228	-39.783300
00493	778574	0.178623	-9.776988	-0.077072				-0.005651	0.001686	0.000028				-90.044945	-0.974430	-39.783539
00494	778624	0.178325	-9.786553	-0.103526				-0.006824	0.000472	0.003138				-90.046905	-0.973530	-39.783683
00495	778674	0.163076	-9.790464	-0.107601				-0.002525	0.000996	-0.000010				-90.045432	-0.972741	-39.783746
00496	778724	0.188867	-9.784621	-0.096406				0.000923	-0.001693	0.000185				-90.045171	-0.972689	-39.783250
00497	778774	0.189929	-9.783482	-0.108579				-0.005453	0.003532	0.000004				-90.044514	-0.971895	-39.784027
00498	778824	0.182873	-9.799438	-0.094464				-0.000665	0.000796	-0.001850				-90.044704	-0.972429	-39.784254
00499	778874	0.206695	-9.795806	-0.096104				-0.003178	0.001043	-0.002549				-90.043422	-0.972362	-39.784361
00500	778924	0.180416	-9.795345	-0.100553				-0.005218	-0.002059	-0.000022				-90.044928	-0.972368	-39.783768
00501	778974	0.190094	-9.815322	-0.104611				-0.000706	-0.002081	-0.001866				-90.042933	-0.972112	-39.782965
00502	779024	0.185814	-9.799028	-0.119145				-0.000428	-0.002248	-0.007737				-90.043069	-0.974327	-39.782322
00503	779074	0.165695	-9.783814	-0.090811				-0.001425	0.000723	0.000141				-90.041268	-0.973497	-39.782307
00504	779124	0.180206	-9.805160	-0.111049				-0.003500	-0.002804	-0.000224				-90.042288	-0.973562	-39.781507
00505	779174	0.170847	-9.814995	-0.126570				-0.003380	0.000656	-0.000045				-90.041061	-0.972779	-39.781484
00506	779224	0.159140	-9.796718	-0.090157				-0.002548	0.000097	0.004217				-90.041802	-0.971572	-39.781521
00507	779274	0.163046	-9.791405	-0.108665				-0.006051	0.000098	0.002301				-90.041344	-0.970128	-39.781346
00508	779324	0.154071	-9.781584	-0.091284				-0.002831	0.000535	-0.001168				-90.042147	-0.970462	-39.781495
00509	779374	0.150502	-9.785965	-0.071437				-0.004034	-0.001205	-0.004931				-90.041112	-0.971080	-39.780910
00510	779424	0.173183	-9.809074	-0.077768				-0.004759	-0.001768	-0.004160				-90.042486	-0.972271	-39.780408
00511	779474	0.165326	-9.776291	-0.102628				-0.003082	-0.000963	-0.003808				-90.041200	-0.972577	-39.779955
00512	779524	0.174523	-9.797793	-0.084891				-0.000643	0.000892	-0.004605				-90.041386	-0.973895	-39.780218
00513	779574	0.184932	-9.790507	-0.118834				-0.005982	-0.000562	-0.005047				-90.040887	-0.974545	-39.779830
00514	779624	0.178491	-9.792742	-0.101951				-0.002014	0.001138	-0.000047				-90.041458	-0.974558	-39.780155
00515	779674	0.181179	-9.787211	-0.104469				-0.005070	0.000202	-0.003061				-90.040725	-0.974650	-39.780004
00516	779724	0.181488	-9.806632	-0.090946				-0.004143	0.001483	0.000472				-90.041907	-0.974513	-39.780436
00517	779774	0.184395	-9.785559	-0.101765				-0.003832	0.000709	-0.000720				-90.040823	-0.973931	-39.780433
00518	779824	0.191717	-9.789988	-0.116434				-0.004416	-0.000237	-0.001524				-90.042098	-0.974371	-39.780370
00519	779874	0.188906	-9.803288	-0.101765				-0.003197	0.000827	-0.001715				-90.040796	-0.974069	-39.780441
00520	779924	0.171561	-9.787221	-0.096267				-0.006045	0.001718	-0.002727				-90.042518	-0.974851	-39.780932
00521	779974	0.187284	-9.785863	-0.109841				0.000488	0.002966	-0.001166				-90.040165	-0.974395	-39.781548
00522	780024	0.172168	-9.765298	-0.086620				-0.004274	0.002720	-0.000032				-90.041389	-0.974402	-39.782337
00523	780074	0.173633	-9.776392	-0.104797				-0.004625	-0.000846	-0.003131				-90.040510	-0.974508	-39.781914
00524	780124	0.169197	-9.816572	-0.118200				-0.004938	-0.001980	-0.001565				-90.041935	-0.974957	-39.781349
00525	780174	0.172986	-9.786706	-0.098106				-0.002939	0.001869	-0.000583				-90.040576	-0.974329	-39.781640
00526	780224	0.172177	-9.792746	-0.106746				-0.003175	-0.000141	-0.003452				-90.041485	-0.975321	-39.781593
00527	780274	0.179498	-9.807656	-0.118705				-0.002486	-0.002158	0.001796				-90.040024	-0.974016	-39.780783
00528	780324	0.168284	-9.804365	-0.110274				-0.001714	0.002605	-0.001767				-90.040504	-0.974521	-39.781531
00529	780374	0.164684	-9.808907	-0.095100				-0.001061	-0.000942	-0.001664				-90.038629	-0.974208	-39.781047
00530	780424	0.185688	-9.788103	-0.104373				-0.001340	0.000831	-0.001910				-90.039006	-0.974756	-39.781279
00531	780474	0.161565	-9.796671	-0.091385				-0.004429	0.004758	0.001391				-90.038053	-0.973566	-39.782439
00532	780524	0.153972	-9.797755	-0.119837				-0.006019	0.000879	-0.001992				-90.039776	-0.974135	-39.782696
00533	780574	0.169174	-9.793468	-0.108104				-0.002797	0.001287	-0.003286				-90.038377	-0.974287	-39.782867
00534	780624	0.153892	-9.785612	-0.091812				-0.004455	-0.001940	-0.001945				-90.039667	-0.974843	-39.782311
00535	780674	0.172144	-9.793632	-0.110799				-0.005201	-0.000463	0.000721				-90.038981	-0.973848	-39.781974
00536	780724	0.174682	-9.803681	-0.103162				-0.002500	0.000907	-0.003158				-90.039689	-0.974753	-39.782230
00537	780774	0.194162	-9.802588	-0.112354				-0.003523	0.001120	-0.000332				-90.038529	-0.974061	-39.782381
00538	780824	0.186890	-9.786870	-0.107031				-0.002565	-0.001103	-0.003555				-90.039274	-0.975078	-39.782068
00539	780874	0.184742	-9.801198	-0.117915				-0.006721	0.002966	-0.001373				-90.038992	-0.974683	-39.782694
00540	780924	0.172232	-9.788989	-0.120127				-0.002982	-0.002143	-0.003174				-90.039848	-0.975589	-39.782070
00541	780974	0.185249	-9.778175	-0.087191				-0.005561	0.001527	-0.004239				-90.039245	-0.976013	-39.782260
00542	781024	0.173476	-9.777724	-0.094842				-0.007434	0.001537	0.001831				-90.041364	-0.975489	-39.782699
00543	781074	0.175054	-9.797033	-0.103481				-0.006174	0.002944	-0.001244				-90.040936	-0.975062	-39.783311
00544	781124	0.164023	-9.771845	-0.099422				-0.002173	-0.001356	-0.004098				-90.041576	-0.976235	-39.782933
00545	781174	0.187905	-9.782654	-0.102277				-0.003261	-0.003174	0.000896				-90.040315	-0.975179	-39.781825
00546	781224	0.179839	-9.799809	-0.088566				-0.004067	0.000907	-0.003605				-90.041476	-0.976213	-39.782085
00547	781274	0.178536	-9.807655	-0.104109				-0.001984	0.001986	-0.002286				-90.039879	-0.976080	-39.782445
00548	781324	0.163819	-9.783393	-0.119901				-0.002517	0.003721	-0.000928				-90.040576	-0.976346	-39.783506
00549	781374	0.150287	-9.788867	-0.114056				-0.003506	-0.000593	-0.001170				-90.039393	-0.975887	-39.783118
00550	781424	0.159874	-9.800565	-0.102140				-0.005056	-0.000203	-0.002197				-90.040831	-0.976516	-39.783056
00551	781474	0.145017	-9.814932	-0.105366				-0.002996	-0.001428	-0.000091				-90.039526	-0.975750	-39.782454
00552	781524	0.167821	-9.786925	-0.118486				-0.004543	0.002141	0.000157				-90.040811	-0.975705	-39.783068
00553	781574	0.164274	-9.782056	-0.114336				-0.003629	-0.001828	-0.002274				-90.039676	-0.975560	-39.782351
00554	781624	0.152680	-9.801908	-0.128296				-0.006950	-0.002047	-0.001747				-90.041683	-0.976061	-39.781769
00555	781674	0.180302	-9.796004	-0.088835				-0.004881	0.001182	-0.005399				-90.040883	-0.976818	-39.781842
00556	781724	0.145887	-9.796189	-0.089103				-0.004547	-0.001970	-0.000502				-90.042186	-0.976963	-39.781266
00557	781774	0.155362	-9.793777	-0.083850				-0.002881	0.003231	-0.000671				-90.040816	-0.976358	-39.782044
00558	781824	0.194881	-9.795895	-0.115257				-0.004961	0.000928	-0.001647				-90.042231	-0.976832	-39.782313
00559	781874	0.183818	-9.784629	-0.100499				-0.001363	0.003134	0.002273				-90.040431	-0.975389	-39.783002
00560	781924	0.178905	-9.781853	-0.100044				-0.002450	-0.000381	-0.000982				-90.041146	-0.975673	-39.782895
00561	781974	0.175284	-9.797833	-0.097631				-0.003216	0.004482	-0.003744				-90.039837	-0.975951	-39.783964
00562	782024	0.180973	-9.813596	-0.116271				-0.000049	0.000725	0.000172				-90.039841	-0.975900	-39.784169
00563	782074	0.176198	-9.778351	-0.098298				0.000475	0.003392	-0.000712				-90.037522	-0.975313	-39.784944
00564	782124	0.172753	-9.797762	-0.104385				-0.007137	-0.000311	-0.003056				-90.039576	-0.976188	-39.784861
00565	782174	0.172999	-9.796386	-0.084972				-0.004335	-0.000776	-0.002585				-90.038607	-0.976135	-39.784391
00566	782224	0.173632	-9.790366	-0.121534				-0.002021	0.001306	0.000215				-90.039168	-0.976073	-39.784759
00567	782274	0.179675	-9.795801	-0.102712				-0.004169	0.001036	-0.003569				-90.038188	-0.976307	-39.784859
00568	782324	0.176902	-9.787314	-0.070151				-0.004084	0.002822	-0.001544				-90.039343	-0.976749	-39.785671
00569	782374	0.178718	-9.814751	-0.089750				-0.003510	0.001700	-0.000808				-90.038154	-0.976186	-39.785903
00570	782424	0.179673	-9.822245	-0.110573				-0.003183	0.002676	0.000671				-90.039058	-0.975993	-39.786676
00571	782474	0.170720	-9.786169	-0.118935				-0.002475	-0.000580	0.000234				-90.037568	-0.975133	-39.786292
00572	782524	0.153413	-9.791618	-0.071677				-0.004893	-0.000568	-0.006206				-90.038979	-0.976912	-39.786130
00573	782574	0.141616	-9.787786	-0.099277				-0.008976	-0.002021	-0.003637				-90.039361	-0.977158	-39.785348
00574	782624	0.175901	-9.789594	-0.092397				-0.006235	0.001615	-0.003177				-90.041138	-0.978068	-39.785808
00575	782674	0.156209	-9.777639	-0.099446				-0.003667	0.003636	-0.002015				-90.039993	-0.977856	-39.786569
00576	782724	0.151554	-9.784673	-0.108339				-0.005978	0.002985	0.000072				-90.041691	-0.977836	-39.787423
00577	782774	0.170035	-9.794613	-0.110608				-0.004463	0.004525	-0.001369				-90.040763	-0.977433	-39.788540
00578	782824	0.156009	-9.785415	-0.103043				-0.003225	0.002196	0.001472				-90.041679	-0.977012	-39.789173
00579	782874	0.180562	-9.764827	-0.094713				-0.000584	-0.000745	-0.002885				-90.039676	-0.977050	-39.788761
00580	782924	0.184386	-9.796407	-0.105813				-0.001655	0.003670	-0.002792				-90.040129	-0.977852	-39.789809
00581	782974	0.184368	-9.795759	-0.101647				-0.001174	0.000672	-0.002779				-90.038300	-0.977856	-39.789804
00582	783024	0.175342	-9.775606	-0.108206				-0.003331	0.001988	-0.002763				-90.039251	-0.978647	-39.790376
00583	783074	0.189290	-9.774779	-0.104170				-0.003625	0.000341	-0.000402				-90.038083	-0.977972	-39.790268
00584	783124	0.178446	-9.812088	-0.093130				-0.004943	-0.001686	0.000361				-90.039506	-0.977869	-39.789786
00585	783174	0.194248	-9.789742	-0.099286				-0.008067	0.001939	-0.001855				-90.039630	-0.977604	-39.790109
00586	783224	0.186365	-9.791031	-0.098661				-0.003836	-0.000118	-0.000434				-90.040733	-0.977726	-39.790081
00587	783274	0.203551	-9.818753	-0.102105				-0.002786	0.002234	0.001305				-90.039330	-0.976562	-39.790462
00588	783324	0.169496	-9.787663	-0.115535				-0.002397	0.002010	-0.000425				-90.040013	-0.976687	-39.791037
00589	783374	0.169860	-9.791114	-0.091351				-0.002420	-0.001156	0.001130				-90.038551	-0.975574	-39.790543
00590	783424	0.174202	-9.780537	-0.097099				-0.001993	0.001170	-0.003512				-90.039121	-0.976580	-39.790879
00591	783474	0.168157	-9.798031	-0.105506				-0.003663	0.001473	-0.000618				-90.037968	-0.975962	-39.791093
00592	783524	0.187381	-9.805204	-0.101673				0.000806	0.002801	-0.004058				-90.037733	-0.977126	-39.791898
00593	783574	0.161432	-9.776815	-0.102329				-0.002147	-0.002157	-0.002820				-90.036177	-0.977139	-39.791112
00594	783624	0.169922	-9.789313	-0.100441				-0.003012	0.000023	-0.001973				-90.037032	-0.977700	-39.791117
00595	783674	0.168670	-9.820148	-0.101474				-0.003296	-0.001141	-0.001051				-90.035801	-0.977215	-39.790577
00596	783724	0.160121	-9.797276	-0.115103				-0.005476	0.000953	-0.002444				-90.037357	-0.977913	-39.790849
00597	783774	0.168628	-9.783530	-0.091894				-0.005186	0.004093	-0.002010				-90.036667	-0.977697	-39.791893
00598	783824	0.193650	-9.793362	-0.095364				-0.006006	0.005428	-0.005436				-90.038355	-0.979254	-39.793446
00599	783874	0.191882	-9.794229	-0.117914				-0.006271	-0.002754	-0.005478				-90.037983	-0.980033	-39.792444
00600	783924	0.168714	-9.794621	-0.095217				-0.004038	-0.000629	0.002132				-90.039136	-0.979420	-39.792263
00601	783974	0.188933	-9.807759	-0.088643				-0.004400	-0.000709	-0.002393				-90.038232	-0.979318	-39.791898
00602	784024	0.181137	-9.797296	-0.081479				-0.007569	0.000332	-0.002089				-90.040392	-0.979918	-39.791990
00603	784074	0.180750	-9.813227	-0.110324				-0.003025	0.002713	0.000093				-90.039079	-0.979098	-39.792576
00604	784124	0.185978	-9.799257	-0.104083				-0.000042	-0.000463	0.000611				-90.039082	-0.978921	-39.792436
00605	784174	0.185897	-9.776485	-0.088331				-0.002361	0.002849	-0.001447				-90.037568	-0.978544	-39.793002
00606	784224	0.177361	-9.791220	-0.109216				-0.005066	0.000315	0.000406				-90.039021	-0.978429	-39.793096
00607	784274	0.186319	-9.792564	-0.091487				-0.003631	-0.003503	0.000769				-90.037915	-0.977423	-39.791880
00608	784324	0.191370	-9.795330	-0.092761				-0.005645	0.001244	-0.000393				-90.039524	-0.977534	-39.792238
00609	784374	0.190306	-9.800817	-0.106778				-0.002293	0.000753	0.000304				-90.038012	-0.976656	-39.792226
00610	784424	0.176974	-9.801386	-0.111639				-0.006114	0.002370	0.002250				-90.039750	-0.976012	-39.792904
00611	784474	0.152493	-9.797864	-0.082956				-0.004048	0.001661	-0.000773				-90.038732	-0.975442	-39.793185
00612	784524	0.166479	-9.797297	-0.108443				-0.005907	-0.000510	-0.000012				-90.040432	-0.975445	-39.793045
00613	784574	0.173837	-9.806880	-0.111733				-0.001386	-0.002951	-0.001993				-90.038660	-0.975221	-39.791988
00614	784624	0.155374	-9.792349	-0.115506				-0.003809	0.001881	-0.003857				-90.039741	-0.976328	-39.792525
00615	784674	0.166688	-9.801067	-0.094706				-0.002560	0.001103	-0.000333				-90.038294	-0.975629	-39.792601
00616	784724	0.163119	-9.795256	-0.105057				-0.003795	0.002500	-0.001606				-90.039364	-0.976090	-39.793318
00617	784774	0.166609	-9.793966	-0.078273				-0.005323	-0.000083	-0.003988				-90.038723	-0.976440	-39.793094
00618	784824	0.169872	-9.796307	-0.108328				-0.002152	0.002171	-0.003221				-90.039319	-0.977365	-39.793713
00619	784874	0.179519	-9.792024	-0.101450				-0.001672	0.000311	-0.000955				-90.037640	-0.976846	-39.793575
00620	784924	0.163066	-9.781484	-0.121267				-0.001588	0.001603	-0.001905				-90.038087	-0.977391	-39.794036
00621	784974	0.188809	-9.786642	-0.120015				-0.003485	0.001762	-0.002605				-90.036886	-0.977344	-39.794305
00622	785024	0.178581	-9.797255	-0.100950				-0.001943	0.001730	-0.000425				-90.037437	-0.977463	-39.794803
00623	785074	0.184477	-9.793741	-0.093858				-0.002929	0.001416	-0.001425				-90.036086	-0.977075	-39.794999
00624	785124	0.168651	-9.796212	-0.100273				-0.006635	0.000894	-0.005200				-90.037972	-0.978564	-39.795246
00625	785174	0.168763	-9.790761	-0.099195				0.000744	0.001708	-0.002870				-90.035588	-0.978597	-39.795544
00626	785224	0.172213	-9.776017	-0.099375				-0.004857	0.000376	-0.004503				-90.036976	-0.979887	-39.795653
00627	785274	0.176474	-9.780340	-0.092370				-0.004254	0.000875	-0.002673				-90.036025	-0.979866	-39.795725
00628	785324	0.197765	-9.806817	-0.112096				-0.001944	0.000954	0.000688				-90.036581	-0.979668	-39.796001
00629	785374	0.162057	-9.783338	-0.109554				-0.002873	0.000837	-0.000847				-90.035223	-0.979118	-39.796041
00630	785424	0.153729	-9.780280	-0.114775				-0.002974	0.002066	-0.000678				-90.036058	-0.979314	-39.796632
00631	785474	0.162961	-9.794189	-0.112703				-0.004232	0.001203	-0.001576				-90.035109	-0.978972	-39.796749
00632	785524	0.167110	-9.807541	-0.120592				-0.004236	0.002661	0.001702				-90.036308	-0.978481	-39.797518
00633	785574	0.182962	-9.791043	-0.085251				-0.004195	0.000072	-0.001010				-90.035340	-0.977983	-39.797335
00634	785624	0.169026	-9.792898	-0.099499				-0.003345	0.001409	-0.002830				-90.036295	-0.978792	-39.797740
00635	785674	0.159365	-9.799567	-0.104930				-0.002149	0.001171	-0.000976				-90.034713	-0.978274	-39.797904
00636	785724	0.170872	-9.794122	-0.080032				0.000121	-0.000826	-0.002915				-90.034686	-0.979112	-39.797664
00637	785774	0.159819	-9.778492	-0.087024				-0.003816	0.001571	0.001854				-90.033624	-0.977796	-39.797871
00638	785824	0.179233	-9.805400	-0.110794				-0.001735	0.004546	0.000576				-90.034104	-0.977632	-39.799174
00639	785874	0.167267	-9.804964	-0.102506				0.000415	0.003289	0.000022				-90.031794	-0.976832	-39.799910
00640	785924	0.171795	-9.800862	-0.104112				-0.004357	-0.000064	-0.002165				-90.033045	-0.977454	-39.799890
00641	785974	0.181029	-9.815670	-0.089723				-0.002191	0.000195	-0.004642				-90.031494	-0.977984	-39.799734
00642	786024	0.177587	-9.808680	-0.099282				-0.001578	0.003248	-0.003503				-90.031927	-0.978988	-39.800661
00643	786074	0.167982	-9.789234	-0.091452				-0.005731	0.000980	-0.001478				-90.031416	-0.978623	-39.800725
00644	786124	0.179024	-9.788692	-0.102712				-0.003938	0.001110	-0.002450				-90.032544	-0.979325	-39.801045
00645	786174	0.175332	-9.794064	-0.111048				-0.002009	-0.000179	-0.000563				-90.030936	-0.978695	-39.800809
00646	786224	0.178488	-9.804187	-0.097861				-0.002792	0.001323	-0.001137				-90.031720	-0.979022	-39.801182
00647	786274	0.179421	-9.800377	-0.098645				-0.005969	0.004201	-0.005957				-90.031249	-0.979937	-39.802184
00648	786324	0.186576	-9.792773	-0.093382				-0.004594	-0.000483	-0.001013				-90.032575	-0.980226	-39.802053
00649	786374	0.172881	-9.772346	-0.105967				-0.002417	0.000453	-0.002871				-90.031097	-0.980261	-39.801969
00650	786424	0.182164	-9.795458	-0.091976				-0.005767	0.001010	-0.002991				-90.032742	-0.981118	-39.802259
00651	786474	0.178564	-9.807103	-0.108821				-0.000133	-0.000927	-0.002436				-90.030633	-0.981026	-39.801796
00652	786524	0.163882	-9.795316	-0.116249				-0.002753	0.001101	-0.000463				-90.031420	-0.981160	-39.802107
00653	786574	0.164091	-9.779906	-0.100034				-0.005588	-0.000635	-0.001971				-90.030855	-0.980932	-39.801646
00654	786624	0.167399	-9.788278	-0.108260				-0.007617	0.001948	-0.001790				-90.033020	-0.981446	-39.802197
00655	786674	0.153830	-9.792020	-0.091830				-0.005544	-0.000152	-0.004276				-90.032454	-0.981881	-39.801968
00656	786724	0.169455	-9.797187	-0.097607				-0.005063	0.001225	0.000411				-90.033902	-0.981764	-39.802322
00657	786774	0.160772	-9.786472	-0.091899				-0.006452	-0.000519	-0.000747				-90.033603	-0.981186	-39.802004
00658	786824	0.138683	-9.784508	-0.099097				-0.003524	-0.001150	-0.003289				-90.034626	-0.982126	-39.801683
00659	786874	0.165963	-9.784348	-0.086764				-0.002605	0.000714	-0.000110				-90.033183	-0.981368	-39.801619
00660	786924	0.161860	-9.807330	-0.107596				-0.002251	-0.001771	-0.001055				-90.033843	-0.981667	-39.801119
00661	786974	0.158755	-9.793949	-0.100743				-0.007486	0.002022	0.000938				-90.033815	-0.980610	-39.801410
00662	787024	0.179062	-9.799104	-0.088833				-0.005044	0.000441	-0.003316				-90.035259	-0.981561	-39.801539
00663	787074	0.170493	-9.798321	-0.084444				-0.003063	-0.000425	-0.002621				-90.033980	-0.981523	-39.801187
00664	787124	0.174980	-9.785657	-0.102649				-0.004192	0.001875	-0.003085				-90.035166	-0.982406	-39.801722
00665	787174	0.178976	-9.794349	-0.089486				-0.001593	-0.003146	0.000055				-90.033461	-0.981595	-39.800692
00666	787224	0.190307	-9.797408	-0.097050				-0.006501	-0.000136	-0.003189				-90.035329	-0.982506	-39.800660
00667	787274	0.179429	-9.790293	-0.106071				-0.005046	0.002842	0.000419				-90.034609	-0.981599	-39.801268
00668	787324	0.176063	-9.796053	-0.104824				-0.004201	-0.003199	-0.003721				-90.035825	-0.982665	-39.800344
00669	787374	0.188539	-9.796624	-0.103779				-0.006171	-0.002222	0.001162				-90.035455	-0.981539	-39.799541
00670	787424	0.162764	-9.774796	-0.093730				-0.002379	0.000458	0.000050				-90.036146	-0.981529	-39.799678
00671	787474	0.172698	-9.774360	-0.083255				-0.004960	-0.000038	-0.000239				-90.035391	-0.980801	-39.799424
00672	787524	0.183108	-9.795911	-0.108176				-0.002737	0.001913	0.003070				-90.036159	-0.979923	-39.799968
00673	787574	0.147845	-9.799231	-0.090438				-0.007287	-0.001372	-0.000363				-90.036086	-0.979236	-39.799323
00674	787624	0.183593	-9.795567	-0.083472				-0.001536	0.000759	-0.004448				-90.036519	-0.980507	-39.799540
00675	787674	0.167620	-9.789820	-0.100435				-0.001096	0.002288	-0.002646				-90.034677	-0.980478	-39.799986
00676	787724	0.171017	-9.802545	-0.087312				-0.002088	-0.000929	-0.002593				-90.035270	-0.981219	-39.799712
00677	787774	0.162731	-9.798002	-0.096246				-0.007815	0.002943	-0.004289				-90.035328	-0.981660	-39.800333
00678	787824	0.161523	-9.809772	-0.087741				-0.005733	-0.000891	-0.000364				-90.036971	-0.981764	-39.800077
00679	787874	0.155150	-9.795514	-0.094548				-0.007775	0.003050	0.000495				-90.037040	-0.980825	-39.800755
00680	787924	0.156533	-9.781076	-0.106868				-0.002989	0.003516	-0.002433				-90.037884	-0.981525	-39.801762
00681	787974	0.179653	-9.799680	-0.097245				-0.006140	-0.002719	-0.004739				-90.037496	-0.982088	-39.800785
00682	788024	0.164213	-9.778215	-0.086061				-0.002696	-0.000644	0.000044				-90.038274	-0.982074	-39.800608
00683	788074	0.174560	-9.803940	-0.086652				-0.004850	0.000381	-0.001038				-90.037493	-0.981580	-39.800497
00684	788124	0.188153	-9.795115	-0.109429				-0.002713	0.003006	-0.000808				-90.038247	-0.981809	-39.801357
00685	788174	0.202849	-9.801618	-0.122261				-0.003193	0.001737	-0.001515				-90.037005	-0.981456	-39.801635
00686	788224	0.159841	-9.781738	-0.091862				-0.004702	-0.000264	-0.003222				-90.038370	-0.982378	-39.801568
00687	788274	0.182923	-9.779405	-0.101820				-0.006543	0.000450	-0.001322				-90.038058	-0.981965	-39.801462
00688	788324	0.187481	-9.783079	-0.105906				-0.004242	0.001494	-0.001547				-90.039271	-0.982411	-39.801890
00689	788374	0.174193	-9.765247	-0.103765				-0.007369	-0.000892	-0.001039				-90.039214	-0.981908	-39.801411
00690	788424	0.187041	-9.799166	-0.109372				-0.001879	0.002725	-0.002223				-90.039744	-0.982547	-39.802197
00691	788474	0.193495	-9.811683	-0.092215				-0.004018	-0.000603	-0.001557				-90.038720	-0.982200	-39.801783
00692	788524	0.204612	-9.786359	-0.125585				-0.004565	0.003554	-0.002214				-90.040014	-0.982834	-39.802807
00693	788574	0.173159	-9.802244	-0.089362				0.000288	0.000792	-0.003582				-90.037781	-0.983066	-39.802857
00694	788624	0.174650	-9.798495	-0.100976				-0.001906	0.001089	0.002875				-90.038328	-0.982241	-39.803173
00695	788674	0.162416	-9.790394	-0.113137				-0.002874	-0.000261	-0.001238				-90.036984	-0.981808	-39.802885
00696	788724	0.185562	-9.805750	-0.098647				-0.002875	0.000066	0.001137				-90.037804	-0.981482	-39.802902
00697	788774	0.153297	-9.785850	-0.107754				-0.002192	0.000428	-0.002234				-90.036279	-0.981326	-39.802818
00698	788824	0.161090	-9.804190	-0.111759				-0.004692	-0.000349	0.001619				-90.037633	-0.980865	-39.802719
00699	788874	0.166227	-9.785470	-0.122067				-0.005614	0.004539	-0.001461				-90.037069	-0.980494	-39.803812
00700	788924	0.150809	-9.788699	-0.093943				-0.004863	-0.000942	0.000656				-90.038457	-0.980305	-39.803535
00701	788974	0.166603	-9.782716	-0.115885				-0.006296	-0.001514	-0.001008				-90.038109	-0.979801	-39.802902
00702	789024	0.181101	-9.789042	-0.093924				-0.006666	0.003060	-0.003458				-90.040010	-0.980790	-39.803784
00703	789074	0.179085	-9.790085	-0.103910				-0.001942	-0.001509	-0.002824				-90.038424	-0.980809	-39.803149
00704	789124	0.168289	-9.801647	-0.117503				-0.004527	0.000191	-0.001839				-90.039715	-0.981336	-39.803202
00705	789174	0.188733	-9.803574	-0.098716				-0.004642	0.000870	-0.003251				-90.038875	-0.981470	-39.803208
00706	789224	0.191039	-9.809039	-0.111474				-0.006240	0.001616	-0.003753				-90.040651	-0.982546	-39.803672
00707	789274	0.177160	-9.785657	-0.085436				-0.005171	0.000475	-0.000332				-90.040003	-0.981852	-39.803604
00708	789324	0.179027	-9.778222	-0.089083				-0.005043	-0.000460	-0.001171				-90.041462	-0.982193	-39.803471
00709	789374	0.188643	-9.797266	-0.093107				-0.002812	-0.001362	-0.003809				-90.040103	-0.982486	-39.802892
00710	789424	0.179713	-9.778707	-0.088300				-0.004751	0.001419	-0.001225				-90.041460	-0.982839	-39.803303
00711	789474	0.179028	-9.792417	-0.107011				-0.003717	0.001177	0.000344				-90.040367	-0.981954	-39.803395
00712	789524	0.170309	-9.777394	-0.103939				-0.008313	0.002581	-0.003070				-90.042737	-0.982835	-39.804137
00713	789574	0.169378	-9.798527	-0.103136				-0.003432	-0.000918	-0.002014				-90.041574	-0.982618	-39.803649
00714	789624	0.178933	-9.807340	-0.093133				-0.005004	0.000151	-0.002484				-90.043005	-0.983329	-39.803692
00715	789674	0.166535	-9.806999	-0.093905				-0.000586	0.001494	-0.000145				-90.041011	-0.982574	-39.803890
00716	789724	0.172986	-9.798791	-0.113979				-0.006692	-0.000068	-0.000652				-90.042926	-0.982760	-39.803863
00717	789774	0.174240	-9.803956	-0.116385				-0.007167	-0.003345	-0.001147				-90.042845	-0.982300	-39.802689
00718	789824	0.166013	-9.795712	-0.088023				-0.004930	0.001293	0.002718				-90.044256	-0.981519	-39.803063
00719	789874	0.163347	-9.803304	-0.105869				-0.000913	0.004607	-0.002758				-90.042340	-0.981522	-39.804136
00720	789924	0.161528	-9.787532	-0.099949				-0.002239	-0.001139	-0.000571				-90.042994	-0.981687	-39.803807
00721	789974	0.157149	-9.794473	-0.099173				-0.001346	-0.000065	-0.002491				-90.041220	-0.981604	-39.803598
00722	790024	0.165612	-9.780986	-0.105475				-0.003050	0.001169	-0.002677				-90.042083	-0.982368	-39.803935
00723	790074	0.172351	-9.791533	-0.093029				-0.002894	0.000168	-0.003579				-90.040772	-0.982604	-39.803760
00724	790124	0.179118	-9.791567	-0.115829				-0.003444	-0.000452	-0.000403				-90.041768	-0.982723	-39.803632
00725	790174	0.185751	-9.805003	-0.116435				-0.004209	-0.001925	-0.003041				-90.040812	-0.982795	-39.802873
00726	790224	0.168555	-9.800628	-0.090712				-0.005493	0.001908	0.000548				-90.042369	-0.982636	-39.803414
00727	790274	0.175764	-9.792242	-0.105942				-0.002062	0.003515	-0.001606				-90.040808	-0.982305	-39.804240
00728	790324	0.179446	-9.805268	-0.089165				-0.008153	-0.000704	-0.004597				-90.043141	-0.983621	-39.804035
00729	790374	0.168207	-9.774363	-0.102436				-0.006000	0.003181	-0.004771				-90.042698	-0.984197	-39.804687
00730	790424	0.174260	-9.779182	-0.092113				-0.004181	0.001571	-0.002890				-90.043885	-0.985027	-39.805132
00731	790474	0.173839	-9.776199	-0.086653				-0.004873	0.001099	-0.004116				-90.043127	-0.985416	-39.805240
00732	790524	0.190768	-9.802219	-0.092718				-0.004418	-0.003122	-0.001250				-90.044402	-0.985774	-39.804333
00733	790574	0.179678	-9.787037	-0.101311				-0.003462	0.001229	-0.000494				-90.043256	-0.985124	-39.804524
00734	790624	0.187297	-9.804136	-0.109715				-0.003654	-0.000875	0.000487				-90.044302	-0.984984	-39.804270
00735	790674	0.184925	-9.779233	-0.111257				0.000326	0.001936	-0.003063				-90.042038	-0.985067	-39.804575
00736	790724	0.169092	-9.783988	-0.123427				-0.000332	0.002416	-0.002322				-90.042110	-0.985731	-39.805263
00737	790774	0.173869	-9.793564	-0.113396				-0.000889	0.000987	0.000559				-90.040209	-0.984780	-39.805317
00738	790824	0.148240	-9.787493	-0.097418				0.000473	0.002400	-0.001714				-90.040070	-0.985271	-39.806008
00739	790874	0.165758	-9.803570	-0.086588				-0.003787	0.000089	-0.002544				-90.038989	-0.985204	-39.805783
00740	790924	0.157991	-9.797696	-0.104713				-0.001486	0.000259	-0.002778				-90.039406	-0.985999	-39.805853
00741	790974	0.162313	-9.788706	-0.084398				-0.003672	0.001675	-0.004048				-90.038317	-0.986366	-39.806111
00742	791024	0.161787	-9.792371	-0.108883				-0.006443	-0.000993	-0.003864				-90.040172	-0.987474	-39.805826
00743	791074	0.174493	-9.789271	-0.099536				-0.003911	0.002058	-0.002314				-90.039126	-0.987338	-39.806194
00744	791124	0.154971	-9.787982	-0.106529				-0.006587	0.000524	-0.002760				-90.041010	-0.988129	-39.806343
00745	791174	0.169276	-9.784285	-0.119689				-0.004965	-0.000798	0.000302				-90.040309	-0.987254	-39.805958
00746	791224	0.158759	-9.787012	-0.104795				-0.004906	0.001137	-0.002862				-90.041708	-0.988074	-39.806283
00747	791274	0.191727	-9.820414	-0.081443				-0.004950	0.002295	-0.003663				-90.040961	-0.988328	-39.806722
00748	791324	0.182098	-9.804707	-0.107822				-0.006023	-0.000048	-0.002673				-90.042690	-0.989092	-39.806715
00749	791374	0.187559	-9.807271	-0.090797				-0.006104	0.000303	-0.004083				-90.042297	-0.989472	-39.806591
00750	791424	0.183301	-9.795586	-0.082893				-0.006934	0.000484	-0.002863				-90.044276	-0.990292	-39.806732
00751	791474	0.173248	-9.786728	-0.111522				-0.002817	0.001181	0.000949				-90.042940	-0.989232	-39.806863
00752	791524	0.193632	-9.802275	-0.086912				-0.002424	0.001469	-0.004666				-90.043640	-0.990572	-39.807291
00753	791574	0.188894	-9.781342	-0.094172				-0.005853	-0.001534	-0.003386				-90.043163	-0.990748	-39.806623
00754	791624	0.176354	-9.790976	-0.110261				-0.002044	0.001229	0.001718				-90.043739	-0.990256	-39.806968
00755	791674	0.171513	-9.779920	-0.108884				-0.003746	0.003329	0.000387				-90.042665	-0.989354	-39.807734
00756	791724	0.182339	-9.793747	-0.110398				-0.004741	0.001340	0.000570				-90.044016	-0.989192	-39.808116
00757	791774	0.159424	-9.785230	-0.096722				-0.008607	-0.000350	-0.002091				-90.044325	-0.988999	-39.807802
00758	791824	0.178610	-9.807033	-0.097874				-0.003747	0.000358	0.002260				-90.045395	-0.988355	-39.807901
00759	791874	0.176710	-9.799640	-0.102434				-0.002946	0.002143	-0.000359				-90.044103	-0.987666	-39.808329
00760	791924	0.161864	-9.782404	-0.093040				-0.004591	-0.000468	0.000435				-90.045436	-0.987540	-39.808207
00761	791974	0.164450	-9.795442	-0.092066				-0.004385	-0.003216	-0.000515				-90.044558	-0.986893	-39.807014
00762	792024	0.174042	-9.800079	-0.091084				-0.001080	0.003019	-0.000299				-90.044869	-0.986981	-39.807892
00763	792074	0.172025	-9.803944	-0.119112				-0.002381	0.000546	0.001169				-90.043403	-0.985852	-39.807862
00764	792124	0.174719	-9.798832	-0.079282				-0.008043	0.000983	-0.003432				-90.045711	-0.986833	-39.808151
00765	792174	0.169576	-9.783603	-0.086613				-0.004476	0.002856	-0.002342				-90.044809	-0.986711	-39.808737
00766	792224	0.176011	-9.806057	-0.086266				-0.007849	0.005388	-0.001483				-90.047030	-0.987138	-39.810280
00767	792274	0.180691	-9.789588	-0.105091				-0.003898	-0.000265	0.000077				-90.046016	-0.986321	-39.810018
00768	792324	0.159873	-9.801915	-0.106681				-0.004925	0.001913	-0.001704				-90.047406	-0.986808	-39.810559
00769	792374	0.187630	-9.791910	-0.102016				-0.002079	-0.001106	-0.001793				-90.045871	-0.986529	-39.810039
00770	792424	0.183272	-9.807786	-0.122352				-0.003237	0.001401	0.001596				-90.046784	-0.986069	-39.810435
00771	792474	0.172917	-9.795075	-0.109133				-0.004658	0.003764	0.000199				-90.045965	-0.985222	-39.811307
00772	792524	0.187695	-9.776750	-0.116428				-0.005149	0.000647	-0.002510				-90.047443	-0.985942	-39.811496
00773	792574	0.183493	-9.796928	-0.087625				-0.003848	0.000317	0.000433				-90.046401	-0.985027	-39.811374
00774	792624	0.172741	-9.773631	-0.084248				-0.005271	0.001650	-0.001608				-90.047908	-0.985490	-39.811850
00775	792674	0.186062	-9.803520	-0.104210				-0.003095	0.001758	0.000441				-90.046626	-0.984565	-39.812139
00776	792724	0.191169	-9.814742	-0.095589				-0.004534	-0.000600	-0.002363				-90.047925	-0.985239	-39.811967
00777	792774	0.176297	-9.802809	-0.096702				-0.005075	0.002459	-0.001473				-90.047260	-0.984876	-39.812506
00778	792824	0.173368	-9.811458	-0.107933				-0.005284	0.000869	-0.001965				-90.048761	-0.985440	-39.812753
00779	792874	0.182750	-9.789168	-0.099618				-0.004411	-0.001278	-0.001431				-90.047890	-0.985054	-39.812198
00780	792924	0.177165	-9.796059	-0.103160				-0.004049	0.001509	-0.000650				-90.049052	-0.985241	-39.812638
00781	792974	0.163753	-9.785099	-0.101935				-0.005665	0.002899	-0.003523				-90.048495	-0.985454	-39.813227
00782	793024	0.180558	-9.785926	-0.095884				-0.000343	0.001799	-0.001781				-90.048578	-0.985966	-39.813736
00783	793074	0.156408	-9.782698	-0.109847				-0.006009	0.002701	-0.002112				-90.048150	-0.985777	-39.814308
00784	793124	0.164236	-9.793307	-0.091806				-0.004101	-0.003082	-0.002535				-90.049344	-0.986501	-39.813431
00785	793174	0.157631	-9.797037	-0.101707				-0.006631	0.002078	-0.001534				-90.049094	-0.986149	-39.813824
00786	793224	0.161393	-9.790807	-0.102584				-0.001455	0.000288	-0.002811				-90.049495	-0.986950	-39.813903
00787	793274	0.175898	-9.811514	-0.132674				-0.006071	0.001571	-0.000161				-90.049111	-0.986208	-39.814105
00788	793324	0.169510	-9.786621	-0.106268				-0.003705	0.000575	-0.002708				-90.050167	-0.986984	-39.814266
00789	793374	0.184653	-9.799219	-0.107516				-0.002683	-0.000242	-0.000727				-90.048806	-0.986396	-39.814032
00790	793424	0.166869	-9.784673	-0.096163				-0.003179	-0.000001	-0.004797				-90.049721	-0.987769	-39.814037
00791	793474	0.183446	-9.797684	-0.084982				-0.003262	0.000270	0.002772				-90.048529	-0.986190	-39.813909
00792	793524	0.185692	-9.801966	-0.113298				-0.003588	0.001097	-0.001843				-90.049548	-0.986718	-39.814225
00793	793574	0.174429	-9.775336	-0.111039				-0.002775	-0.000609	-0.004702				-90.048200	-0.987265	-39.813830
00794	793624	0.193592	-9.816213	-0.090593				-0.005540	0.001869	-0.003115				-90.049781	-0.988157	-39.814369
00795	793674	0.174893	-9.771572	-0.124022				-0.003634	0.000254	-0.002903				-90.048676	-0.988196	-39.814246
00796	793724	0.176328	-9.778987	-0.103186				-0.004119	-0.000664	-0.004415				-90.049865	-0.989461	-39.814061
00797	793774	0.191222	-9.797150	-0.082455				-0.005364	0.001983	0.004006				-90.049241	-0.987523	-39.814404
00798	793824	0.183793	-9.791139	-0.109413				-0.004256	0.000862	-0.000907				-90.050457	-0.987781	-39.814653
00799	793874	0.170601	-9.784751	-0.088061				-0.004017	0.004446	-0.003197				-90.049445	-0.987904	-39.815692
00800	793924	0.156173	-9.811902	-0.093052				-0.005997	0.001215	-0.002794				-90.051159	-0.988706	-39.816044
00801	793974	0.171872	-9.808018	-0.100421				-0.000539	-0.001239	-0.001958				-90.049197	-0.988472	-39.815494
00802	794024	0.177934	-9.809055	-0.090226				-0.002867	-0.003576	-0.000522				-90.050033	-0.988619	-39.814470
00803	794074	0.165634	-9.798161	-0.114865				-0.006872	-0.001384	-0.000883				-90.049904	-0.988085	-39.813888
00804	794124	0.162507	-9.805759	-0.086019				-0.002140	0.001696	-0.004406				-90.050509	-0.989348	-39.814368
00805	794174	0.163478	-9.805884	-0.107879				-0.003242	0.001365	-0.000426				-90.049262	-0.988669	-39.814564
00806	794224	0.164075	-9.788358	-0.121071				-0.003086	0.001302	-0.000780				-90.050147	-0.988895	-39.814935
00807	794274	0.164769	-9.801132	-0.107663				-0.003547	0.001511	-0.005589				-90.049023	-0.989706	-39.815141
00808	794324	0.162457	-9.794218	-0.127296				-0.004371	0.001606	0.000414				-90.050278	-0.989589	-39.815605
00809	794374	0.164133	-9.799489	-0.106667				-0.004218	0.003833	-0.001245				-90.049335	-0.989150	-39.816522
00810	794424	0.173928	-9.788128	-0.096867				-0.004320	0.000826	-0.002351				-90.050556	-0.989824	-39.816750
00811	794474	0.170715	-9.789483	-0.088692				-0.000907	0.003043	-0.006357				-90.048684	-0.990854	-39.817411
00812	794524	0.180629	-9.795192	-0.126201				-0.004045	0.002477	-0.001030				-90.049837	-0.991149	-39.818124
00813	794574	0.177911	-9.771073	-0.107467				-0.003904	-0.002243	-0.002334				-90.048818	-0.991024	-39.817230
00814	794624	0.178594	-9.791307	-0.102715				-0.004056	0.002570	-0.003625				-90.049973	-0.992063	-39.817973
00815	794674	0.174562	-9.776181	-0.102462				-0.006408	-0.001925	-0.001588				-90.049669	-0.991722	-39.817190
00816	794724	0.174344	-9.781453	-0.098935				-0.006393	-0.000440	-0.001069				-90.051496	-0.992027	-39.817064
00817	794774	0.177704	-9.796113	-0.114669				-0.004580	0.001113	-0.001384				-90.050690	-0.991636	-39.817174
00818	794824	0.194838	-9.801285	-0.103903				-0.001442	-0.000770	0.000162				-90.051106	-0.991591	-39.816950
00819	794874	0.164959	-9.791032	-0.116233				-0.002863	-0.000533	0.000560				-90.049790	-0.990633	-39.816621
00820	794924	0.162401	-9.803700	-0.096327				-0.002901	-0.002508	-0.000671				-90.050631	-0.990824	-39.815896
00821	794974	0.163588	-9.779061	-0.124405				-0.003953	0.002216	-0.003532				-90.049640	-0.991042	-39.816349
00822	795024	0.187907	-9.806754	-0.108386				-0.000395	0.002152	-0.003959				-90.049750	-0.992175	-39.816970
00823	795074	0.165203	-9.786159	-0.109058				-0.002790	0.000946	-0.003698				-90.048403	-0.992445	-39.817014
00824	795124	0.155592	-9.784262	-0.101046				-0.002687	-0.003025	0.000066				-90.049183	-0.992424	-39.816144
00825	795174	0.175854	-9.800145	-0.100891				-0.008658	0.002133	-0.003903				-90.049550	-0.992755	-39.816539
00826	795224	0.169076	-9.790358	-0.110342				-0.002483	-0.000437	-0.001335				-90.050254	-0.993135	-39.816413
00827	795274	0.178805	-9.787262	-0.103378				-0.002649	-0.000508	-0.003169				-90.048900	-0.993248	-39.816064
00828	795324	0.162917	-9.787849	-0.092839				-0.006281	0.003379	0.000012				-90.050682	-0.993246	-39.817035
00829	795374	0.162293	-9.782070	-0.114873				-0.005183	0.001876	-0.001539				-90.050031	-0.992897	-39.817371
00830	795424	0.181156	-9.784179	-0.100947				-0.002950	0.000945	-0.003669				-90.050863	-0.993949	-39.817634
00831	795474	0.184298	-9.790586	-0.113969				-0.001927	0.002389	-0.001740				-90.049284	-0.993653	-39.818109
00832	795524	0.154729	-9.763907	-0.114094				-0.005060	0.001069	-0.001670				-90.050733	-0.994132	-39.818423
00833	795574	0.173674	-9.800549	-0.107037				-0.004008	0.001318	0.000696				-90.049742	-0.993138	-39.818579
00834	795624	0.174168	-9.780816	-0.109564				-0.001681	-0.001651	-0.001314				-90.050238	-0.993516	-39.818106
00835	795674	0.165587	-9.781925	-0.106417				-0.003112	0.001232	-0.001967				-90.048993	-0.993286	-39.818295
00836	795724	0.189296	-9.789000	-0.104766				0.001401	0.001179	-0.003587				-90.048598	-0.994318	-39.818637
00837	795774	0.186716	-9.795787	-0.113177				0.000022	0.000549	0.000806				-90.046446	-0.993287	-39.818511
00838	795824	0.183129	-9.795977	-0.104152				-0.003807	0.000899	-0.000972				-90.047538	-0.993564	-39.818776
00839	795874	0.180012	-9.804289	-0.090021				-0.006261	-0.001341	0.000592				-90.047189	-0.992597	-39.818128
00840	795924	0.172952	-9.787158	-0.083415				-0.001001	0.003404	-0.001448				-90.047453	-0.993012	-39.819101
00841	795974	0.189452	-9.804871	-0.075166				-0.002281	0.001384	0.000567				-90.045985	-0.992058	-39.819299
00842	796024	0.185200	-9.811207	-0.098664				-0.005075	-0.000545	-0.000947				-90.047447	-0.992327	-39.819149
00843	796074	0.176020	-9.816390	-0.108382				-0.001990	-0.000975	-0.001149				-90.045875	-0.991860	-39.818652
00844	796124	0.177004	-9.789960	-0.114694				-0.004206	0.000240	-0.002868				-90.047091	-0.992682	-39.818729
00845	796174	0.173076	-9.783728	-0.090896				-0.003164	0.000043	0.001302				-90.045873	-0.991519	-39.818529
00846	796224	0.154592	-9.774513	-0.103562				-0.005554	0.000282	-0.003728				-90.047465	-0.992587	-39.818612
00847	796274	0.167824	-9.800871	-0.106455				-0.001733	-0.002336	-0.005588				-90.045848	-0.993392	-39.817721
00848	796324	0.181270	-9.800184	-0.109632				-0.003916	-0.000814	-0.000373				-90.046970	-0.993499	-39.817481
00849	796374	0.185469	-9.794317	-0.101993				-0.003439	-0.000612	-0.001339				-90.045832	-0.993084	-39.817107
00850	796424	0.155403	-9.803671	-0.103963				-0.003354	0.002681	-0.003050				-90.046781	-0.993957	-39.817878
00851	796474	0.178426	-9.809380	-0.115134				-0.001743	0.000386	-0.001622				-90.045155	-0.993628	-39.817753
00852	796524	0.160607	-9.783583	-0.094663				-0.001925	-0.001176	-0.005031				-90.045719	-0.995068	-39.817420
00853	796574	0.177417	-9.795555	-0.105097				-0.005393	-0.001781	-0.001658				-90.045130	-0.994746	-39.816729
00854	796624	0.178133	-9.782660	-0.094124				-0.007718	-0.001204	-0.001746				-90.047346	-0.995243	-39.816388
00855	796674	0.190962	-9.794435	-0.105184				-0.005657	0.000606	-0.000812				-90.046853	-0.994686	-39.816339
00856	796724	0.176906	-9.799884	-0.101529				-0.006318	0.000310	-0.000168				-90.048657	-0.994734	-39.816424
00857	796774	0.208335	-9.796966	-0.096223				-0.006043	0.004065	0.000778				-90.048263	-0.993722	-39.817340
00858	796824	0.176661	-9.796805	-0.117005				-0.001764	-0.001369	-0.005321				-90.048785	-0.995247	-39.816955
00859	796874	0.181047	-9.792476	-0.117401				-0.005858	0.002865	-0.002850				-90.048321	-0.995270	-39.817520
00860	796924	0.179366	-9.797043	-0.098954				-0.008194	-0.000411	-0.003762				-90.050669	-0.996349	-39.817400
00861	796974	0.164711	-9.808936	-0.108868				-0.004042	0.001518	0.000638				-90.049701	-0.995370	-39.817588
00862	797024	0.170259	-9.775851	-0.111455				-0.002462	0.003224	0.001344				-90.050391	-0.994990	-39.818508
00863	797074	0.146538	-9.756971	-0.108996				-0.003041	-0.001062	-0.002556				-90.049147	-0.994924	-39.818012
00864	797124	0.169225	-9.796329	-0.091797				-0.002348	0.003514	-0.001316				-90.049793	-0.995301	-39.819014
00865	797174	0.166679	-9.803915	-0.109897				0.000931	-0.001691	0.004002				-90.047422	-0.993361	-39.818313
00866	797224	0.159021	-9.787793	-0.100046				-0.006162	0.004409	-0.003707				-90.049154	-0.994422	-39.819575
00867	797274	0.167305	-9.768818	-0.108938				-0.006431	0.003121	0.000776				-90.048877	-0.993407	-39.820289
00868	797324	0.173871	-9.808573	-0.094278				-0.005318	-0.000903	0.001041				-90.050413	-0.993111	-39.820029
00869	797374	0.151634	-9.795392	-0.105367				-0.002955	0.000501	0.001557				-90.049130	-0.991872	-39.819978
00870	797424	0.168789	-9.786829	-0.108296				-0.006911	0.002652	-0.004256				-90.051092	-0.993089	-39.820738
00871	797474	0.169767	-9.819077	-0.109072				-0.002886	0.001810	-0.005368				-90.049800	-0.993838	-39.821073
00872	797524	0.152705	-9.795865	-0.104680				-0.003396	0.000227	-0.001232				-90.050762	-0.994192	-39.821135
00873	797574	0.164113	-9.786392	-0.094470				-0.003357	0.002009	-0.001580				-90.049596	-0.993848	-39.821525
00874	797624	0.175896	-9.772556	-0.105584				-0.004165	0.000411	0.000630				-90.050787	-0.993666	-39.821640
00875	797674	0.180871	-9.782163	-0.109100				-0.002383	0.001571	-0.001554				-90.049353	-0.993317	-39.821862
00876	797724	0.172941	-9.785559	-0.095448				-0.003906	0.005262	-0.001656				-90.050443	-0.993793	-39.823366
00877	797774	0.171368	-9.808019	-0.101464				-0.002304	-0.000240	-0.002813				-90.048975	-0.993798	-39.823095
00878	797824	0.193585	-9.820337	-0.099999				-0.008287	0.000921	0.000992				-90.051346	-0.993513	-39.823365
00879	797874	0.186239	-9.787535	-0.110431				-0.003893	0.001345	-0.002702				-90.050342	-0.993496	-39.823547
00880	797924	0.197696	-9.793085	-0.094887				-0.002997	0.000192	-0.006757				-90.051203	-0.995431	-39.823602
00881	797974	0.192262	-9.801742	-0.107088				-0.004932	0.003144	-0.000799				-90.050460	-0.994854	-39.824303
00882	798024	0.164606	-9.783486	-0.097546				-0.001823	0.004235	0.000706				-90.050965	-0.994653	-39.825525
00883	798074	0.154297	-9.776313	-0.109806				-0.007566	0.002517	-0.000151				-90.051008	-0.993907	-39.826044
00884	798124	0.183412	-9.802231	-0.097917				-0.003154	0.001625	-0.000878				-90.051901	-0.994158	-39.826504
00885	798174	0.181155	-9.806570	-0.111134				-0.004848	0.000170	-0.002031				-90.051168	-0.993938	-39.826298
00886	798224	0.169878	-9.800998	-0.111708				-0.000650	-0.000623	0.001673				-90.051360	-0.993456	-39.826126
00887	798274	0.165436	-9.791581	-0.110851				-0.006004	-0.002500	-0.000087				-90.050992	-0.992693	-39.825171
00888	798324	0.158868	-9.795630	-0.099713				-0.003987	-0.000626	-0.003485				-90.052142	-0.993693	-39.824991
00889	798374	0.149156	-9.785706	-0.104798				-0.005063	-0.001704	0.000619				-90.051460	-0.992715	-39.824319
00890	798424	0.160949	-9.792390	-0.108222				-0.007066	0.000715	-0.000417				-90.053480	-0.992833	-39.824524
00891	798474	0.177119	-9.801213	-0.091916				-0.006092	0.002544	0.001544				-90.053115	-0.991606	-39.825051
00892	798524	0.180891	-9.791867	-0.126077				-0.000870	0.002041	-0.004055				-90.053351	-0.992765	-39.825633
00893	798574	0.180203	-9.782475	-0.105227				-0.000699	0.001625	-0.004540				-90.051416	-0.993271	-39.825954
00894	798624	0.179364	-9.800793	-0.102229				-0.003729	0.001579	-0.001742				-90.052487	-0.993770	-39.826413
00895	798674	0.176765	-9.789395	-0.104573				-0.003242	0.001565	0.001497				-90.051276	-0.992541	-39.826651
00896	798724	0.179636	-9.784488	-0.097821				-0.002794	0.001273	-0.002131				-90.052072	-0.993152	-39.827014
00897	798774	0.186156	-9.797997	-0.108963				-0.003157	0.001423	-0.004889				-90.050863	-0.993762	-39.827212
00898	798824	0.198609	-9.814941	-0.107422				-0.006460	-0.000243	-0.001042				-90.052723	-0.994061	-39.827146
00899	798874	0.193399	-9.800194	-0.129675				-0.006808	-0.000577	-0.002069				-90.052563	-0.993856	-39.826767
00900	798924	0.200761	-9.808826	-0.117852				-0.001176	-0.001249	-0.000610				-90.052914	-0.994031	-39.826419
00901	798974	0.196988	-9.806954	-0.119028				-0.002081	-0.000205	-0.002653				-90.051400	-0.993999	-39.826143
00902	799024	0.205365	-9.799364	-0.112416				-0.004594	-0.002832	-0.002021				-90.052734	-0.994577	-39.825338
00903	799074	0.173996	-9.810441	-0.111268				-0.002266	0.001001	0.001879				-90.051265	-0.993241	-39.825383
00904	799124	0.181567	-9.793115	-0.089982				-0.001638	0.002359	0.000247				-90.051727	-0.993173	-39.826055
00905	799174	0.178593	-9.803791	-0.093199				-0.007076	0.000101	0.000634				-90.051649	-0.992200	-39.825854
00906	799224	0.166337	-9.793946	-0.110539				-0.003518	0.000639	-0.004180				-90.052646	-0.993392	-39.826034
00907	799274	0.170415	-9.799673	-0.089699				-0.003458	0.001235	0.000437				-90.051511	-0.992469	-39.826179
00908	799324	0.179996	-9.790388	-0.084080				-0.006479	0.002703	0.003147				-90.053349	-0.991568	-39.826952
00909	799374	0.170819	-9.805414	-0.101805				-0.008572	0.003888	-0.000494				-90.053700	-0.990921	-39.827878
00910	799424	0.175887	-9.798829	-0.109357				-0.001974	-0.001494	-0.003208				-90.054276	-0.991839	-39.827450
00911	799474	0.169214	-9.790221	-0.103532				0.000197	0.002101	0.000662				-90.052112	-0.990858	-39.827861
00912	799524	0.179658	-9.806815	-0.095684				-0.002146	0.000925	-0.002840				-90.052716	-0.991672	-39.828124
00913	799574	0.171918	-9.783536	-0.119779				-0.006510	0.001171	-0.003112				-90.052463	-0.991768	-39.828270
00914	799624	0.175328	-9.803005	-0.100566				-0.004670	0.001691	-0.002313				-90.053799	-0.992430	-39.828762
00915	799674	0.173605	-9.789409	-0.106291				-0.003532	-0.000778	-0.002813				-90.052703	-0.992440	-39.828355
00916	799724	0.177846	-9.795681	-0.096516				-0.004818	0.000332	-0.002608				-90.054081	-0.993186	-39.828450
00917	799774	0.188474	-9.791758	-0.096063				-0.005549	0.001551	0.000928				-90.053560	-0.992131	-39.828674
00918	799824	0.160088	-9.790119	-0.102180				-0.004850	0.001196	-0.005331				-90.054956	-0.993662	-39.829017
00919	799874	0.177145	-9.792295	-0.101139				0.001239	0.002278	-0.003769				-90.052485	-0.993946	-39.829467
00920	799924	0.176352	-9.809589	-0.103411				-0.003843	-0.002876	0.001259				-90.053589	-0.993585	-39.828634
00921	799974	0.196316	-9.803127	-0.106663				-0.004797	-0.002374	-0.000888				-90.052867	-0.993038	-39.827762
00922	800024	0.179029	-9.786549	-0.103152				-0.002432	0.000796	-0.003055				-90.053565	-0.993914	-39.827989
00923	800074	0.188173	-9.804143	-0.124094				-0.005835	0.000993	-0.004811				-90.053129	-0.994499	-39.828057
00924	800124	0.178994	-9.794628	-0.102184				-0.002582	0.004137	0.002126				-90.053846	-0.993893	-39.829239
00925	800174	0.175587	-9.800168	-0.099495				-0.002198	0.000344	-0.004823				-90.052369	-0.994474	-39.829117
00926	800224	0.167383	-9.780235	-0.106969				-0.003751	0.003629	0.002000				-90.053425	-0.993903	-39.830156
00927	800274	0.173138	-9.800851	-0.103377				-0.004133	-0.000908	0.000469				-90.052496	-0.992973	-39.829631
00928	800324	0.172468	-9.788224	-0.123314				-0.005963	0.000089	-0.002409				-90.054197	-0.993663	-39.829651
00929	800374	0.172486	-9.806379	-0.099111				-0.005803	0.003526	0.000434				-90.053743	-0.992745	-39.830474
00930	800424	0.153493	-9.804120	-0.107163				-0.007056	0.001362	-0.002366				-90.055763	-0.993426	-39.830863
00931	800474	0.176552	-9.801710	-0.106426				-0.001506	-0.004067	-0.001192				-90.054109	-0.992968	-39.829518
00932	800524	0.170163	-9.809134	-0.106750				-0.004918	0.001959	0.000743				-90.055506	-0.992754	-39.830078
00933	800574	0.166606	-9.792723	-0.097382				-0.005710	0.001391	-0.000606				-90.055021	-0.992133	-39.830260
00934	800624	0.185796	-9.798278	-0.106171				-0.007055	-0.000674	-0.001194				-90.057043	-0.992477	-39.830066
00935	800674	0.168822	-9.785342	-0.112294				0.001768	0.000774	-0.002588				-90.054419	-0.992418	-39.830075
00936	800724	0.150746	-9.789012	-0.119802				-0.002715	0.000925	-0.000588				-90.055191	-0.992588	-39.830337
00937	800774	0.173569	-9.799927	-0.117271				-0.002990	0.004473	-0.002617				-90.053928	-0.992546	-39.831418
00938	800824	0.182645	-9.805252	-0.117827				-0.004788	0.000630	-0.000998				-90.055301	-0.992832	-39.831598
00939	800874	0.164868	-9.777929	-0.104357				-0.004805	-0.004419	-0.004295				-90.054580	-0.993266	-39.830115
00940	800924	0.188001	-9.781922	-0.103778				-0.006472	0.000146	-0.002702				-90.056428	-0.994041	-39.830158
00941	800974	0.186129	-9.805710	-0.084940				-0.003992	0.001106	0.002018				-90.055473	-0.992662	-39.830279
00942	801024	0.187025	-9.802434	-0.096891				-0.008783	0.001203	-0.003424				-90.057974	-0.993640	-39.830619
00943	801074	0.155205	-9.768946	-0.094562				-0.000089	-0.001426	-0.004226				-90.055901	-0.994050	-39.830034
00944	801124	0.185065	-9.785140	-0.097208				-0.001825	-0.001063	0.000332				-90.056437	-0.993956	-39.829734
00945	801174	0.166724	-9.795256	-0.102498				-0.007416	0.002652	-0.001235				-90.056448	-0.993510	-39.830373
00946	801224	0.183202	-9.806978	-0.097848				-0.001372	0.002152	0.000478				-90.056852	-0.993380	-39.830995
00947	801274	0.161687	-9.796204	-0.106699				-0.004662	-0.000402	-0.000390				-90.056065	-0.992690	-39.830708
00948	801324	0.170947	-9.794055	-0.099914				-0.008541	-0.000309	-0.001539				-90.058514	-0.993133	-39.830622
00949	801374	0.164374	-9.781432	-0.108392				-0.004937	0.001243	-0.000960				-90.057809	-0.992608	-39.830744
00950	801424	0.183632	-9.798772	-0.122072				-0.001328	-0.002178	0.003692				-90.058204	-0.991550	-39.830129
00951	801474	0.176560	-9.796488	-0.122005				-0.001162	-0.000565	0.000112				-90.056433	-0.990721	-39.829762
00952	801524	0.170745	-9.789740	-0.087616				-0.007129	0.002018	0.000846				-90.058479	-0.990479	-39.830344
00953	801574	0.168206	-9.791475	-0.099756				-0.002489	0.002002	0.000894				-90.057068	-0.989428	-39.830719
00954	801624	0.170345	-9.804724	-0.100235				-0.002720	0.002121	-0.000639				-90.057840	-0.989614	-39.831322
00955	801674	0.161084	-9.787068	-0.099005				-0.004465	-0.000495	-0.001582				-90.057039	-0.989266	-39.830996
00956	801724	0.177776	-9.790154	-0.101301				-0.004872	-0.000722	0.000890				-90.058438	-0.989013	-39.830784
00957	801774	0.172959	-9.788884	-0.094957				-0.004048	-0.000780	-0.002931				-90.057496	-0.989060	-39.830317
00958	801824	0.178394	-9.781901	-0.097463				-0.007267	-0.000061	-0.000383				-90.059571	-0.989169	-39.830296
00959	801874	0.180095	-9.795797	-0.102111				-0.001017	0.002661	-0.004175				-90.057763	-0.989571	-39.830829
00960	801924	0.181154	-9.810287	-0.100239				-0.001840	0.000487	-0.001360				-90.058294	-0.989962	-39.830973
00961	801974	0.170119	-9.776615	-0.124088				-0.007609	-0.001425	-0.001577				-90.058392	-0.989620	-39.830357
00962	802024	0.192680	-9.797543	-0.117389				-0.003832	0.000170	0.003138				-90.059476	-0.988722	-39.830394
00963	802074	0.173423	-9.781892	-0.101697				-0.002835	-0.002700	-0.002495				-90.058228	-0.988638	-39.829433
00964	802124	0.179984	-9.790402	-0.114170				-0.003646	-0.002999	0.001931				-90.059283	-0.988083	-39.828573
00965	802174	0.166883	-9.775512	-0.105529				-0.004342	-0.000363	-0.000487				-90.058424	-0.987429	-39.828217
00966	802224	0.185640	-9.806669	-0.100850				-0.004116	0.001647	-0.000898				-90.059588	-0.987688	-39.828682
00967	802274	0.169957	-9.792228	-0.096200				-0.005539	-0.002099	-0.000785				-90.059109	-0.987115	-39.827899
00968	802324	0.178568	-9.786385	-0.114047				-0.007293	0.000879	0.000355				-90.061184	-0.987011	-39.828146
00969	802374	0.176710	-9.797296	-0.100349				-0.006465	0.000858	-0.001408				-90.060938	-0.986618	-39.828157
00970	802424	0.171584	-9.794350	-0.110789				-0.005077	0.001457	-0.003751				-90.062384	-0.987692	-39.828572
00971	802474	0.182226	-9.804622	-0.098237				-0.006274	0.001962	-0.001242				-90.062084	-0.987256	-39.828906
00972	802524	0.169235	-9.805487	-0.098351				-0.003776	-0.000361	-0.004821				-90.063150	-0.988635	-39.828794
00973	802574	0.163766	-9.788439	-0.100716				-0.002858	0.004315	-0.003867				-90.061872	-0.988947	-39.829896
00974	802624	0.179777	-9.793445	-0.101597				-0.007003	0.000653	-0.001729				-90.063882	-0.989444	-39.830084
00975	802674	0.180149	-9.787476	-0.088300				-0.003050	-0.001895	-0.003618				-90.062660	-0.989683	-39.829348
00976	802724	0.166384	-9.784961	-0.108346				-0.001832	-0.001842	-0.001179				-90.063200	-0.990023	-39.828822
00977	802774	0.167476	-9.789987	-0.089365				-0.002041	-0.001260	-0.001977				-90.061700	-0.989790	-39.828241
00978	802824	0.165121	-9.781989	-0.102216				-0.004336	0.001315	-0.003140				-90.062939	-0.990686	-39.828622
00979	802874	0.174232	-9.790074	-0.093289				-0.003646	-0.001424	-0.004636				-90.061890	-0.991218	-39.827988
00980	802924	0.174692	-9.802143	-0.110779				-0.003500	-0.000669	-0.000050				-90.062897	-0.991235	-39.827795
00981	802974	0.177008	-9.791870	-0.113646				-0.000525	0.002316	-0.003565				-90.060936	-0.991457	-39.828220
00982	803024	0.173742	-9.781456	-0.114665				-0.002169	-0.000361	-0.003066				-90.061569	-0.992337	-39.828124
00983	803074	0.174882	-9.799286	-0.111618				-0.005581	0.004463	-0.001264				-90.061039	-0.991901	-39.829135
00984	803124	0.169518	-9.789751	-0.103146				-0.005067	0.001008	-0.003337				-90.062493	-0.992858	-39.829426
00985	803174	0.170701	-9.795979	-0.098031				-0.001846	0.001746	-0.002316				-90.060904	-0.992720	-39.829732
00986	803224	0.159421	-9.782238	-0.106542				-0.007611	-0.000324	-0.001410				-90.063082	-0.993125	-39.829636
00987	803274	0.173937	-9.787705	-0.108835				-0.002547	-0.000269	-0.000786				-90.061729	-0.992552	-39.829330
00988	803324	0.161780	-9.788547	-0.095179				-0.004242	0.003712	-0.001208				-90.062935	-0.992903	-39.830401
00989	803374	0.179535	-9.792796	-0.097874				-0.002141	-0.000232	-0.002486				-90.061457	-0.992813	-39.830175
00990	803424	0.159542	-9.779474	-0.100602				-0.002699	-0.000656	-0.000811				-90.062230	-0.993042	-39.829984
00991	803474	0.152745	-9.786449	-0.099893				-0.002061	0.002551	-0.000639				-90.060712	-0.992427	-39.830495
00992	803524	0.159785	-9.778688	-0.090115				-0.001076	-0.001604	-0.003489				-90.061024	-0.993426	-39.830037
00993	803574	0.176247	-9.786688	-0.111812				-0.004256	0.000831	-0.002247				-90.060154	-0.993275	-39.830076
00994	803624	0.171689	-9.796586	-0.104042				-0.001258	-0.000697	-0.001462				-90.060515	-0.993693	-39.829871
00995	803674	0.169322	-9.796708	-0.098356				-0.004682	0.000048	-0.001963				-90.059749	-0.993454	-39.829657
00996	803724	0.165969	-9.796997	-0.097385				-0.004690	-0.000725	-0.001389				-90.061102	-0.993853	-39.829452
00997	803774	0.173975	-9.791062	-0.091404				-0.004043	-0.000878	-0.003223				-90.060168	-0.993982	-39.828988
00998	803824	0.175321	-9.795481	-0.111573				-0.004312	-0.001530	-0.002100				-90.061399	-0.994581	-39.828545
00999	803874	0.174641	-9.785645	-0.088080				-0.004251	-0.000300	-0.001867				-90.060550	-0.994315	-39.828267
01000	803924	0.161210	-9.791078	-0.100709				-0.004668	-0.000506	-0.003759				-90.061895	-0.995393	-39.828117
01001	803974	0.187077	-9.802015	-0.109185				-0.003205	0.000171	-0.001776				-90.060711	-0.995099	-39.827993
01002	804024	0.169216	-9.782926	-0.115413				-0.005066	-0.003965	-0.001566				-90.062174	-0.995547	-39.826848
01003	804074	0.162815	-9.792178	-0.104997				-0.003617	-0.001027	0.000275				-90.061142	-0.994676	-39.826356
01004	804124	0.176501	-9.795541	-0.106732				-0.002165	0.002777	-0.001184				-90.061748	-0.995014	-39.827148
01005	804174	0.172949	-9.782946	-0.095497				-0.004887	0.002796	-0.000118				-90.061042	-0.994249	-39.827750
01006	804224	0.184807	-9.781697	-0.089950				-0.002673	-0.002766	-0.003298				-90.061826	-0.995193	-39.826954
01007	804274	0.173157	-9.797050	-0.103928				-0.004755	-0.001565	-0.001330				-90.061102	-0.994777	-39.826305
01008	804324	0.186309	-9.792479	-0.112847				-0.005244	0.002653	-0.003714				-90.062588	-0.995838	-39.827068
01009	804374	0.164969	-9.788319	-0.107860				-0.003494	0.003272	-0.000827				-90.061498	-0.995284	-39.827779
01010	804424	0.180120	-9.780150	-0.101678				-0.000452	-0.000914	-0.002522				-90.061643	-0.996005	-39.827528
01011	804474	0.166514	-9.777579	-0.110505				-0.001547	0.002433	-0.001733				-90.059972	-0.995706	-39.828020
01012	804524	0.172610	-9.785132	-0.076754				-0.003906	0.002293	-0.000669				-90.061081	-0.995900	-39.828678
01013	804574	0.183405	-9.801270	-0.098688				-0.004861	0.001594	-0.002564				-90.060376	-0.995834	-39.828902
01014	804624	0.168697	-9.789466	-0.106542				-0.004671	0.000251	0.003266				-90.061709	-0.994896	-39.828977
01015	804674	0.148708	-9.780634	-0.111443				-0.006382	0.003216	-0.003444				-90.061449	-0.995090	-39.829689
01016	804724	0.167644	-9.814414	-0.105312				-0.006025	-0.003881	0.000455				-90.063188	-0.994958	-39.828575
01017	804774	0.174837	-9.817030	-0.129881				-0.007232	-0.000581	-0.003725				-90.063177	-0.995221	-39.828177
01018	804824	0.167344	-9.789086	-0.101927				-0.004244	-0.002495	-0.001178				-90.064411	-0.995559	-39.827462
01019	804874	0.165357	-9.798739	-0.092774				-0.003540	0.003427	-0.005313				-90.063311	-0.996281	-39.828219
01020	804924	0.161891	-9.807718	-0.113429				-0.006073	-0.000329	-0.000580				-90.065046	-0.996443	-39.828124
01021	804974	0.161068	-9.786383	-0.097256				-0.002845	0.002022	-0.001094				-90.063777	-0.995962	-39.828498
01022	805024	0.173158	-9.796607	-0.101415				-0.001549	0.001232	-0.002800				-90.064229	-0.996767	-39.828860
01023	805074	0.194522	-9.806951	-0.106166				-0.005331	0.002395	-0.003777				-90.063648	-0.997049	-39.829338
01024	805124	0.178607	-9.796737	-0.104344				-0.002072	-0.000196	-0.000366				-90.064244	-0.997153	-39.829284
01025	805174	0.174095	-9.797043	-0.103363				-0.002338	-0.000003	-0.000878				-90.062831	-0.996612	-39.829074
01026	805224	0.177899	-9.801612	-0.096018				-0.006673	-0.001629	-0.000521				-90.064750	-0.996760	-39.828608
01027	805274	0.168580	-9.792910	-0.098782				-0.001575	-0.001641	-0.000635				-90.063116	-0.996134	-39.827975
01028	805324	0.171630	-9.791448	-0.099491				-0.000759	-0.001402	-0.001791				-90.063351	-0.996648	-39.827576
01029	805374	0.179892	-9.802854	-0.090915				-0.002746	-0.001213	-0.002615				-90.062048	-0.996601	-39.827018
01030	805424	0.165433	-9.789665	-0.111923				-0.002120	0.000486	0.000727				-90.062656	-0.996393	-39.827162
01031	805474	0.186895	-9.816216	-0.096062				-0.005929	0.001224	-0.000378				-90.062272	-0.995706	-39.827307
01032	805524	0.169647	-9.800815	-0.108489				-0.006918	0.001145	-0.000539				-90.064253	-0.995861	-39.827641
01033	805574	0.185847	-9.793860	-0.115762				-0.007827	-0.000882	-0.003052				-90.064427	-0.995938	-39.827176
01034	805624	0.161141	-9.782047	-0.117412				-0.002609	-0.002730	-0.002692				-90.065188	-0.996710	-39.826396
01035	805674	0.168157	-9.784697	-0.123902				-0.001094	0.005408	-0.001527				-90.063388	-0.996344	-39.827723
01036	805724	0.174587	-9.805330	-0.088431				0.000221	0.000302	-0.000402				-90.063325	-0.996458	-39.827812
01037	805774	0.182866	-9.801514	-0.113990				-0.004312	-0.000527	-0.002772				-90.062465	-0.996453	-39.827453
01038	805824	0.158104	-9.775181	-0.103137				-0.004978	-0.000440	-0.001032				-90.063887	-0.996749	-39.827318
01039	805874	0.168379	-9.790306	-0.098779				-0.003312	0.003202	-0.005189				-90.062754	-0.997443	-39.828038
01040	805924	0.155027	-9.792133	-0.098692				-0.002612	-0.001766	-0.005505				-90.063516	-0.999019	-39.827531
01041	805974	0.189915	-9.793120	-0.098871				-0.003247	0.000530	-0.000718				-90.062361	-0.998421	-39.827486
01042	806024	0.166346	-9.801700	-0.115588				-0.004280	-0.002402	-0.000758				-90.063601	-0.998633	-39.826807
01043	806074	0.178434	-9.788856	-0.107797				-0.006450	0.002739	0.001391				-90.063356	-0.997442	-39.827356
01044	806124	0.180028	-9.786658	-0.095047				-0.004753	0.002672	0.001036				-90.064707	-0.997147	-39.828126
01045	806174	0.175547	-9.782011	-0.092852				-0.003874	-0.002200	-0.002076				-90.063739	-0.996942	-39.827289
01046	806224	0.172417	-9.794884	-0.106315				-0.004961	0.001919	-0.002979				-90.065155	-0.997794	-39.827846
01047	806274	0.193476	-9.806629	-0.096719				-0.002296	-0.001299	-0.000599				-90.063731	-0.997164	-39.827254
01048	806324	0.169626	-9.784938	-0.107223				-0.004505	-0.000171	0.000121				-90.065020	-0.997131	-39.827205
01049	806374	0.194927	-9.791951	-0.093673				-0.004759	0.000634	-0.000103				-90.064322	-0.996368	-39.827172
01050	806424	0.190067	-9.799298	-0.098265				-0.006916	-0.000285	-0.002247				-90.066304	-0.997012	-39.827091
01051	806474	0.196035	-9.812912	-0.118563				-0.003633	-0.000775	-0.001972				-90.065255	-0.996777	-39.826643
01052	806524	0.174718	-9.818696	-0.098447				-0.006831	0.000665	0.002377				-90.067216	-0.996096	-39.826840
01053	806574	0.156070	-9.792652	-0.110731				-0.003380	0.002427	-0.004454				-90.066088	-0.996573	-39.827283
01054	806624	0.176790	-9.797298	-0.115662				-0.003203	0.001013	-0.001513				-90.066999	-0.997005	-39.827572
01055	806674	0.173149	-9.794073	-0.111651				0.000403	-0.003510	0.000735				-90.064821	-0.995992	-39.826334
01056	806724	0.172622	-9.805142	-0.118023				-0.004461	0.003448	-0.001848				-90.066082	-0.996523	-39.827319
01057	806774	0.154613	-9.774649	-0.110036				-0.005587	-0.000650	-0.002412				-90.065597	-0.996415	-39.826937
01058	806824	0.183073	-9.791094	-0.097444				-0.003327	0.001715	-0.005229				-90.066540	-0.997915	-39.827427
01059	806874	0.172893	-9.796163	-0.114838				-0.002745	-0.001138	0.000848				-90.065280	-0.996873	-39.826929
01060	806924	0.173586	-9.791910	-0.098323				-0.001850	-0.000359	-0.003225				-90.065816	-0.997798	-39.826826
01061	806974	0.165320	-9.794323	-0.117979				-0.003704	-0.002452	-0.001530				-90.064789	-0.997430	-39.825892
01062	807024	0.186948	-9.814009	-0.100818				-0.003737	0.002616	-0.002915				-90.065851	-0.998266	-39.826642
01063	807074	0.170906	-9.814149	-0.104264				-0.001893	0.000330	-0.000110				-90.064322	-0.997501	-39.826535
01064	807124	0.175671	-9.809866	-0.100944				-0.001065	0.001437	-0.002255				-90.064617	-0.998149	-39.826944
01065	807174	0.169883	-9.803041	-0.102585				-0.000981	0.002666	-0.002059				-90.062822	-0.997941	-39.827498
01066	807224	0.174576	-9.798287	-0.099337				-0.005923	0.003033	-0.001880				-90.064511	-0.998484	-39.828369
01067	807274	0.178570	-9.789104	-0.107291				-0.005788	-0.000424	-0.002120				-90.064083	-0.998287	-39.828085
01068	807324	0.176742	-9.812502	-0.114383				-0.002295	-0.000422	-0.001171				-90.064740	-0.998623	-39.827966
01069	807374	0.174604	-9.785436	-0.086321				-0.001551	0.001556	-0.001963				-90.063116	-0.998391	-39.828192
01070	807424	0.157337	-9.786376	-0.100918				-0.003357	-0.001449	-0.003930				-90.064091	-0.999518	-39.827779
01071	807474	0.159380	-9.780886	-0.101847				-0.003446	-0.004652	-0.002215				-90.063013	-0.999350	-39.826233
01072	807524	0.169934	-9.792550	-0.105742				-0.002320	0.002645	-0.001217				-90.063659	-0.999697	-39.826994
01073	807574	0.181468	-9.800239	-0.105286				-0.002630	0.001381	0.001179				-90.062351	-0.998566	-39.827150
01074	807624	0.174586	-9.781748	-0.094995				-0.003768	-0.001426	-0.002775				-90.063445	-0.999365	-39.826738
01075	807674	0.182758	-9.787655	-0.105563				-0.003218	0.001761	0.001024				-90.062266	-0.998268	-39.826983
01076	807724	0.176608	-9.794112	-0.091563				-0.002922	0.001471	-0.000677				-90.063102	-0.998464	-39.827406
01077	807774	0.182867	-9.802227	-0.098699				-0.006546	0.000735	0.002211				-90.062910	-0.997035	-39.827415
01078	807824	0.172877	-9.795700	-0.099078				-0.004336	0.002347	-0.002208				-90.064138	-0.997667	-39.828086
01079	807874	0.175412	-9.798275	-0.099400				-0.007632	-0.002179	-0.006265				-90.064245	-0.998660	-39.827239
01080	807924	0.156094	-9.788280	-0.101534				-0.000954	-0.001243	-0.001785				-90.064535	-0.999173	-39.826888
01081	807974	0.166267	-9.793411	-0.099055				-0.003021	-0.001024	-0.003993				-90.063335	-0.999519	-39.826411
01082	808024	0.174132	-9.799636	-0.104356				-0.004241	0.000609	-0.001290				-90.064548	-0.999887	-39.826585
01083	808074	0.178663	-9.804586	-0.102717				-0.005229	0.001402	0.000385				-90.063952	-0.998982	-39.826797
01084	808124	0.169961	-9.811785	-0.104019				-0.001754	0.003148	0.001123				-90.064442	-0.998662	-39.827702
01085	808174	0.162872	-9.796444	-0.105086				-0.005505	-0.000123	-0.000356				-90.063957	-0.997966	-39.827440
01086	808224	0.174492	-9.786787	-0.106814				-0.006054	-0.000978	-0.001578				-90.065704	-0.998421	-39.827162
01087	808274	0.195812	-9.828913	-0.095574				-0.002234	-0.001065	0.001295				-90.064270	-0.997245	-39.826652
01088	808324	0.169309	-9.791379	-0.105475				-0.003104	-0.003091	-0.000218				-90.065178	-0.997306	-39.825770
01089	808374	0.192567	-9.798790	-0.113701				-0.000805	0.004154	-0.003525				-90.063307	-0.997519	-39.826685
01090	808424	0.178669	-9.806881	-0.092229				-0.005712	0.001487	-0.000670				-90.064931	-0.997712	-39.827105
01091	808474	0.166641	-9.785208	-0.107837				-0.001605	0.001034	-0.004213				-90.063316	-0.998116	-39.827223
01092	808524	0.180005	-9.794769	-0.107769				-0.004826	-0.000111	0.000058				-90.064695	-0.998098	-39.827193
01093	808574	0.169868	-9.804132	-0.093270				-0.003014	-0.000890	-0.001270				-90.063501	-0.997663	-39.826708
