// General information: 
//  MT Manager version: 2022.0.0 
//  XDA version: 2022.0.0 build 7085 rev 119802 built on 2022-11-08
// Device information: 
//  DeviceId: 037004D1
//  ProductCode: MTi-300-2A5G4
//  Firmware Version: 1.4.1
//  Hardware Version: 2.1.0
// Device settings: 
//  Filter Profile: general(39.16)
//  Option Flags: Orientation Smoother Disabled, Position/Velocity Smoother Disabled, Continuous Zero Rotation Update Disabled, AHS Disabled, ICC Disabled
// Coordinate system: ENU
PacketCounter	SampleTimeFine	Acc_X	Acc_Y	Acc_Z	AccHR_X	AccHR_Y	AccHR_Z	Gyr_X	Gyr_Y	Gyr_Z	GyrHR_X	GyrHR_Y	GyrHR_Z	Roll	Pitch	Yaw
00001	2636024	-9.791550	-0.143731	-0.260742				-0.006444	-0.001621	0.002299				-150.548584	88.367481	-102.286522
00002	2636074	-9.811856	-0.135630	-0.266913				-0.003713	0.000943	-0.001700				-150.556927	88.367931	-102.295681
00003	2636124	-9.815307	-0.149319	-0.260435				-0.004685	0.001316	-0.002144				-150.546072	88.367510	-102.283381
00004	2636174	-9.827412	-0.137486	-0.251245				-0.004947	-0.000367	-0.000869				-150.556328	88.367973	-102.294291
00005	2636224	-9.820042	-0.134070	-0.255694				0.001013	0.002379	-0.004849				-150.525430	88.366842	-102.263603
00006	2636274	-9.808861	-0.130782	-0.261001				0.000089	0.002170	-0.004815				-150.512063	88.365655	-102.252568
00007	2636324	-9.798385	-0.147750	-0.263910				-0.001623	0.001619	-0.003402				-150.490684	88.364696	-102.230753
00008	2636374	-9.814091	-0.152878	-0.255269				-0.004274	0.003618	-0.001045				-150.518340	88.364610	-102.259089
00009	2636424	-9.800224	-0.137962	-0.256798				-0.002693	0.003421	0.000393				-150.539301	88.363877	-102.279260
00010	2636474	-9.807546	-0.132138	-0.278482				-0.005849	0.001453	-0.003199				-150.538650	88.363236	-102.279170
00011	2636524	-9.803026	-0.133030	-0.275663				-0.001173	0.001701	-0.001704				-150.532428	88.362440	-102.272674
00012	2636574	-9.817633	-0.130739	-0.267628				-0.001416	0.001273	-0.001544				-150.543739	88.362768	-102.285479
00013	2636624	-9.821291	-0.125821	-0.262832				-0.002207	0.002271	-0.000028				-150.555274	88.362236	-102.296371
00014	2636674	-9.814410	-0.137951	-0.272253				-0.002924	0.003678	0.000914				-150.599813	88.362074	-102.342124
00015	2636724	-9.826851	-0.139688	-0.259232				-0.001206	0.002021	-0.000195				-150.608326	88.361600	-102.350265
00016	2636774	-9.837039	-0.126898	-0.255677				-0.002923	-0.001790	-0.002194				-150.598780	88.362351	-102.341912
00017	2636824	-9.821018	-0.128743	-0.262292				-0.005575	-0.000337	0.004911				-150.641648	88.363295	-102.383115
00018	2636874	-9.793184	-0.139546	-0.274670				-0.005443	-0.000988	0.000793				-150.663189	88.364083	-102.405251
00019	2636924	-9.785219	-0.134194	-0.264641				-0.006389	-0.000720	-0.002506				-150.639856	88.363910	-102.380081
00020	2636974	-9.809411	-0.139674	-0.269582				0.000460	0.000526	-0.003611				-150.628245	88.363529	-102.370833
00021	2637024	-9.819451	-0.150446	-0.279810				-0.000446	0.000194	0.000084				-150.629847	88.363405	-102.372356
00022	2637074	-9.831276	-0.139728	-0.275478				-0.005571	0.000206	0.001065				-150.659911	88.364086	-102.402880
00023	2637124	-9.819187	-0.142382	-0.261342				-0.003719	0.000304	0.000256				-150.665025	88.363762	-102.407064
00024	2637174	-9.795385	-0.145449	-0.252352				-0.003427	-0.001189	-0.003065				-150.651103	88.364644	-102.393986
00025	2637224	-9.811941	-0.149899	-0.263552				-0.004146	0.000419	-0.001187				-150.643990	88.364475	-102.385632
00026	2637274	-9.789467	-0.156308	-0.264159				-0.002009	0.000848	-0.001164				-150.656279	88.365468	-102.399027
00027	2637324	-9.826196	-0.147406	-0.273065				-0.001785	-0.000351	-0.003571				-150.623929	88.364936	-102.366211
00028	2637374	-9.811185	-0.135978	-0.259714				-0.004052	-0.000418	-0.001097				-150.631065	88.365059	-102.374420
00029	2637424	-9.809153	-0.121275	-0.271020				-0.003973	0.001004	-0.001858				-150.620745	88.364663	-102.362909
00030	2637474	-9.818846	-0.128338	-0.267662				-0.001377	0.001115	-0.002442				-150.623545	88.364808	-102.367281
00031	2637524	-9.816904	-0.147122	-0.274606				-0.002511	0.002849	0.001099				-150.647881	88.364343	-102.390862
00032	2637574	-9.810349	-0.133447	-0.284422				-0.003894	-0.001420	-0.000527				-150.655515	88.365135	-102.399461
00033	2637624	-9.811712	-0.144087	-0.274597				-0.000476	0.000933	-0.001776				-150.644605	88.364652	-102.388415
00034	2637674	-9.805101	-0.140515	-0.272227				-0.002257	-0.000649	-0.003023				-150.633349	88.365026	-102.378524
00035	2637724	-9.820367	-0.129848	-0.249651				-0.002909	0.000925	-0.002342				-150.618083	88.364523	-102.362395
00036	2637774	-9.792868	-0.135844	-0.256061				-0.001013	0.001702	-0.001739				-150.629794	88.364358	-102.375918
00037	2637824	-9.804528	-0.127133	-0.274452				-0.006508	0.002287	-0.001781				-150.627361	88.363708	-102.371540
00038	2637874	-9.812837	-0.127042	-0.241571				-0.005331	0.002564	-0.001589				-150.645718	88.362940	-102.390655
00039	2637924	-9.827497	-0.127678	-0.257003				-0.002191	-0.000322	-0.000560				-150.639778	88.363074	-102.384030
00040	2637974	-9.819215	-0.136863	-0.267874				-0.003329	0.001018	0.000064				-150.664040	88.363588	-102.409330
00041	2638024	-9.805284	-0.164918	-0.270263				-0.005547	0.000267	-0.000865				-150.659585	88.363125	-102.403416
00042	2638074	-9.808567	-0.134544	-0.262401				-0.005771	0.002261	-0.002975				-150.664333	88.362856	-102.408486
00043	2638124	-9.816044	-0.133113	-0.250385				-0.003804	0.001878	-0.001949				-150.657665	88.361878	-102.400840
00044	2638174	-9.808277	-0.150754	-0.276801				-0.006717	0.002129	0.001748				-150.703272	88.362406	-102.446489
00045	2638224	-9.806677	-0.153964	-0.258526				0.000101	-0.000084	-0.001391				-150.690875	88.362160	-102.434146
00046	2638274	-9.815262	-0.141028	-0.244634				-0.000404	0.000548	-0.002576				-150.689175	88.362366	-102.434356
00047	2638324	-9.802379	-0.142285	-0.285427				-0.005843	0.001621	-0.001017				-150.690260	88.361831	-102.433761
00048	2638374	-9.804760	-0.147792	-0.272744				-0.002625	0.001092	-0.000964				-150.705392	88.361917	-102.450234
00049	2638424	-9.813523	-0.119125	-0.262339				-0.001199	-0.000370	-0.001138				-150.693831	88.362004	-102.438247
00050	2638474	-9.816102	-0.141207	-0.261824				-0.004701	0.000026	0.000097				-150.713820	88.362311	-102.459071
00051	2638524	-9.828140	-0.129144	-0.265230				-0.001325	0.003770	0.001487				-150.745416	88.361742	-102.490223
00052	2638574	-9.803930	-0.144124	-0.259831				-0.003798	0.002890	0.000525				-150.783527	88.361846	-102.529235
00053	2638624	-9.806082	-0.138817	-0.269812				-0.004899	-0.002053	-0.001296				-150.763550	88.362136	-102.507862
00054	2638674	-9.816516	-0.126266	-0.265241				-0.005460	0.001463	-0.002493				-150.768471	88.361978	-102.513270
00055	2638724	-9.818251	-0.119867	-0.265257				-0.001440	0.002119	-0.000832				-150.772031	88.361387	-102.516394
00056	2638774	-9.804546	-0.136219	-0.253541				-0.004087	-0.000256	-0.000810				-150.782982	88.361837	-102.528250
00057	2638824	-9.792428	-0.137931	-0.285242				-0.007749	0.000066	-0.000347				-150.782378	88.361940	-102.525342
00058	2638874	-9.798234	-0.139256	-0.268230				-0.005387	0.002371	-0.001176				-150.802948	88.361183	-102.546717
00059	2638924	-9.805587	-0.136589	-0.278384				-0.003482	-0.001251	-0.001295				-150.786482	88.361506	-102.529162
00060	2638974	-9.831549	-0.123516	-0.263273				-0.004214	0.002009	0.001196				-150.825842	88.361905	-102.569373
00061	2639024	-9.825784	-0.140642	-0.276718				-0.007636	0.002459	-0.001489				-150.827140	88.361114	-102.568469
00062	2639074	-9.807245	-0.144206	-0.264268				-0.001477	-0.000056	-0.004054				-150.810091	88.361095	-102.553049
00063	2639124	-9.801770	-0.141676	-0.269601				-0.003117	0.000142	-0.003372				-150.782226	88.360626	-102.524259
00064	2639174	-9.796109	-0.146565	-0.249532				-0.006606	0.001509	0.000331				-150.812256	88.360915	-102.554433
00065	2639224	-9.803575	-0.130287	-0.269278				-0.002394	-0.001069	-0.000495				-150.803211	88.361205	-102.544659
00066	2639274	-9.812024	-0.140559	-0.268555				-0.000999	0.000571	0.000216				-150.826326	88.361676	-102.569586
00067	2639324	-9.804842	-0.126356	-0.263797				-0.003252	-0.001542	-0.002487				-150.798062	88.361449	-102.540499
00068	2639374	-9.795255	-0.132635	-0.262697				-0.002537	0.000255	-0.000137				-150.816844	88.362310	-102.560458
00069	2639424	-9.804990	-0.130381	-0.270515				-0.004555	-0.000387	0.003682				-150.848238	88.362919	-102.590558
00070	2639474	-9.796726	-0.151753	-0.255480				-0.004879	-0.000564	-0.000747				-150.858378	88.363857	-102.601195
00071	2639524	-9.788986	-0.137957	-0.263999				-0.004289	0.005334	0.001563				-150.899115	88.362737	-102.640718
00072	2639574	-9.798800	-0.156498	-0.257873				-0.004735	-0.000241	-0.003728				-150.885126	88.362806	-102.627450
00073	2639624	-9.820060	-0.130889	-0.259163				-0.005123	-0.000858	0.000669				-150.888382	88.362783	-102.629402
00074	2639674	-9.803461	-0.145161	-0.258594				-0.003736	0.001816	-0.001283				-150.905029	88.363057	-102.646880
00075	2639724	-9.786065	-0.145178	-0.259200				-0.003020	0.002284	-0.001404				-150.904927	88.362331	-102.645892
00076	2639774	-9.804420	-0.126641	-0.255753				-0.004044	0.002489	-0.000183				-150.934215	88.362376	-102.675969
00077	2639824	-9.821321	-0.130761	-0.247683				-0.004499	0.000806	0.001896				-150.956049	88.362624	-102.696434
00078	2639874	-9.822245	-0.125161	-0.263952				-0.003003	-0.001997	-0.000884				-150.957817	88.362512	-102.699882
00079	2639924	-9.792207	-0.165078	-0.266598				-0.000945	0.001832	-0.001803				-150.951036	88.361861	-102.692797
00080	2639974	-9.792272	-0.140719	-0.265607				-0.001901	0.000356	-0.004507				-150.932100	88.361907	-102.675275
00081	2640024	-9.815348	-0.128440	-0.256138				-0.003424	0.000207	-0.000586				-150.928801	88.361737	-102.671009
00082	2640074	-9.803900	-0.138963	-0.276204				-0.003167	-0.003123	-0.001469				-150.920006	88.362820	-102.663430
00083	2640124	-9.810235	-0.145620	-0.278227				-0.004625	0.000668	0.000412				-150.928252	88.362691	-102.670364
00084	2640174	-9.812223	-0.129119	-0.259250				-0.003755	-0.000283	0.000346				-150.948691	88.363373	-102.691777
00085	2640224	-9.804184	-0.152070	-0.242295				-0.003310	0.001563	-0.001926				-150.940372	88.362763	-102.682484
00086	2640274	-9.792282	-0.144793	-0.256256				-0.008705	0.001053	0.001037				-150.975445	88.363250	-102.717134
00087	2640324	-9.812016	-0.147971	-0.254915				-0.006896	0.000235	-0.003750				-150.945659	88.362649	-102.685371
00088	2640374	-9.817843	-0.148672	-0.275213				-0.004359	-0.002012	-0.002710				-150.931479	88.363358	-102.671990
00089	2640424	-9.812964	-0.146862	-0.257553				-0.002099	0.000043	0.001435				-150.944935	88.363392	-102.684922
00090	2640474	-9.795262	-0.162643	-0.237951				-0.003572	-0.001317	0.000083				-150.958487	88.364491	-102.699428
00091	2640524	-9.804673	-0.148444	-0.247969				-0.004703	-0.002182	-0.002968				-150.923511	88.364611	-102.663095
00092	2640574	-9.819036	-0.142601	-0.247505				-0.004280	0.002200	0.001708				-150.967709	88.365064	-102.708082
00093	2640624	-9.829898	-0.128991	-0.249292				-0.002079	-0.001611	0.000302				-150.963075	88.365539	-102.702841
00094	2640674	-9.791003	-0.135457	-0.250498				-0.004955	0.000685	-0.005715				-150.936389	88.365153	-102.676739
00095	2640724	-9.810684	-0.133447	-0.267890				-0.004175	0.001742	-0.000767				-150.939469	88.364692	-102.678583
00096	2640774	-9.823822	-0.136712	-0.255317				-0.005659	-0.001229	-0.003281				-150.924276	88.364838	-102.663995
00097	2640824	-9.821907	-0.135402	-0.259495				-0.005694	0.002202	0.000045				-150.936849	88.364222	-102.674974
00098	2640874	-9.819107	-0.136991	-0.247232				-0.006352	0.001638	-0.001370				-150.952488	88.364725	-102.690602
00099	2640924	-9.807740	-0.139582	-0.270522				-0.006231	0.000731	-0.002948				-150.932156	88.364372	-102.668359
00100	2640974	-9.801546	-0.131062	-0.249600				-0.005468	-0.003455	-0.002684				-150.911313	88.365438	-102.647980
00101	2641024	-9.800664	-0.119988	-0.260313				-0.003975	0.001355	-0.002249				-150.899332	88.364851	-102.634824
00102	2641074	-9.803797	-0.134908	-0.263711				-0.004095	0.004233	-0.002390				-150.918529	88.363713	-102.655066
00103	2641124	-9.815256	-0.136550	-0.254123				-0.004172	-0.001453	0.000213				-150.914483	88.363982	-102.649882
00104	2641174	-9.808706	-0.127629	-0.253796				-0.004514	0.000448	0.001535				-150.949642	88.364615	-102.685825
00105	2641224	-9.821018	-0.153333	-0.251292				-0.001545	0.001429	-0.003183				-150.929054	88.363576	-102.664900
00106	2641274	-9.834986	-0.120028	-0.254658				-0.000600	0.002163	-0.001252				-150.946626	88.363704	-102.684233
00107	2641324	-9.826487	-0.150709	-0.257286				-0.004952	0.000855	-0.002531				-150.929806	88.363278	-102.665926
00108	2641374	-9.773798	-0.155739	-0.258221				-0.003668	0.000682	-0.001869				-150.935997	88.363021	-102.673292
00109	2641424	-9.819155	-0.143613	-0.264843				-0.005255	0.005438	-0.002059				-150.945709	88.361664	-102.681357
00110	2641474	-9.805492	-0.136885	-0.254700				0.002517	-0.000173	0.000037				-150.962542	88.363025	-102.700624
00111	2641524	-9.805391	-0.136941	-0.269817				-0.006134	0.000672	-0.001730				-150.952310	88.362625	-102.688629
00112	2641574	-9.829313	-0.147732	-0.268520				-0.001197	0.000601	-0.001106				-150.964111	88.362449	-102.702352
00113	2641624	-9.779110	-0.159507	-0.277674				0.000357	0.002110	-0.002322				-150.954174	88.361480	-102.692564
00114	2641674	-9.783423	-0.147039	-0.258691				-0.002426	0.000931	-0.001963				-150.960063	88.361916	-102.699640
00115	2641724	-9.803352	-0.132097	-0.263434				-0.004455	0.003452	-0.001782				-150.962550	88.360635	-102.700935
00116	2641774	-9.797550	-0.155650	-0.267652				-0.002243	-0.000812	-0.002103				-150.958874	88.361175	-102.698630
00117	2641824	-9.823389	-0.142520	-0.275754				-0.004993	0.001210	-0.001794				-150.950352	88.360500	-102.688730
00118	2641874	-9.803380	-0.135025	-0.253275				-0.005768	-0.001907	-0.002708				-150.937566	88.360706	-102.676599
00119	2641924	-9.793158	-0.150657	-0.256253				-0.006030	0.001845	0.000746				-150.954943	88.360087	-102.692384
00120	2641974	-9.827755	-0.136008	-0.275299				-0.003876	0.002098	-0.004163				-150.947777	88.359958	-102.685954
00121	2642024	-9.805575	-0.142625	-0.267013				-0.003804	0.002304	0.000774				-150.966989	88.359590	-102.704034
00122	2642074	-9.791172	-0.123558	-0.247550				-0.003492	-0.000574	-0.000748				-150.976121	88.360342	-102.714141
00123	2642124	-9.796053	-0.135194	-0.283069				-0.004299	0.002221	-0.004069				-150.952583	88.358881	-102.689527
00124	2642174	-9.814653	-0.145604	-0.256595				-0.006524	0.000628	-0.004682				-150.934235	88.358765	-102.671305
00125	2642224	-9.799288	-0.145316	-0.277523				-0.002363	0.000869	-0.001610				-150.925210	88.358135	-102.661689
00126	2642274	-9.807561	-0.133118	-0.272728				-0.004114	0.000744	-0.000580				-150.942623	88.358981	-102.679716
00127	2642324	-9.801823	-0.148913	-0.245435				-0.003769	0.002978	-0.001726				-150.943227	88.357826	-102.679319
00128	2642374	-9.803842	-0.132985	-0.259825				-0.000794	0.003291	-0.000735				-150.970844	88.357856	-102.708572
00129	2642424	-9.812851	-0.145726	-0.277953				-0.001767	0.002499	-0.001893				-150.966980	88.356850	-102.704259
00130	2642474	-9.812307	-0.136476	-0.268606				-0.004756	0.002193	0.001869				-151.013319	88.357138	-102.751284
00131	2642524	-9.811888	-0.151727	-0.268901				-0.004645	0.002383	-0.000438				-151.022234	88.356772	-102.758732
00132	2642574	-9.805913	-0.143932	-0.248958				-0.005337	0.000782	-0.002535				-151.023631	88.356233	-102.760928
00133	2642624	-9.791824	-0.124659	-0.254315				-0.002951	-0.000500	-0.000651				-151.016207	88.356202	-102.752690
00134	2642674	-9.802040	-0.153419	-0.240369				-0.006153	0.000384	-0.001570				-151.024061	88.356571	-102.760783
00135	2642724	-9.832173	-0.144061	-0.276355				-0.003956	-0.001390	-0.002225				-150.998727	88.356593	-102.734315
00136	2642774	-9.818203	-0.130484	-0.252464				-0.002944	-0.001887	-0.001366				-150.996525	88.357983	-102.733063
00137	2642824	-9.808462	-0.121152	-0.267666				-0.002101	0.002944	-0.001825				-150.995555	88.357124	-102.731427
00138	2642874	-9.809683	-0.144090	-0.254504				-0.003363	0.002407	-0.001313				-151.014763	88.356438	-102.751981
00139	2642924	-9.803362	-0.146335	-0.270955				-0.005608	-0.000546	0.000604				-151.019092	88.356814	-102.754632
00140	2642974	-9.810760	-0.135360	-0.253747				-0.004203	0.001480	-0.002404				-151.023944	88.357058	-102.760124
00141	2643024	-9.817185	-0.131281	-0.261294				-0.001582	-0.001342	-0.000949				-151.009645	88.357192	-102.745398
00142	2643074	-9.788059	-0.154754	-0.264891				-0.004405	0.003201	0.002994				-151.071039	88.356530	-102.808000
00143	2643124	-9.825130	-0.128458	-0.253431				-0.006277	0.000285	-0.001281				-151.063305	88.356180	-102.798509
00144	2643174	-9.794480	-0.142261	-0.252144				-0.001130	0.000571	0.000338				-151.086710	88.357265	-102.823362
00145	2643224	-9.801640	-0.154152	-0.265050				-0.005659	0.000110	0.002340				-151.109352	88.357665	-102.844342
00146	2643274	-9.804598	-0.145592	-0.263858				-0.003688	-0.000478	0.000566				-151.131005	88.358267	-102.867067
00147	2643324	-9.805745	-0.112421	-0.262166				-0.005425	0.000587	-0.001761				-151.120026	88.357908	-102.854511
00148	2643374	-9.807885	-0.129592	-0.266277				-0.002271	0.002462	0.000676				-151.156440	88.358565	-102.892048
00149	2643424	-9.803385	-0.132863	-0.257681				-0.003981	0.002552	-0.003009				-151.143735	88.357384	-102.878250
00150	2643474	-9.798512	-0.158561	-0.261022				-0.003462	0.002237	-0.002500				-151.151414	88.356663	-102.887203
00151	2643524	-9.793056	-0.157163	-0.260101				-0.003849	0.001123	-0.005710				-151.107883	88.355561	-102.842566
00152	2643574	-9.793695	-0.146627	-0.255444				-0.003095	-0.001947	0.003028				-151.144087	88.357099	-102.879921
00153	2643624	-9.819243	-0.121917	-0.255399				-0.001480	0.001468	-0.001931				-151.134687	88.356448	-102.870099
00154	2643674	-9.810649	-0.135586	-0.270602				-0.005394	0.004691	-0.002129				-151.157830	88.355603	-102.893742
00155	2643724	-9.775771	-0.160921	-0.275988				-0.001515	0.001460	-0.001807				-151.149496	88.354979	-102.884969
00156	2643774	-9.797711	-0.140815	-0.272259				-0.006080	0.000029	-0.001125				-151.159440	88.355320	-102.895272
00157	2643824	-9.813065	-0.135911	-0.262420				-0.001615	0.002927	0.000194				-151.175792	88.354516	-102.911215
00158	2643874	-9.797157	-0.132421	-0.262636				-0.002580	-0.001134	0.000176				-151.190468	88.355539	-102.927135
00159	2643924	-9.801982	-0.150879	-0.253773				-0.001756	-0.000796	0.000044				-151.187621	88.355761	-102.923774
00160	2643974	-9.809884	-0.128530	-0.254300				-0.002858	0.002376	-0.003751				-151.184765	88.355621	-102.921934
00161	2644024	-9.814881	-0.121710	-0.267873				-0.002500	-0.000621	-0.001714				-151.167434	88.355600	-102.903848
00162	2644074	-9.812750	-0.142441	-0.263317				-0.001629	-0.000022	-0.002772				-151.161927	88.355545	-102.900068
00163	2644124	-9.809847	-0.151487	-0.252555				-0.002907	-0.000016	-0.001290				-151.151104	88.355271	-102.888456
00164	2644174	-9.814560	-0.157824	-0.248164				-0.002968	-0.001278	-0.003319				-151.135035	88.355740	-102.873562
00165	2644224	-9.809068	-0.135989	-0.254372				-0.009376	-0.002191	-0.000327				-151.124278	88.356117	-102.860180
00166	2644274	-9.810801	-0.152152	-0.249500				-0.002234	0.002467	0.002890				-151.180447	88.356768	-102.917670
00167	2644324	-9.811666	-0.134098	-0.261254				-0.001334	0.004090	-0.001244				-151.189565	88.355730	-102.926337
00168	2644374	-9.819319	-0.132361	-0.261156				-0.002822	0.000981	-0.005775				-151.162770	88.354626	-102.901128
00169	2644424	-9.818946	-0.133730	-0.279334				-0.002252	0.000382	-0.004149				-151.129109	88.354066	-102.866751
00170	2644474	-9.807817	-0.141949	-0.253254				-0.002773	-0.000241	-0.002160				-151.127593	88.354766	-102.866309
00171	2644524	-9.808383	-0.146777	-0.267400				-0.006419	0.000372	-0.003621				-151.099732	88.354212	-102.836574
00172	2644574	-9.816723	-0.155453	-0.249411				-0.004379	0.000831	-0.002858				-151.098033	88.354142	-102.835701
00173	2644624	-9.823801	-0.131273	-0.270539				-0.004017	0.002583	-0.002622				-151.088489	88.353359	-102.824889
00174	2644674	-9.814853	-0.136723	-0.280756				-0.004163	-0.000576	0.002816				-151.129862	88.354146	-102.867321
00175	2644724	-9.811242	-0.144530	-0.270973				-0.004586	0.000476	-0.000802				-151.126545	88.353926	-102.862681
00176	2644774	-9.817595	-0.136259	-0.263034				-0.003754	0.000392	-0.001800				-151.131493	88.354553	-102.868394
00177	2644824	-9.806401	-0.132942	-0.269039				-0.000359	-0.001623	-0.002460				-151.102339	88.354258	-102.839297
00178	2644874	-9.797816	-0.132805	-0.271098				-0.002632	0.002351	-0.001345				-151.120557	88.353952	-102.858882
00179	2644924	-9.808578	-0.130554	-0.267366				-0.002682	-0.003044	0.000487				-151.110966	88.354806	-102.848509
00180	2644974	-9.816411	-0.134273	-0.264534				-0.003581	0.001074	-0.001704				-151.120552	88.354799	-102.859123
00181	2645024	-9.802104	-0.128879	-0.279007				-0.002070	0.002368	0.001925				-151.149228	88.354337	-102.887283
00182	2645074	-9.815415	-0.152617	-0.273204				-0.010040	0.002936	0.001343				-151.195437	88.355086	-102.932364
00183	2645124	-9.817223	-0.143660	-0.268296				-0.005261	0.000761	0.001192				-151.210782	88.355417	-102.946035
00184	2645174	-9.803154	-0.127453	-0.265474				-0.000547	-0.002614	0.000707				-151.222849	88.356250	-102.960269
00185	2645224	-9.798150	-0.140723	-0.278976				-0.002684	0.000189	0.000340				-151.227484	88.356054	-102.964232
00186	2645274	-9.813783	-0.134711	-0.265624				-0.004435	-0.002300	-0.000497				-151.231301	88.357589	-102.968629
00187	2645324	-9.826931	-0.134865	-0.256510				-0.003359	-0.001059	-0.002966				-151.201279	88.357582	-102.937565
00188	2645374	-9.793140	-0.150204	-0.260793				-0.004547	0.001223	-0.000288				-151.224092	88.357783	-102.961140
00189	2645424	-9.794731	-0.140808	-0.252243				-0.004077	0.000945	0.002145				-151.248606	88.357760	-102.984539
00190	2645474	-9.805152	-0.142835	-0.259224				-0.002541	-0.001661	-0.003131				-151.231924	88.358126	-102.969262
00191	2645524	-9.822503	-0.133408	-0.243605				-0.001594	-0.000726	0.001395				-151.241133	88.358311	-102.978105
00192	2645574	-9.833453	-0.124300	-0.262392				-0.005952	-0.001811	0.000312				-151.254723	88.359488	-102.992002
00193	2645624	-9.808527	-0.127938	-0.243711				-0.005272	0.001752	-0.003459				-151.234299	88.358398	-102.970144
00194	2645674	-9.807779	-0.156711	-0.267063				-0.005097	-0.002705	-0.001143				-151.230750	88.359925	-102.966969
00195	2645724	-9.821976	-0.125968	-0.267743				-0.002610	-0.002296	0.000300				-151.223125	88.360280	-102.958717
00196	2645774	-9.816093	-0.128418	-0.251812				-0.002538	0.001446	-0.003050				-151.222265	88.360206	-102.959086
00197	2645824	-9.808712	-0.147541	-0.250832				-0.002327	-0.001366	-0.003803				-151.183010	88.359895	-102.919212
00198	2645874	-9.810431	-0.138069	-0.260910				-0.003835	-0.000127	-0.001448				-151.188693	88.360747	-102.925624
00199	2645924	-9.813178	-0.121426	-0.273708				-0.004981	0.001726	-0.002592				-151.175515	88.360038	-102.910974
00200	2645974	-9.802435	-0.145420	-0.268461				-0.006832	0.000831	0.002860				-151.225062	88.360094	-102.960984
00201	2646024	-9.809588	-0.130654	-0.258044				-0.001725	-0.001568	0.002644				-151.241273	88.360696	-102.976787
00202	2646074	-9.803290	-0.141592	-0.253097				-0.008804	0.000405	0.001804				-151.279399	88.361820	-103.014239
00203	2646124	-9.821854	-0.132998	-0.272599				-0.001575	-0.000507	0.000144				-151.278810	88.361788	-103.013286
00204	2646174	-9.793115	-0.150895	-0.263371				-0.003407	-0.002512	-0.001790				-151.269980	88.363051	-103.005420
00205	2646224	-9.805797	-0.132993	-0.251414				-0.003576	0.002979	-0.002237				-151.265823	88.362060	-103.000206
00206	2646274	-9.823120	-0.123471	-0.280358				-0.005629	0.003041	-0.001909				-151.283034	88.362011	-103.017647
00207	2646324	-9.813478	-0.138197	-0.268733				-0.001732	-0.002735	0.000582				-151.275696	88.362977	-103.009712
00208	2646374	-9.802695	-0.140575	-0.275070				-0.001850	-0.001865	0.000877				-151.293058	88.363908	-103.028724
00209	2646424	-9.811419	-0.138719	-0.254535				-0.002796	0.002608	-0.002176				-151.287146	88.362963	-103.022009
00210	2646474	-9.806870	-0.133459	-0.268832				-0.001021	-0.002185	-0.003489				-151.264702	88.363496	-103.001369
00211	2646524	-9.822058	-0.129686	-0.246514				-0.000414	0.000192	-0.002354				-151.245035	88.363150	-102.981556
00212	2646574	-9.802585	-0.139398	-0.257842				-0.003572	0.000014	0.001211				-151.275333	88.363631	-103.013000
00213	2646624	-9.801908	-0.159324	-0.249447				-0.003788	-0.000844	-0.004023				-151.237203	88.362988	-102.973912
00214	2646674	-9.800108	-0.158386	-0.273205				-0.004916	0.000793	-0.001382				-151.247788	88.363668	-102.984907
00215	2646724	-9.801972	-0.142365	-0.273436				-0.004875	0.001239	-0.004521				-151.215526	88.362573	-102.951310
00216	2646774	-9.800204	-0.134600	-0.266512				-0.003896	-0.000358	-0.004371				-151.194154	88.363193	-102.930598
00217	2646824	-9.813361	-0.147154	-0.269776				-0.001878	0.000173	0.001268				-151.206613	88.363519	-102.942424
00218	2646874	-9.803872	-0.132131	-0.255265				0.000473	0.002667	-0.000104				-151.236990	88.362922	-102.975223
00219	2646924	-9.778528	-0.155865	-0.263085				-0.004194	0.002523	0.001515				-151.263702	88.362490	-103.000748
00220	2646974	-9.809173	-0.147446	-0.253340				-0.002077	0.003235	-0.001024				-151.288788	88.361826	-103.027441
00221	2647024	-9.817789	-0.142548	-0.255941				-0.000401	0.000740	-0.003156				-151.264874	88.361222	-103.003398
00222	2647074	-9.819907	-0.130206	-0.246766				-0.003540	0.000554	-0.003887				-151.252361	88.361332	-102.991781
00223	2647124	-9.801885	-0.133623	-0.265996				-0.003234	0.000077	-0.002123				-151.235037	88.360841	-102.973607
00224	2647174	-9.804115	-0.145263	-0.266889				-0.004447	-0.001205	-0.001840				-151.232917	88.361482	-102.972238
00225	2647224	-9.799202	-0.143802	-0.256717				-0.005805	0.001226	-0.004102				-151.204791	88.360104	-102.942684
00226	2647274	-9.792475	-0.147125	-0.258836				-0.003343	-0.001378	-0.000177				-151.215151	88.361429	-102.953962
00227	2647324	-9.801362	-0.123303	-0.255950				-0.003602	0.000816	-0.000036				-151.219710	88.361567	-102.957318
00228	2647374	-9.802043	-0.147169	-0.252130				-0.003215	0.000498	-0.002707				-151.217802	88.361428	-102.956645
00229	2647424	-9.803476	-0.140164	-0.265351				-0.001600	0.003140	-0.003527				-151.202461	88.360324	-102.940753
00230	2647474	-9.813441	-0.139196	-0.272397				-0.002512	-0.000432	-0.002191				-151.199595	88.360632	-102.939279
00231	2647524	-9.806587	-0.144991	-0.253546				-0.003266	0.002407	-0.000637				-151.206620	88.359920	-102.945380
00232	2647574	-9.800699	-0.129672	-0.273985				-0.001867	0.001848	-0.000294				-151.231125	88.360410	-102.971208
00233	2647624	-9.806798	-0.143476	-0.261208				-0.003946	0.001425	-0.002245				-151.219394	88.359627	-102.958393
00234	2647674	-9.807417	-0.134235	-0.255876				-0.001241	-0.000688	0.002710				-151.258929	88.360400	-102.999796
00235	2647724	-9.802898	-0.121418	-0.243005				-0.002906	0.000086	-0.001390				-151.247729	88.360414	-102.987650
00236	2647774	-9.798057	-0.144559	-0.247493				-0.005938	-0.001656	-0.002865				-151.234753	88.360687	-102.975175
00237	2647824	-9.799776	-0.154614	-0.257172				-0.004306	-0.000460	-0.001807				-151.217914	88.360660	-102.957039
00238	2647874	-9.809901	-0.141542	-0.263285				-0.002617	-0.000875	0.001495				-151.245854	88.361417	-102.986420
00239	2647924	-9.825315	-0.137798	-0.242017				-0.005157	0.004606	0.000184				-151.271051	88.360217	-103.010183
00240	2647974	-9.821509	-0.125516	-0.267060				-0.003383	-0.002056	0.000560				-151.284726	88.361784	-103.024733
00241	2648024	-9.802998	-0.145512	-0.254831				-0.005513	0.003430	-0.003452				-151.272364	88.360576	-103.010724
00242	2648074	-9.815899	-0.139853	-0.259700				-0.000238	0.001843	-0.001643				-151.284869	88.360564	-103.025169
00243	2648124	-9.825801	-0.132948	-0.249838				-0.000723	-0.000042	-0.000140				-151.283770	88.360394	-103.023936
00244	2648174	-9.797133	-0.166638	-0.274843				0.000659	-0.001275	-0.000446				-151.291694	88.360955	-103.034231
00245	2648224	-9.804177	-0.148351	-0.250103				-0.002419	-0.003300	-0.000770				-151.269663	88.361627	-103.011519
00246	2648274	-9.815813	-0.142985	-0.267354				0.000884	-0.001139	0.000263				-151.284373	88.362459	-103.028555
00247	2648324	-9.821247	-0.143045	-0.273662				0.000700	0.001469	-0.002413				-151.269867	88.361986	-103.014134
00248	2648374	-9.815547	-0.139988	-0.276367				-0.006093	0.004882	0.002144				-151.332599	88.361611	-103.077176
00249	2648424	-9.830585	-0.124980	-0.263630				-0.003996	-0.000938	0.000025				-151.329302	88.361880	-103.072720
00250	2648474	-9.808398	-0.145593	-0.267921				-0.003012	0.000145	-0.002419				-151.328130	88.362014	-103.072777
00251	2648524	-9.840800	-0.110253	-0.258626				-0.006966	-0.000310	-0.000415				-151.325228	88.362038	-103.067876
00252	2648574	-9.807634	-0.112595	-0.264630				-0.006601	0.003509	-0.001197				-151.351126	88.361572	-103.093950
00253	2648624	-9.791881	-0.137536	-0.258797				-0.007030	-0.001048	0.002051				-151.366012	88.362066	-103.106850
00254	2648674	-9.801423	-0.136132	-0.259128				-0.002529	0.002388	-0.001412				-151.384117	88.361930	-103.126271
00255	2648724	-9.790971	-0.143757	-0.278070				-0.006858	0.001173	-0.002209				-151.372392	88.361231	-103.112624
00256	2648774	-9.782125	-0.169551	-0.270359				-0.004662	-0.002205	0.001101				-151.390643	88.362566	-103.131573
00257	2648824	-9.791416	-0.161832	-0.247177				-0.003840	0.001069	-0.001836				-151.380359	88.362111	-103.120160
00258	2648874	-9.819213	-0.139325	-0.263563				-0.002098	0.002816	-0.002174				-151.394281	88.361754	-103.135478
00259	2648924	-9.821581	-0.140266	-0.264251				-0.005446	0.001495	-0.000217				-151.400809	88.361354	-103.140448
00260	2648974	-9.801805	-0.147205	-0.250528				-0.004844	0.003572	-0.002263				-151.417736	88.361044	-103.157882
00261	2649024	-9.804385	-0.149191	-0.254040				-0.003766	0.001113	0.001378				-151.436319	88.361104	-103.175315
00262	2649074	-9.808075	-0.147077	-0.278590				-0.005405	-0.002290	-0.002840				-151.420068	88.361405	-103.159779
00263	2649124	-9.801168	-0.133025	-0.268634				-0.003678	-0.000326	-0.005529				-151.371077	88.360797	-103.109682
00264	2649174	-9.806998	-0.130575	-0.254505				-0.001829	0.000360	-0.001489				-151.378473	88.361334	-103.118517
00265	2649224	-9.795361	-0.142187	-0.265271				-0.000390	0.000154	-0.003998				-151.344351	88.360711	-103.084293
00266	2649274	-9.828372	-0.121781	-0.281944				-0.003818	-0.000442	0.001372				-151.373183	88.361783	-103.113993
00267	2649324	-9.792126	-0.152259	-0.266572				-0.006655	0.000954	-0.002019				-151.361811	88.361174	-103.100753
00268	2649374	-9.811353	-0.138288	-0.266719				-0.003669	0.002748	-0.003521				-151.363632	88.360473	-103.103602
00269	2649424	-9.811901	-0.136240	-0.259481				-0.005283	0.000007	-0.003243				-151.336756	88.360096	-103.075163
00270	2649474	-9.809780	-0.147713	-0.271160				-0.002799	-0.002733	-0.003809				-151.309071	88.360951	-103.048667
00271	2649524	-9.796085	-0.141368	-0.263070				-0.003292	-0.000925	0.000594				-151.310730	88.361378	-103.049334
00272	2649574	-9.819399	-0.134998	-0.281012				-0.002827	0.000538	-0.001417				-151.319943	88.361194	-103.059979
00273	2649624	-9.808161	-0.139746	-0.279424				-0.000422	0.002354	-0.003947				-151.296725	88.360209	-103.036558
00274	2649674	-9.790696	-0.140814	-0.250252				-0.000431	0.000876	0.000243				-151.321181	88.361037	-103.062751
00275	2649724	-9.797924	-0.141367	-0.275240				-0.002627	0.004191	-0.003165				-151.314014	88.359480	-103.054869
00276	2649774	-9.827277	-0.124068	-0.261846				-0.004322	0.000186	-0.002054				-151.316997	88.359174	-103.058932
00277	2649824	-9.814172	-0.143372	-0.262592				-0.004560	-0.000630	-0.004277				-151.277982	88.358731	-103.018599
00278	2649874	-9.818233	-0.143142	-0.260182				-0.005329	0.000618	0.000553				-151.305128	88.359399	-103.046201
00279	2649924	-9.819067	-0.131005	-0.265684				-0.002971	-0.000022	-0.000574				-151.300922	88.359343	-103.041134
00280	2649974	-9.810041	-0.145533	-0.270736				-0.002933	-0.001352	-0.001808				-151.297098	88.360338	-103.038359
00281	2650024	-9.802722	-0.150937	-0.250450				-0.000829	0.001246	0.000031				-151.303651	88.360170	-103.044605
00282	2650074	-9.803449	-0.144396	-0.261456				-0.003377	0.000618	-0.000442				-151.321949	88.359964	-103.064274
00283	2650124	-9.804484	-0.146359	-0.244463				-0.005404	0.001805	-0.003899				-151.297950	88.358924	-103.038738
00284	2650174	-9.807214	-0.147194	-0.261750				-0.000739	0.003802	0.002553				-151.357200	88.358925	-103.099791
00285	2650224	-9.801455	-0.150858	-0.261979				-0.002842	0.002687	-0.004479				-151.331575	88.357509	-103.073405
00286	2650274	-9.793682	-0.143551	-0.262952				-0.002358	0.002962	-0.001689				-151.349493	88.357352	-103.092581
00287	2650324	-9.821892	-0.120541	-0.252977				-0.003206	0.000300	-0.000315				-151.348892	88.357248	-103.091053
00288	2650374	-9.812916	-0.126910	-0.268186				-0.002510	0.003501	-0.003702				-151.352181	88.356236	-103.095787
00289	2650424	-9.802851	-0.148228	-0.272990				-0.002854	0.001562	0.001097				-151.370262	88.355888	-103.113107
00290	2650474	-9.825718	-0.110069	-0.272203				-0.002316	0.004838	-0.000709				-151.405925	88.355575	-103.149972
00291	2650524	-9.794912	-0.144907	-0.253585				-0.002915	0.001071	-0.001949				-151.394697	88.355050	-103.137905
00292	2650574	-9.804322	-0.135029	-0.254294				-0.004780	0.000432	-0.000955				-151.407859	88.355418	-103.151723
00293	2650624	-9.802107	-0.121970	-0.255031				-0.003954	0.001605	-0.002654				-151.393418	88.354586	-103.136173
00294	2650674	-9.807323	-0.158179	-0.261601				-0.006001	-0.001434	0.000064				-151.406595	88.356010	-103.149454
00295	2650724	-9.824295	-0.131525	-0.267055				-0.010172	-0.001381	-0.002588				-151.380391	88.355721	-103.120451
00296	2650774	-9.827318	-0.138202	-0.264491				-0.008430	0.001564	0.001213				-151.418858	88.356231	-103.158509
00297	2650824	-9.815567	-0.139817	-0.274307				-0.002676	-0.000081	0.000063				-151.419647	88.356511	-103.158412
00298	2650874	-9.789645	-0.162489	-0.261742				-0.001927	0.000221	-0.001958				-151.422808	88.356287	-103.163304
00299	2650924	-9.794131	-0.168558	-0.256484				-0.004522	0.000369	-0.001471				-151.412929	88.356202	-103.152015
00300	2650974	-9.807240	-0.140394	-0.271407				-0.004379	-0.001918	0.001565				-151.436976	88.357145	-103.177046
00301	2651024	-9.817658	-0.126836	-0.270749				-0.003387	0.001972	-0.000788				-151.440735	88.356459	-103.179874
00302	2651074	-9.810386	-0.127611	-0.251874				-0.003330	0.002166	-0.003548				-151.438928	88.355893	-103.179219
00303	2651124	-9.799652	-0.135800	-0.276882				-0.008345	0.001758	-0.001583				-151.435910	88.354954	-103.173946
00304	2651174	-9.804081	-0.124009	-0.277711				-0.004735	-0.001220	-0.002246				-151.429662	88.355865	-103.168235
00305	2651224	-9.814610	-0.131883	-0.251826				-0.003256	-0.000288	-0.002633				-151.406144	88.355491	-103.143816
00306	2651274	-9.803661	-0.148971	-0.255816				0.000066	0.004330	-0.000311				-151.442311	88.355247	-103.181939
00307	2651324	-9.837171	-0.129040	-0.269027				-0.002448	0.001796	-0.001144				-151.441244	88.354913	-103.180029
00308	2651374	-9.820123	-0.138711	-0.272840				-0.006034	0.000534	-0.000468				-151.459748	88.354996	-103.199018
00309	2651424	-9.806240	-0.133104	-0.255047				-0.004987	0.002044	0.000273				-151.473332	88.354612	-103.211136
00310	2651474	-9.811781	-0.129497	-0.253052				-0.002680	0.001850	-0.004001				-151.466162	88.353916	-103.205351
00311	2651524	-9.801640	-0.136018	-0.262649				-0.005364	0.001813	-0.000432				-151.472526	88.353493	-103.210134
00312	2651574	-9.796125	-0.119084	-0.264845				-0.001948	0.000126	0.000189				-151.493431	88.354568	-103.232290
00313	2651624	-9.799388	-0.131189	-0.251384				-0.003064	-0.000025	-0.000674				-151.488451	88.354647	-103.226344
00314	2651674	-9.788358	-0.143239	-0.278353				-0.005175	0.002717	-0.001714				-151.505576	88.354073	-103.244181
00315	2651724	-9.802258	-0.137772	-0.273928				-0.004210	-0.000404	-0.000227				-151.502985	88.354233	-103.240333
00316	2651774	-9.803682	-0.147109	-0.256027				-0.004713	0.004404	-0.001929				-151.526287	88.353173	-103.264491
00317	2651824	-9.804318	-0.148839	-0.264885				-0.003096	0.003114	0.000593				-151.547151	88.352313	-103.284555
00318	2651874	-9.819114	-0.129227	-0.262374				-0.007009	0.001676	-0.004693				-151.534131	88.352145	-103.271405
00319	2651924	-9.801812	-0.134685	-0.276587				-0.008141	0.001402	-0.000972				-151.534758	88.351646	-103.269702
00320	2651974	-9.791305	-0.143034	-0.263596				-0.004918	-0.000220	-0.000735				-151.547390	88.352028	-103.283023
00321	2652024	-9.805651	-0.154821	-0.268934				-0.005607	0.000993	-0.003389				-151.524000	88.351056	-103.258150
00322	2652074	-9.806041	-0.125009	-0.266036				-0.004543	0.001512	0.004536				-151.590113	88.352377	-103.324784
00323	2652124	-9.791602	-0.137569	-0.264698				-0.005023	0.002009	-0.002390				-151.580324	88.351376	-103.313640
00324	2652174	-9.816512	-0.145184	-0.265141				-0.003067	-0.002156	0.000376				-151.592014	88.352498	-103.326535
00325	2652224	-9.823543	-0.152899	-0.268494				-0.002364	-0.002313	-0.002770				-151.557253	88.352707	-103.291081
00326	2652274	-9.811440	-0.140185	-0.247398				-0.006673	-0.002644	-0.001799				-151.549077	88.353918	-103.282953
00327	2652324	-9.817929	-0.146695	-0.263651				-0.003467	0.002454	-0.001908				-151.544813	88.353023	-103.277703
00328	2652374	-9.804769	-0.151967	-0.263362				-0.005204	0.001585	-0.001558				-151.558788	88.352831	-103.292300
00329	2652424	-9.806931	-0.130580	-0.266271				-0.006586	0.001719	-0.002934				-151.543315	88.352097	-103.274881
00330	2652474	-9.815569	-0.142097	-0.269350				-0.006526	0.001885	-0.001714				-151.556938	88.351991	-103.288698
00331	2652524	-9.825285	-0.124257	-0.275326				-0.006464	0.004246	-0.000607				-151.573559	88.351061	-103.303364
00332	2652574	-9.798735	-0.144191	-0.254142				-0.002926	0.003663	-0.000463				-151.605680	88.350530	-103.336804
00333	2652624	-9.801533	-0.144873	-0.261634				-0.004069	-0.001955	-0.002448				-151.576065	88.350750	-103.305981
00334	2652674	-9.799888	-0.130280	-0.250002				-0.007160	-0.000291	-0.001113				-151.585132	88.351144	-103.315099
00335	2652724	-9.823437	-0.130996	-0.252466				0.000758	0.000592	-0.001546				-151.574079	88.350825	-103.304237
00336	2652774	-9.797341	-0.139334	-0.257244				-0.007041	0.002270	0.002201				-151.623891	88.351439	-103.353929
00337	2652824	-9.818828	-0.129148	-0.269238				-0.002032	-0.001132	0.002813				-151.643631	88.352057	-103.373123
00338	2652874	-9.789886	-0.138379	-0.270819				-0.004993	-0.003003	0.000209				-151.651297	88.353481	-103.381364
00339	2652924	-9.787352	-0.141058	-0.252806				-0.004546	-0.002354	-0.003632				-151.609263	88.353621	-103.337997
00340	2652974	-9.809442	-0.130588	-0.282002				-0.005081	-0.001188	0.000868				-151.630931	88.354264	-103.360476
00341	2653024	-9.818944	-0.139982	-0.267415				-0.002553	0.002927	-0.000817				-151.638349	88.353590	-103.367077
00342	2653074	-9.803612	-0.150336	-0.261715				-0.001128	0.000393	-0.001545				-151.645154	88.353838	-103.375627
00343	2653124	-9.809798	-0.134803	-0.254930				-0.004867	0.001337	0.001456				-151.665768	88.353639	-103.394883
00344	2653174	-9.815511	-0.153637	-0.255163				-0.003334	0.000297	0.000033				-151.686399	88.353824	-103.416778
00345	2653224	-9.829554	-0.137045	-0.252719				-0.007052	0.001328	-0.001715				-151.679711	88.353190	-103.408103
00346	2653274	-9.797300	-0.144911	-0.252880				-0.004525	0.001502	-0.001725				-151.691259	88.353191	-103.420335
00347	2653324	-9.795313	-0.145896	-0.265084				-0.003535	0.000612	-0.000220				-151.693489	88.353067	-103.421520
00348	2653374	-9.819210	-0.122326	-0.260630				-0.005072	-0.000579	-0.001474				-151.697315	88.353935	-103.425790
00349	2653424	-9.813662	-0.139330	-0.274589				-0.002326	0.000858	-0.002016				-151.684399	88.353520	-103.412161
00350	2653474	-9.807958	-0.146679	-0.259633				-0.004679	0.003108	-0.004436				-151.679676	88.352522	-103.408228
00351	2653524	-9.818325	-0.155523	-0.259173				-0.006571	-0.001801	-0.001026				-151.664087	88.352893	-103.390716
00352	2653574	-9.811263	-0.156373	-0.244687				-0.002979	0.003403	-0.001393				-151.686508	88.352341	-103.414395
00353	2653624	-9.821539	-0.123483	-0.265925				-0.006456	0.000719	-0.002524				-151.669593	88.351750	-103.395659
00354	2653674	-9.842940	-0.113169	-0.252349				-0.003164	-0.000924	0.002053				-151.702113	88.352913	-103.429304
00355	2653724	-9.820307	-0.128680	-0.262335				-0.002269	-0.000949	-0.000200				-151.696250	88.353260	-103.422722
00356	2653774	-9.800882	-0.137614	-0.265786				-0.002936	0.002111	-0.000019				-151.725264	88.353381	-103.452913
00357	2653824	-9.810215	-0.139164	-0.256212				-0.004572	0.002916	-0.003605				-151.708911	88.352323	-103.435154
00358	2653874	-9.829751	-0.135323	-0.261594				-0.003054	0.002152	0.005145				-151.782895	88.352590	-103.510607
00359	2653924	-9.808685	-0.157778	-0.273379				-0.003421	-0.000130	-0.001574				-151.769393	88.352553	-103.496050
00360	2653974	-9.803737	-0.135304	-0.271262				-0.004011	0.000080	-0.004841				-151.746860	88.352434	-103.474398
00361	2654024	-9.792927	-0.141657	-0.274211				-0.004778	0.000367	-0.000026				-151.749581	88.352545	-103.475645
00362	2654074	-9.817419	-0.115943	-0.254668				-0.005455	-0.000518	-0.001217				-151.756199	88.353146	-103.482740
00363	2654124	-9.812375	-0.141378	-0.249668				-0.005933	0.000308	-0.002907				-151.733715	88.352564	-103.458598
00364	2654174	-9.813746	-0.157953	-0.263012				-0.001673	-0.001416	0.001787				-151.761205	88.353982	-103.487526
00365	2654224	-9.802923	-0.144276	-0.269859				-0.006922	0.001167	-0.002133				-151.750032	88.353541	-103.474293
00366	2654274	-9.798139	-0.132997	-0.257322				-0.003051	-0.000609	-0.001387				-151.754345	88.353530	-103.480072
00367	2654324	-9.825497	-0.138641	-0.250071				-0.008059	-0.000177	-0.001402				-151.743202	88.353548	-103.466537
00368	2654374	-9.809162	-0.128312	-0.255062				-0.008397	0.003073	-0.005070				-151.734462	88.352276	-103.457606
00369	2654424	-9.817479	-0.147174	-0.258736				-0.005672	0.000191	-0.000696				-151.730597	88.352449	-103.451964
00370	2654474	-9.805326	-0.145485	-0.262910				-0.007968	0.002289	0.001824				-151.777864	88.352738	-103.498992
00371	2654524	-9.809733	-0.135403	-0.263668				-0.006191	0.004640	-0.001443				-151.788537	88.351479	-103.507843
00372	2654574	-9.821393	-0.155541	-0.264284				-0.003026	0.002589	-0.003739				-151.787631	88.350807	-103.508178
00373	2654624	-9.812459	-0.128373	-0.261844				-0.003555	-0.001003	-0.001734				-151.768725	88.350962	-103.488181
00374	2654674	-9.807794	-0.128298	-0.244810				-0.004202	-0.001464	0.000990				-151.789702	88.352014	-103.510006
00375	2654724	-9.818142	-0.128071	-0.267696				-0.002635	0.004836	0.000796				-151.820120	88.351043	-103.539612
00376	2654774	-9.796103	-0.115375	-0.275359				-0.006106	0.000888	-0.000436				-151.840715	88.350743	-103.560790
00377	2654824	-9.813554	-0.128648	-0.275382				-0.006059	0.001473	-0.000658				-151.843591	88.350255	-103.561947
00378	2654874	-9.809511	-0.125633	-0.280831				-0.004014	0.001805	0.000719				-151.877138	88.350912	-103.596135
00379	2654924	-9.806769	-0.125269	-0.264119				-0.004207	0.002339	-0.003417				-151.859505	88.349799	-103.577315
00380	2654974	-9.814211	-0.126954	-0.250643				-0.001538	0.001059	-0.004332				-151.845290	88.349426	-103.564752
00381	2655024	-9.786674	-0.150770	-0.265567				-0.000250	-0.000139	-0.001710				-151.830259	88.348945	-103.549783
00382	2655074	-9.804689	-0.138208	-0.265752				-0.001916	-0.001007	-0.000747				-151.837292	88.349694	-103.558318
00383	2655124	-9.796812	-0.140280	-0.263660				-0.005628	0.001801	-0.002741				-151.823341	88.348928	-103.542719
00384	2655174	-9.818304	-0.152483	-0.268740				-0.004888	-0.002383	-0.000712				-151.825343	88.350259	-103.545264
00385	2655224	-9.788199	-0.149252	-0.252882				-0.003122	-0.000351	0.000381				-151.827982	88.350407	-103.547007
00386	2655274	-9.806944	-0.138490	-0.247242				-0.001325	-0.001287	0.000083				-151.841201	88.351067	-103.562026
00387	2655324	-9.817425	-0.135504	-0.253419				-0.005109	-0.001783	-0.005168				-151.788993	88.350898	-103.508292
00388	2655374	-9.805400	-0.150273	-0.278706				-0.006917	0.000201	0.001293				-151.821182	88.352066	-103.540347
00389	2655424	-9.778203	-0.152893	-0.244080				-0.005127	0.000227	-0.001471				-151.810860	88.351503	-103.528709
00390	2655474	-9.803102	-0.148325	-0.270769				-0.004450	-0.002123	-0.001836				-151.804113	88.352353	-103.522740
00391	2655524	-9.824608	-0.130478	-0.255356				-0.006869	0.000686	-0.000528				-151.804877	88.351999	-103.521588
00392	2655574	-9.820442	-0.137468	-0.260695				-0.002264	0.002065	0.001323				-151.844646	88.352362	-103.562739
00393	2655624	-9.796450	-0.133576	-0.259573				-0.006339	0.001348	0.002230				-151.872338	88.352248	-103.588668
00394	2655674	-9.794649	-0.153240	-0.279700				-0.007528	0.000251	0.000719				-151.900458	88.353093	-103.616578
00395	2655724	-9.828744	-0.132158	-0.276681				-0.004799	0.002177	-0.000850				-151.904701	88.352279	-103.619521
00396	2655774	-9.806814	-0.140701	-0.264197				-0.002839	0.004788	-0.005139				-151.900739	88.350911	-103.616815
00397	2655824	-9.793143	-0.147365	-0.266317				-0.004891	0.002618	-0.004698				-151.873346	88.349496	-103.588065
00398	2655874	-9.820275	-0.138685	-0.247056				-0.002012	0.001927	-0.002654				-151.877990	88.349529	-103.594027
00399	2655924	-9.810698	-0.136911	-0.258526				-0.001009	-0.001344	-0.000270				-151.869698	88.349814	-103.585451
00400	2655974	-9.807621	-0.148582	-0.271166				-0.003339	-0.001679	-0.001866				-151.864336	88.350613	-103.581150
00401	2656024	-9.817732	-0.142887	-0.265124				-0.003701	-0.002594	-0.004117				-151.817494	88.350760	-103.533199
00402	2656074	-9.823900	-0.125518	-0.265470				-0.004709	0.001603	0.001749				-151.859475	88.351374	-103.575793
00403	2656124	-9.810718	-0.132780	-0.263368				-0.002966	0.000951	0.000551				-151.869736	88.351059	-103.585280
00404	2656174	-9.810730	-0.132893	-0.262423				-0.002759	0.002241	-0.001911				-151.882013	88.350691	-103.598886
00405	2656224	-9.800826	-0.146343	-0.257221				-0.003187	0.002652	-0.003676				-151.863389	88.349389	-103.579406
00406	2656274	-9.803859	-0.128384	-0.265222				-0.007737	-0.001109	0.001195				-151.889234	88.350417	-103.605064
00407	2656324	-9.797068	-0.145675	-0.249467				-0.003302	-0.001614	0.000149				-151.883798	88.350973	-103.598622
00408	2656374	-9.813185	-0.145698	-0.262854				-0.005720	0.001836	-0.001229				-151.901341	88.350855	-103.616622
00409	2656424	-9.804289	-0.132237	-0.265729				-0.002053	-0.000656	-0.000522				-151.894411	88.350932	-103.609108
00410	2656474	-9.817193	-0.136635	-0.249633				-0.001667	0.000291	-0.000452				-151.910434	88.351520	-103.626639
00411	2656524	-9.786476	-0.149408	-0.262273				-0.003516	0.000969	-0.000636				-151.910470	88.351225	-103.625650
00412	2656574	-9.799599	-0.144354	-0.267279				-0.004350	0.002485	0.002839				-151.966216	88.351887	-103.682028
00413	2656624	-9.808599	-0.135844	-0.255474				-0.005557	0.002445	-0.004309				-151.941245	88.350510	-103.655545
00414	2656674	-9.800819	-0.137800	-0.238400				-0.005504	0.000064	-0.000504				-151.956656	88.351376	-103.671217
00415	2656724	-9.819664	-0.127949	-0.250844				-0.002480	-0.000370	-0.000643				-151.949965	88.351423	-103.663795
00416	2656774	-9.782120	-0.159445	-0.252467				-0.004268	0.001442	-0.000570				-151.971326	88.351268	-103.686121
00417	2656824	-9.788996	-0.154812	-0.266612				-0.005067	0.002493	0.000020				-151.984713	88.350516	-103.698123
00418	2656874	-9.787408	-0.155250	-0.252693				-0.004324	0.001115	-0.001919				-151.992304	88.350755	-103.706454
00419	2656924	-9.820321	-0.133158	-0.251031				-0.002883	-0.000770	-0.001220				-151.979000	88.350675	-103.692375
00420	2656974	-9.812936	-0.139682	-0.237701				-0.002731	0.001466	-0.001948				-151.987906	88.350289	-103.702710
00421	2657024	-9.808950	-0.129717	-0.248772				-0.006070	0.002600	-0.003474				-151.971242	88.348998	-103.684381
00422	2657074	-9.808737	-0.150785	-0.240350				-0.002847	0.001010	-0.002655				-151.971791	88.349094	-103.686095
00423	2657124	-9.818612	-0.128788	-0.266845				-0.002565	-0.000697	-0.000261				-151.967093	88.349280	-103.680635
00424	2657174	-9.804229	-0.117305	-0.266469				-0.007435	0.000314	-0.000855				-151.981209	88.349810	-103.694577
00425	2657224	-9.811172	-0.139917	-0.254002				-0.005403	0.002840	-0.002833				-151.971126	88.348478	-103.683055
00426	2657274	-9.778296	-0.160059	-0.252733				-0.004274	0.001701	0.000297				-152.001328	88.349075	-103.713907
00427	2657324	-9.785143	-0.158494	-0.265845				-0.001784	-0.000030	0.000384				-152.005348	88.349141	-103.717410
00428	2657374	-9.786304	-0.162153	-0.264232				-0.007161	0.002846	-0.000745				-152.032306	88.348635	-103.744522
00429	2657424	-9.818589	-0.135520	-0.257562				-0.007232	0.001735	-0.004439				-152.003653	88.347803	-103.713685
00430	2657474	-9.808983	-0.141145	-0.259555				-0.007021	0.002559	-0.000872				-152.027360	88.348044	-103.737253
00431	2657524	-9.818873	-0.142240	-0.274034				-0.003371	-0.000611	0.000287				-152.028372	88.348145	-103.737342
00432	2657574	-9.811081	-0.144021	-0.259543				-0.002880	0.001272	0.000871				-152.060866	88.347814	-103.771400
00433	2657624	-9.799149	-0.127521	-0.258354				-0.002667	0.000600	0.001571				-152.078171	88.348045	-103.787860
00434	2657674	-9.820895	-0.122168	-0.257827				-0.002510	0.002572	-0.001972				-152.091703	88.347428	-103.802866
00435	2657724	-9.803661	-0.128310	-0.259549				-0.002187	0.000539	-0.001735				-152.079276	88.347298	-103.789691
00436	2657774	-9.790653	-0.143670	-0.252087				-0.003430	-0.003041	-0.002199				-152.065589	88.348377	-103.777034
00437	2657824	-9.805294	-0.144221	-0.271367				-0.002625	0.002344	-0.000341				-152.074176	88.347903	-103.784793
00438	2657874	-9.820916	-0.132276	-0.271939				-0.004800	0.001436	0.001910				-152.117034	88.348388	-103.828326
00439	2657924	-9.804813	-0.131353	-0.259943				-0.001033	-0.001477	0.000534				-152.114955	88.349002	-103.825867
00440	2657974	-9.798825	-0.131720	-0.264653				-0.005781	0.001671	-0.002552				-152.120467	88.348553	-103.831832
00441	2658024	-9.798848	-0.145929	-0.270613				-0.004175	0.002375	-0.004252				-152.095145	88.347589	-103.805202
00442	2658074	-9.810096	-0.142035	-0.269175				-0.007295	0.002805	-0.004018				-152.093368	88.346821	-103.803409
00443	2658124	-9.806471	-0.149999	-0.261480				-0.006327	0.002894	-0.000037				-152.108184	88.346175	-103.816377
00444	2658174	-9.818869	-0.118602	-0.246074				-0.002066	0.001469	-0.004871				-152.091297	88.345289	-103.801154
00445	2658224	-9.819492	-0.155692	-0.263458				-0.001283	-0.000706	-0.000901				-152.080438	88.345225	-103.789986
00446	2658274	-9.795143	-0.141193	-0.263575				-0.005876	-0.001499	-0.000834				-152.085503	88.346409	-103.795249
00447	2658324	-9.785600	-0.139239	-0.268694				-0.000952	-0.002957	0.002576				-152.094770	88.347425	-103.804286
00448	2658374	-9.812411	-0.127388	-0.271736				-0.001281	-0.000101	-0.004846				-152.070104	88.347694	-103.781145
00449	2658424	-9.806620	-0.150153	-0.276100				-0.008956	0.003845	-0.001919				-152.073468	88.346699	-103.781829
00450	2658474	-9.803130	-0.154531	-0.254043				-0.002947	0.002103	-0.003966				-152.067626	88.346009	-103.777270
00451	2658524	-9.791347	-0.151778	-0.239375				-0.004186	-0.001442	-0.003375				-152.032418	88.345828	-103.740890
00452	2658574	-9.808517	-0.120728	-0.259130				-0.002953	0.002597	-0.000857				-152.056323	88.345849	-103.765919
00453	2658624	-9.803362	-0.154696	-0.254744				-0.005548	0.001480	-0.001331				-152.053315	88.345035	-103.761446
00454	2658674	-9.817552	-0.120339	-0.262037				-0.003012	-0.003741	0.000110				-152.055758	88.346784	-103.764993
00455	2658724	-9.797889	-0.152301	-0.258157				-0.001491	0.001647	-0.002819				-152.039085	88.345943	-103.747913
00456	2658774	-9.807894	-0.140211	-0.282507				-0.006013	0.000463	-0.003934				-152.026426	88.345743	-103.735643
00457	2658824	-9.799015	-0.160354	-0.253296				-0.007534	-0.000882	-0.002946				-151.998578	88.345439	-103.705691
00458	2658874	-9.824320	-0.133763	-0.258316				-0.004460	0.003768	0.000379				-152.039087	88.345263	-103.746884
00459	2658924	-9.804476	-0.137836	-0.261675				-0.002115	-0.000113	-0.004049				-152.003925	88.344680	-103.711123
00460	2658974	-9.818040	-0.122844	-0.256345				-0.004136	0.002411	-0.002324				-152.013375	88.344708	-103.721267
00461	2659024	-9.817228	-0.142764	-0.270222				-0.003588	0.000159	-0.000479				-152.010803	88.344500	-103.717720
00462	2659074	-9.814732	-0.132270	-0.271489				-0.002272	0.002217	-0.000503				-152.036335	88.344263	-103.744761
00463	2659124	-9.805746	-0.151806	-0.259262				-0.000944	0.000653	-0.001767				-152.023984	88.343958	-103.732085
00464	2659174	-9.815719	-0.138735	-0.251754				-0.003650	-0.000744	0.000897				-152.047277	88.345161	-103.756227
00465	2659224	-9.819901	-0.117450	-0.275526				-0.006300	0.002526	-0.006261				-152.005988	88.343771	-103.713065
00466	2659274	-9.804133	-0.141422	-0.272411				-0.003194	-0.001060	-0.001356				-152.008466	88.343838	-103.716918
00467	2659324	-9.806930	-0.162235	-0.278694				-0.000772	0.000108	-0.002350				-151.988568	88.343402	-103.696834
00468	2659374	-9.805856	-0.149044	-0.246734				-0.006510	-0.002505	0.000990				-152.005590	88.344855	-103.714005
00469	2659424	-9.781736	-0.131334	-0.256199				-0.000122	-0.002849	0.001741				-152.007447	88.345967	-103.715757
00470	2659474	-9.800402	-0.137901	-0.266561				-0.002833	0.001559	-0.003073				-152.007172	88.345666	-103.716720
00471	2659524	-9.789543	-0.154680	-0.255803				-0.001344	0.002298	-0.000665				-152.012483	88.344847	-103.721724
00472	2659574	-9.817622	-0.118145	-0.255878				-0.003863	-0.000335	-0.002819				-152.005258	88.345385	-103.715309
00473	2659624	-9.808428	-0.140273	-0.272474				-0.002515	0.001796	-0.000892				-152.006560	88.344788	-103.715900
00474	2659674	-9.799599	-0.152336	-0.250647				-0.003716	-0.000583	0.000961				-152.031241	88.345890	-103.741455
00475	2659724	-9.812895	-0.134130	-0.256360				-0.005133	-0.000580	-0.000993				-152.021444	88.345905	-103.730179
00476	2659774	-9.805737	-0.128978	-0.268671				-0.002636	0.003338	-0.005181				-152.010782	88.344710	-103.720887
00477	2659824	-9.819895	-0.145872	-0.256310				-0.004674	0.000010	-0.002722				-151.988490	88.344315	-103.697260
00478	2659874	-9.799521	-0.135144	-0.261217				-0.005874	0.000311	-0.002594				-151.986637	88.344477	-103.695770
00479	2659924	-9.805590	-0.126136	-0.260229				-0.004589	0.001241	-0.002658				-151.970509	88.343813	-103.678314
00480	2659974	-9.803412	-0.135300	-0.246868				-0.003300	0.001241	0.000225				-151.997441	88.344281	-103.706275
00481	2660024	-9.794852	-0.149281	-0.254279				-0.000038	-0.000639	0.001714				-152.009468	88.344733	-103.718268
00482	2660074	-9.822417	-0.137397	-0.251953				-0.001148	-0.001183	-0.001685				-152.007596	88.345209	-103.718198
00483	2660124	-9.802055	-0.140788	-0.262948				-0.005591	0.000677	-0.001443				-151.999821	88.344693	-103.708890
00484	2660174	-9.807830	-0.113708	-0.269081				-0.005209	-0.000480	-0.001798				-152.001316	88.344799	-103.711118
00485	2660224	-9.824768	-0.151947	-0.264133				-0.007593	-0.002778	0.001082				-152.000103	88.345665	-103.707716
00486	2660274	-9.807224	-0.124206	-0.269353				-0.004301	0.001378	-0.001861				-152.009215	88.346260	-103.717294
00487	2660324	-9.815060	-0.129916	-0.261609				-0.003961	0.000541	-0.004010				-151.977762	88.345555	-103.684709
00488	2660374	-9.804087	-0.151108	-0.259508				-0.004999	-0.000028	-0.002056				-151.979497	88.345447	-103.687243
00489	2660424	-9.798957	-0.155983	-0.271305				-0.005540	0.000034	-0.000834				-151.973935	88.345528	-103.679987
00490	2660474	-9.817266	-0.142088	-0.263805				-0.002846	0.000250	0.001859				-152.010363	88.345844	-103.717876
00491	2660524	-9.808048	-0.155620	-0.264117				-0.003685	-0.000103	-0.003503				-151.980201	88.345674	-103.686511
00492	2660574	-9.799246	-0.165004	-0.244440				-0.003499	0.001330	-0.001023				-151.996461	88.345938	-103.703734
00493	2660624	-9.800627	-0.153562	-0.275602				-0.003511	0.000615	-0.000998				-151.991597	88.345700	-103.697832
00494	2660674	-9.777703	-0.146518	-0.261802				-0.004113	-0.001921	-0.003995				-151.967017	88.346192	-103.674116
00495	2660724	-9.814434	-0.140300	-0.265266				-0.008274	0.001074	-0.005760				-151.923779	88.345171	-103.628477
00496	2660774	-9.811523	-0.131410	-0.252766				-0.007550	0.000605	-0.003746				-151.914147	88.344915	-103.618814
00497	2660824	-9.803230	-0.144894	-0.256406				-0.003547	0.000975	0.001183				-151.929984	88.345086	-103.633516
00498	2660874	-9.804952	-0.131190	-0.276041				-0.006191	-0.001566	-0.000779				-151.935916	88.345578	-103.639907
00499	2660924	-9.796812	-0.133588	-0.277767				0.000761	0.000635	0.000755				-151.945151	88.345543	-103.649358
00500	2660974	-9.811622	-0.137304	-0.263181				-0.004078	0.003782	0.001685				-151.996894	88.345468	-103.701960
00501	2661024	-9.799706	-0.139976	-0.259023				-0.004667	0.000458	-0.003884				-151.966095	88.344895	-103.669777
00502	2661074	-9.791968	-0.139753	-0.279264				-0.006390	-0.000633	-0.002313				-151.962941	88.345615	-103.666696
00503	2661124	-9.791909	-0.150649	-0.266992				-0.002640	0.000204	-0.003730				-151.931949	88.345187	-103.634872
00504	2661174	-9.792313	-0.147128	-0.246355				-0.003465	-0.000937	-0.002576				-151.923900	88.345478	-103.627950
00505	2661224	-9.797800	-0.141335	-0.256207				-0.004163	-0.000106	-0.001513				-151.911602	88.345099	-103.614556
00506	2661274	-9.822414	-0.132348	-0.261356				-0.000248	-0.000332	-0.003320				-151.898834	88.345718	-103.603575
00507	2661324	-9.805188	-0.135978	-0.265818				-0.007173	0.002302	0.000817				-151.918386	88.345713	-103.620849
00508	2661374	-9.801997	-0.141712	-0.269401				-0.000279	0.000704	-0.003380				-151.910706	88.345047	-103.615422
00509	2661424	-9.809714	-0.158727	-0.259102				-0.005908	0.002708	-0.000497				-151.920729	88.344518	-103.623640
00510	2661474	-9.785809	-0.143353	-0.266361				-0.001713	0.000688	0.000022				-151.942344	88.344790	-103.646908
00511	2661524	-9.796576	-0.159382	-0.263884				-0.005832	0.001422	0.000908				-151.958522	88.344328	-103.661529
00512	2661574	-9.801488	-0.142427	-0.274211				-0.003168	0.001275	0.000481				-151.987577	88.344947	-103.691569
00513	2661624	-9.808277	-0.146611	-0.245535				-0.004779	-0.001802	-0.001358				-151.968725	88.345119	-103.671383
00514	2661674	-9.800200	-0.137527	-0.261288				-0.005879	0.001442	-0.004036				-151.959690	88.345038	-103.662591
00515	2661724	-9.796522	-0.147635	-0.258094				-0.001682	-0.001448	0.000335				-151.956625	88.345366	-103.659087
00516	2661774	-9.800007	-0.156004	-0.255497				-0.005827	0.001063	-0.000314				-151.978437	88.345763	-103.681220
00517	2661824	-9.801032	-0.142118	-0.272232				-0.000495	0.001415	-0.002253				-151.965605	88.344990	-103.668295
00518	2661874	-9.795984	-0.147998	-0.268012				-0.002068	0.000674	-0.002414				-151.966229	88.344724	-103.670550
00519	2661924	-9.809268	-0.127045	-0.240639				-0.003910	0.003193	-0.002939				-151.956653	88.343300	-103.659959
00520	2661974	-9.818624	-0.131047	-0.260378				-0.000742	-0.002923	-0.000957				-151.952793	88.344829	-103.657773
00521	2662024	-9.799676	-0.125959	-0.254269				-0.005168	-0.000548	-0.002445				-151.930160	88.344649	-103.633644
00522	2662074	-9.799732	-0.148654	-0.276478				-0.003330	-0.003196	-0.001951				-151.917618	88.345649	-103.622231
00523	2662124	-9.809964	-0.132879	-0.269552				-0.002558	-0.001008	0.001367				-151.925428	88.346037	-103.629338
00524	2662174	-9.802910	-0.145506	-0.270044				-0.002133	-0.000592	-0.003574				-151.910134	88.346397	-103.615404
00525	2662224	-9.809536	-0.133795	-0.260502				-0.000237	0.001778	0.000987				-151.927304	88.345956	-103.632572
00526	2662274	-9.799793	-0.151429	-0.261263				-0.001039	0.002601	-0.002020				-151.939848	88.345641	-103.646847
00527	2662324	-9.812459	-0.147580	-0.262122				-0.001198	0.001403	-0.002089				-151.928546	88.345071	-103.635159
00528	2662374	-9.812692	-0.146658	-0.263739				-0.004713	-0.001055	-0.002605				-151.920349	88.345590	-103.627650
00529	2662424	-9.822500	-0.143450	-0.262703				-0.005803	-0.002918	-0.002418				-151.887252	88.346117	-103.592821
00530	2662474	-9.780303	-0.147685	-0.262203				-0.002056	0.006426	-0.003476				-151.905200	88.344507	-103.612257
00531	2662524	-9.806655	-0.137494	-0.257128				-0.000564	0.000465	-0.004952				-151.864156	88.343859	-103.570968
00532	2662574	-9.819044	-0.147284	-0.275005				-0.002318	-0.000888	-0.004277				-151.841523	88.344015	-103.549759
00533	2662624	-9.812942	-0.132653	-0.251784				-0.005943	-0.000531	-0.002794				-151.816658	88.343555	-103.523286
00534	2662674	-9.814446	-0.131842	-0.241258				-0.000717	0.000503	-0.002483				-151.814988	88.344283	-103.523153
00535	2662724	-9.800094	-0.146702	-0.260651				-0.006741	-0.002444	0.000857				-151.813036	88.344629	-103.519462
00536	2662774	-9.810629	-0.147456	-0.248647				-0.003833	-0.001094	0.002749				-151.850692	88.346140	-103.557948
00537	2662824	-9.801443	-0.134954	-0.258431				-0.003991	0.002608	-0.004034				-151.829121	88.344596	-103.535392
00538	2662874	-9.806005	-0.133034	-0.255723				-0.002316	0.002843	0.001451				-151.873535	88.344764	-103.581153
00539	2662924	-9.822435	-0.134316	-0.252374				-0.006184	0.004389	-0.001097				-151.886136	88.343568	-103.591952
00540	2662974	-9.809258	-0.136933	-0.260670				-0.005896	0.000926	-0.004033				-151.875025	88.343723	-103.581019
00541	2663024	-9.805653	-0.145419	-0.248785				-0.005965	0.003154	-0.003608				-151.859823	88.342528	-103.564064
00542	2663074	-9.818794	-0.131151	-0.271134				-0.000175	-0.001329	-0.000214				-151.870408	88.342780	-103.576959
00543	2663124	-9.797688	-0.131345	-0.256256				-0.005437	0.000878	-0.000800				-151.869227	88.342246	-103.574321
00544	2663174	-9.804399	-0.127932	-0.256665				-0.004622	0.001205	-0.003461				-151.863336	88.342775	-103.568809
00545	2663224	-9.823771	-0.139767	-0.256848				-0.003790	0.001451	-0.001921				-151.854183	88.342297	-103.558496
00546	2663274	-9.819544	-0.127300	-0.272786				-0.003372	-0.001674	-0.000299				-151.863226	88.342798	-103.568835
00547	2663324	-9.814341	-0.133215	-0.255226				-0.007953	0.002480	-0.000590				-151.871704	88.342192	-103.574990
00548	2663374	-9.807409	-0.149623	-0.265689				-0.006191	-0.000730	-0.002890				-151.862737	88.342580	-103.566258
00549	2663424	-9.830567	-0.122241	-0.271112				-0.002294	-0.000203	-0.000233				-151.860708	88.342439	-103.563642
00550	2663474	-9.825821	-0.137084	-0.278728				-0.002664	-0.001986	-0.002165				-151.851198	88.343323	-103.555368
00551	2663524	-9.805207	-0.121962	-0.253025				-0.002357	-0.001138	0.001338				-151.858290	88.343886	-103.561741
00552	2663574	-9.813532	-0.140785	-0.253696				-0.001238	-0.001248	-0.000760				-151.863965	88.344315	-103.569312
00553	2663624	-9.799863	-0.145296	-0.262215				-0.000318	0.001124	-0.001841				-151.853402	88.343635	-103.558719
00554	2663674	-9.803512	-0.153499	-0.271089				-0.001281	0.001235	-0.001192				-151.867035	88.344100	-103.573837
00555	2663724	-9.794579	-0.148278	-0.262720				-0.004695	0.000893	0.000961				-151.880675	88.344120	-103.586085
00556	2663774	-9.820114	-0.140184	-0.270503				-0.006708	0.001466	-0.002171				-151.889101	88.343910	-103.594688
00557	2663824	-9.812396	-0.150946	-0.265684				-0.003537	0.002125	-0.005864				-151.848980	88.342716	-103.553472
00558	2663874	-9.798662	-0.150051	-0.253391				-0.001235	0.000821	0.000281				-151.873227	88.343038	-103.579483
00559	2663924	-9.816213	-0.119342	-0.249060				-0.004868	-0.002734	0.001110				-151.871721	88.343732	-103.576650
00560	2663974	-9.817359	-0.117197	-0.260905				-0.000039	-0.001518	0.001261				-151.893579	88.344857	-103.600533
00561	2664024	-9.813441	-0.128280	-0.256624				-0.004143	-0.000755	-0.003085				-151.864449	88.344755	-103.570144
00562	2664074	-9.812065	-0.114644	-0.275839				-0.001115	0.001922	-0.002630				-151.868617	88.344733	-103.575908
00563	2664124	-9.798369	-0.148073	-0.266502				-0.001166	-0.000476	-0.001717				-151.851757	88.344393	-103.558815
00564	2664174	-9.801659	-0.160456	-0.249014				-0.005564	0.000741	-0.001697				-151.860049	88.344363	-103.567640
00565	2664224	-9.808336	-0.154137	-0.259969				-0.004152	-0.000070	0.001887				-151.877358	88.344680	-103.583745
00566	2664274	-9.794626	-0.167255	-0.256453				-0.002918	0.002478	0.001579				-151.921770	88.345013	-103.629271
00567	2664324	-9.807973	-0.146918	-0.255240				-0.003832	0.001811	-0.001310				-151.920028	88.343870	-103.626682
00568	2664374	-9.808496	-0.149847	-0.282059				-0.002491	0.000895	-0.001482				-151.930017	88.344270	-103.637894
00569	2664424	-9.825075	-0.127478	-0.263697				-0.002357	0.000966	0.000867				-151.942518	88.344280	-103.649660
00570	2664474	-9.814868	-0.114184	-0.246830				-0.003918	0.001610	0.000101				-151.969939	88.344632	-103.677945
00571	2664524	-9.800291	-0.135846	-0.250208				-0.003254	0.000290	-0.005651				-151.922973	88.343912	-103.629972
00572	2664574	-9.814761	-0.139466	-0.252482				-0.005003	-0.001898	-0.002091				-151.914839	88.344619	-103.622451
00573	2664624	-9.804465	-0.143199	-0.252563				-0.003244	-0.000905	-0.004248				-151.874480	88.344295	-103.581133
00574	2664674	-9.799353	-0.135768	-0.247791				-0.004218	-0.000172	-0.000325				-151.890169	88.344800	-103.597699
00575	2664724	-9.795682	-0.144312	-0.247334				-0.004593	0.001369	-0.002949				-151.872116	88.344099	-103.578299
00576	2664774	-9.828159	-0.151191	-0.255981				-0.003602	-0.002713	-0.002071				-151.860223	88.345131	-103.567392
00577	2664824	-9.809342	-0.149449	-0.260271				-0.000932	0.001179	-0.001543				-151.852433	88.344823	-103.559235
00578	2664874	-9.791903	-0.152552	-0.262462				-0.007479	0.000481	-0.001024				-151.866272	88.344468	-103.573317
00579	2664924	-9.802873	-0.129974	-0.265711				-0.004788	-0.002274	0.002584				-151.879567	88.345403	-103.585239
00580	2664974	-9.801875	-0.140173	-0.254302				-0.003783	0.000225	-0.001258				-151.888718	88.345989	-103.595221
00581	2665024	-9.814773	-0.144980	-0.277194				-0.005064	-0.000896	-0.000839				-151.878641	88.345937	-103.583771
00582	2665074	-9.818978	-0.136203	-0.269770				-0.007523	0.000768	-0.002717				-151.878693	88.345828	-103.583781
00583	2665124	-9.794199	-0.151660	-0.240200				-0.004460	0.002544	-0.000120				-151.891074	88.345094	-103.594923
00584	2665174	-9.816864	-0.130313	-0.276618				-0.003853	-0.001749	-0.000780				-151.894979	88.346199	-103.599664
00585	2665224	-9.795205	-0.142361	-0.250885				-0.004964	-0.002063	-0.000881				-151.879222	88.346406	-103.582575
00586	2665274	-9.811309	-0.133825	-0.243170				-0.000802	-0.001021	-0.002037				-151.874581	88.347491	-103.579503
00587	2665324	-9.822677	-0.154255	-0.251505				-0.003528	-0.000676	-0.000878				-151.864935	88.347492	-103.568866
00588	2665374	-9.806659	-0.147891	-0.274309				-0.005230	-0.001102	-0.004946				-151.835601	88.347687	-103.540061
00589	2665424	-9.799764	-0.131907	-0.266806				-0.002185	0.002417	-0.001696				-151.832770	88.347134	-103.536458
00590	2665474	-9.828889	-0.127550	-0.262294				-0.002184	0.000713	0.002630				-151.877601	88.347913	-103.582729
00591	2665524	-9.810268	-0.135067	-0.255192				-0.002435	0.000121	-0.000168				-151.877262	88.347881	-103.581686
00592	2665574	-9.792864	-0.153529	-0.260484				-0.003930	-0.000171	-0.001901				-151.878926	88.347817	-103.584474
00593	2665624	-9.791228	-0.142315	-0.277560				-0.004378	-0.000240	-0.000842				-151.871389	88.347830	-103.575650
00594	2665674	-9.829645	-0.127784	-0.255139				-0.006012	0.003805	-0.002896				-151.883715	88.347494	-103.588101
00595	2665724	-9.814898	-0.139523	-0.268397				-0.006488	0.003532	-0.004275				-151.864396	88.346053	-103.566903
00596	2665774	-9.816985	-0.144230	-0.266405				-0.007524	-0.001037	0.000450				-151.884391	88.346329	-103.587091
00597	2665824	-9.800514	-0.135021	-0.254072				-0.000790	0.002796	-0.002148				-151.878686	88.345500	-103.581076
00598	2665874	-9.824479	-0.137792	-0.262987				-0.003761	0.001382	-0.003459				-151.874223	88.345291	-103.577562
00599	2665924	-9.797783	-0.139288	-0.263611				-0.004138	0.000346	-0.000773				-151.870173	88.344990	-103.572375
00600	2665974	-9.801170	-0.138679	-0.255795				-0.006040	0.003837	-0.000586				-151.902859	88.344415	-103.605446
00601	2666024	-9.818811	-0.137268	-0.255583				-0.004012	-0.000648	-0.000133				-151.899733	88.344870	-103.601018
00602	2666074	-9.803226	-0.149752	-0.248740				0.000039	-0.001130	-0.000340				-151.909494	88.345849	-103.612754
00603	2666124	-9.791400	-0.158281	-0.256435				-0.005385	0.000228	-0.000836				-151.904619	88.345717	-103.606316
00604	2666174	-9.796278	-0.151757	-0.250984				-0.001610	0.002592	-0.000094				-151.934661	88.345358	-103.638098
00605	2666224	-9.809445	-0.144860	-0.253013				-0.003611	-0.000360	-0.002639				-151.911029	88.345205	-103.613371
00606	2666274	-9.803413	-0.150755	-0.254294				-0.001900	0.001188	-0.004334				-151.896840	88.344864	-103.600688
00607	2666324	-9.792679	-0.155712	-0.247404				-0.002813	-0.000348	-0.004696				-151.854917	88.344326	-103.557939
00608	2666374	-9.807392	-0.136944	-0.254378				-0.002304	0.005328	-0.001745				-151.882819	88.343591	-103.587112
00609	2666424	-9.809171	-0.122045	-0.266552				-0.004885	0.003995	0.000726				-151.909248	88.342713	-103.612133
00610	2666474	-9.812078	-0.136043	-0.268818				-0.002509	0.000310	-0.001901				-151.913119	88.342936	-103.617363
00611	2666524	-9.802855	-0.154400	-0.259781				-0.003984	-0.000557	-0.001837				-151.895423	88.342927	-103.598472
00612	2666574	-9.808781	-0.134255	-0.267398				0.000717	-0.000709	-0.005539				-151.861726	88.342451	-103.567250
00613	2666624	-9.822463	-0.128733	-0.259426				-0.001922	0.000159	-0.001259				-151.851956	88.342289	-103.556905
00614	2666674	-9.809049	-0.148110	-0.271977				-0.003140	0.000009	-0.001900				-151.854148	88.342821	-103.560145
00615	2666724	-9.804062	-0.155793	-0.255040				-0.005080	0.003021	0.001492				-151.882720	88.342107	-103.587344
00616	2666774	-9.809768	-0.136728	-0.255435				-0.005767	0.001196	-0.000090				-151.907211	88.342483	-103.612202
00617	2666824	-9.800819	-0.144767	-0.262445				-0.001014	0.001989	-0.000002				-151.916768	88.342110	-103.621406
00618	2666874	-9.811200	-0.132311	-0.263576				-0.003406	-0.001512	0.001237				-151.939533	88.342711	-103.645511
00619	2666924	-9.810371	-0.158722	-0.267669				0.000231	0.001343	0.004162				-151.981829	88.343133	-103.687792
00620	2666974	-9.820777	-0.130660	-0.259407				-0.005969	-0.001660	-0.001709				-151.979031	88.344079	-103.685240
00621	2667024	-9.807653	-0.142322	-0.278966				-0.004813	0.001300	-0.002916				-151.960767	88.343604	-103.665469
00622	2667074	-9.794506	-0.139893	-0.252810				-0.004138	-0.001785	-0.000688				-151.966337	88.343913	-103.672167
00623	2667124	-9.820257	-0.133557	-0.260311				-0.005227	0.005367	-0.002698				-151.968938	88.342105	-103.673318
00624	2667174	-9.831937	-0.138253	-0.249813				-0.003698	0.001520	-0.001825				-151.979089	88.342211	-103.684378
00625	2667224	-9.802588	-0.141493	-0.250923				-0.003823	0.001385	-0.001439				-151.973780	88.341729	-103.677948
00626	2667274	-9.793985	-0.128103	-0.284085				-0.003272	0.002134	-0.003845				-151.969729	88.341270	-103.674989
00627	2667324	-9.797780	-0.139575	-0.263363				-0.003483	-0.000159	-0.001192				-151.959572	88.341169	-103.663820
00628	2667374	-9.799174	-0.146795	-0.254992				-0.003678	-0.000098	-0.000970				-151.969063	88.341844	-103.674204
00629	2667424	-9.783893	-0.145080	-0.264470				-0.006506	0.002214	-0.001270				-151.969963	88.341079	-103.673260
00630	2667474	-9.804469	-0.155678	-0.266278				-0.003149	0.000369	-0.000612				-151.985321	88.341581	-103.689724
00631	2667524	-9.811051	-0.149366	-0.254236				-0.002155	0.001349	-0.002505				-151.970143	88.340818	-103.673965
00632	2667574	-9.811369	-0.138570	-0.262445				-0.006162	0.002576	-0.000848				-151.994486	88.340884	-103.698471
00633	2667624	-9.808641	-0.142180	-0.273847				-0.001513	-0.000671	-0.001524				-151.978578	88.340896	-103.682098
00634	2667674	-9.819848	-0.141089	-0.273365				-0.001511	0.001200	-0.002056				-151.984601	88.340654	-103.689870
00635	2667724	-9.810081	-0.146616	-0.263249				-0.006221	-0.001987	-0.002701				-151.953634	88.340384	-103.657314
00636	2667774	-9.814498	-0.133462	-0.268831				-0.002211	0.000186	-0.000682				-151.967944	88.341033	-103.672939
00637	2667824	-9.792916	-0.163451	-0.268937				-0.004579	0.000788	-0.003143				-151.945518	88.340325	-103.649233
00638	2667874	-9.811357	-0.143127	-0.255164				-0.002693	0.001378	-0.000001				-151.970636	88.340320	-103.675746
00639	2667924	-9.808651	-0.150427	-0.255482				-0.002269	0.002099	0.000483				-151.985115	88.339821	-103.689598
00640	2667974	-9.822946	-0.132439	-0.251593				-0.000665	0.003026	-0.001764				-152.001802	88.339577	-103.708070
00641	2668024	-9.802460	-0.129035	-0.259781				-0.001436	-0.000092	-0.003032				-151.975533	88.339329	-103.681309
00642	2668074	-9.807820	-0.138359	-0.258798				-0.001218	0.000232	-0.002063				-151.977028	88.339774	-103.684384
00643	2668124	-9.811494	-0.149567	-0.259917				-0.003650	-0.001200	-0.002515				-151.950538	88.339821	-103.656796
00644	2668174	-9.810955	-0.140141	-0.249106				-0.003071	0.005348	-0.000844				-151.986473	88.338897	-103.693905
00645	2668224	-9.807178	-0.151601	-0.259071				-0.000688	0.001768	-0.000612				-151.989779	88.338079	-103.697155
00646	2668274	-9.802353	-0.132168	-0.270341				-0.001049	0.001758	-0.001639				-152.001645	88.338169	-103.710664
00647	2668324	-9.803733	-0.136488	-0.270482				-0.004295	-0.002120	-0.003318				-151.964146	88.338147	-103.671971
00648	2668374	-9.782765	-0.144705	-0.255569				-0.002717	0.000761	-0.002155				-151.967709	88.338494	-103.676689
00649	2668424	-9.809758	-0.140843	-0.249468				-0.003801	0.001644	-0.001599				-151.962391	88.338010	-103.670209
00650	2668474	-9.818465	-0.138475	-0.270752				-0.004949	0.001759	-0.000761				-151.983146	88.338082	-103.691545
00651	2668524	-9.817450	-0.135599	-0.247474				-0.000738	-0.000016	-0.002165				-151.964623	88.337691	-103.672854
00652	2668574	-9.803320	-0.134642	-0.263564				-0.002304	0.000090	-0.000810				-151.976259	88.338357	-103.685785
00653	2668624	-9.818426	-0.130930	-0.254400				-0.001705	-0.000747	-0.001779				-151.957772	88.338386	-103.666758
00654	2668674	-9.799745	-0.139719	-0.253071				-0.002632	0.001144	-0.002120				-151.963291	88.338268	-103.673639
00655	2668724	-9.805571	-0.137317	-0.278677				-0.004886	-0.000510	-0.002379				-151.941686	88.338058	-103.650636
00656	2668774	-9.795419	-0.136376	-0.266476				-0.000886	0.000858	0.000024				-151.964243	88.337758	-103.675319
00657	2668824	-9.801628	-0.137470	-0.261154				-0.003184	-0.001448	0.000080				-151.959427	88.338214	-103.669545
00658	2668874	-9.807416	-0.136082	-0.253500				-0.003400	0.000066	-0.002924				-151.952713	88.338574	-103.663795
00659	2668924	-9.801055	-0.147030	-0.256922				-0.006465	-0.000145	-0.001124				-151.944200	88.338415	-103.653444
00660	2668974	-9.802799	-0.137477	-0.264082				-0.002202	-0.000268	-0.002094				-151.943521	88.338697	-103.654231
00661	2669024	-9.807771	-0.121936	-0.263403				0.000961	0.002150	-0.002636				-151.929873	88.337982	-103.640770
00662	2669074	-9.815263	-0.135536	-0.255752				-0.005627	0.005107	0.000989				-151.982228	88.337036	-103.693753
00663	2669124	-9.814560	-0.153575	-0.256385				-0.002743	0.001766	-0.001021				-151.982142	88.336377	-103.692916
00664	2669174	-9.817803	-0.132198	-0.274792				-0.002140	0.001162	0.001574				-152.019760	88.336971	-103.731924
00665	2669224	-9.802800	-0.151685	-0.236556				-0.008007	0.002924	-0.004309				-151.998093	88.335785	-103.707884
00666	2669274	-9.803362	-0.129607	-0.266515				-0.007936	-0.000204	-0.001857				-152.000629	88.336333	-103.710099
00667	2669324	-9.802230	-0.141858	-0.271435				-0.002810	-0.002313	-0.001465				-151.977816	88.336904	-103.686379
00668	2669374	-9.817751	-0.129316	-0.250883				-0.005709	0.001419	-0.000893				-151.996267	88.336675	-103.705419
00669	2669424	-9.823549	-0.121217	-0.253752				-0.002901	0.002863	0.000077				-152.011180	88.335751	-103.719612
00670	2669474	-9.800800	-0.144023	-0.266472				-0.003624	0.000454	0.000958				-152.040407	88.336768	-103.749661
00671	2669524	-9.812856	-0.143283	-0.284107				-0.004469	-0.001766	-0.003830				-152.000432	88.336892	-103.708290
00672	2669574	-9.821403	-0.135041	-0.264165				-0.001084	-0.000953	0.000433				-152.017753	88.337647	-103.727426
00673	2669624	-9.814083	-0.133198	-0.258116				-0.001691	0.003080	-0.000792				-152.025899	88.336648	-103.735144
00674	2669674	-9.781120	-0.155592	-0.268057				-0.006714	0.000658	-0.001214				-152.037693	88.337204	-103.746903
00675	2669724	-9.805226	-0.150454	-0.269863				-0.004479	0.001826	-0.001437				-152.034934	88.336529	-103.742866
00676	2669774	-9.788175	-0.166029	-0.262969				-0.004452	0.001924	-0.002690				-152.039464	88.336498	-103.748065
00677	2669824	-9.814640	-0.123558	-0.265276				-0.002632	0.001343	-0.001054				-152.037403	88.335933	-103.745285
00678	2669874	-9.807261	-0.145370	-0.258156				-0.003152	0.001831	0.002760				-152.088675	88.336202	-103.797837
00679	2669924	-9.818462	-0.137591	-0.272269				-0.002499	0.003064	-0.003137				-152.075960	88.335260	-103.784270
00680	2669974	-9.810894	-0.137796	-0.264822				-0.000270	0.003653	-0.002500				-152.089441	88.334186	-103.799929
00681	2670024	-9.823853	-0.134496	-0.254407				-0.003403	0.000501	0.000671				-152.098663	88.334139	-103.808189
00682	2670074	-9.812703	-0.145566	-0.264961				-0.003339	0.000439	0.001053				-152.128899	88.334425	-103.839675
00683	2670124	-9.803615	-0.143936	-0.274374				-0.007260	-0.001317	-0.000902				-152.116916	88.334996	-103.825426
00684	2670174	-9.814081	-0.134158	-0.256789				-0.003621	-0.002062	-0.002041				-152.108111	88.335540	-103.817750
00685	2670224	-9.790616	-0.152838	-0.239111				-0.000830	-0.005113	-0.000525				-152.080080	88.336905	-103.789398
00686	2670274	-9.802201	-0.134067	-0.252881				-0.004831	0.001860	-0.002468				-152.086290	88.336778	-103.796190
00687	2670324	-9.802878	-0.147897	-0.270787				-0.006089	-0.000174	-0.004590				-152.046995	88.336316	-103.755081
00688	2670374	-9.805365	-0.123992	-0.262232				-0.000614	0.003489	-0.001183				-152.071275	88.335960	-103.781192
00689	2670424	-9.819965	-0.133212	-0.231641				-0.004143	0.000452	-0.002313				-152.054228	88.335577	-103.762932
00690	2670474	-9.795695	-0.147460	-0.235941				-0.002372	0.003529	0.001516				-152.102473	88.335634	-103.812473
00691	2670524	-9.803863	-0.131387	-0.259307				-0.003330	0.000077	-0.001195				-152.093376	88.335445	-103.802417
00692	2670574	-9.788733	-0.138943	-0.265035				-0.005865	-0.002071	-0.002322				-152.082930	88.336094	-103.792397
00693	2670624	-9.818139	-0.135426	-0.252221				-0.004575	-0.002041	0.000562				-152.079665	88.336636	-103.787842
00694	2670674	-9.810016	-0.127469	-0.273836				-0.002299	-0.001327	-0.002327				-152.072611	88.337004	-103.782282
00695	2670724	-9.815666	-0.139320	-0.259568				-0.002923	0.002415	0.000229				-152.086544	88.336399	-103.795397
00696	2670774	-9.807971	-0.147977	-0.293335				-0.003899	0.003853	-0.000690				-152.117271	88.335885	-103.827052
00697	2670824	-9.821311	-0.147069	-0.256484				-0.001193	-0.002993	-0.002720				-152.080059	88.336272	-103.789486
00698	2670874	-9.809056	-0.131734	-0.265007				-0.004911	0.000704	0.003110				-152.129519	88.337306	-103.839499
00699	2670924	-9.794722	-0.141349	-0.254167				-0.004289	0.004102	-0.001524				-152.136445	88.335975	-103.845240
00700	2670974	-9.818451	-0.123840	-0.263362				-0.000808	0.002814	0.002185				-152.186833	88.335920	-103.897588
00701	2671024	-9.818518	-0.146660	-0.245590				-0.002000	0.001820	0.000095				-152.196456	88.335576	-103.906591
00702	2671074	-9.813042	-0.140759	-0.257840				-0.002518	0.002841	0.000329				-152.231040	88.335434	-103.942515
00703	2671124	-9.824816	-0.129662	-0.261816				-0.004616	-0.000750	-0.000391				-152.225449	88.335515	-103.935631
00704	2671174	-9.798179	-0.146714	-0.261980				-0.001246	-0.000077	-0.001811				-152.227529	88.336212	-103.939251
00705	2671224	-9.798843	-0.151442	-0.259595				-0.004330	0.001290	-0.001156				-152.224745	88.335652	-103.935264
00706	2671274	-9.809407	-0.139244	-0.270995				-0.001907	0.000660	0.000887				-152.254213	88.335970	-103.966359
00707	2671324	-9.806876	-0.143599	-0.286378				-0.005636	0.001914	-0.001499				-152.251247	88.335398	-103.961720
00708	2671374	-9.813807	-0.137709	-0.255620				0.000171	0.000890	0.000176				-152.274707	88.335966	-103.987186
00709	2671424	-9.805677	-0.132501	-0.270412				-0.003275	0.002404	-0.002689				-152.263264	88.335042	-103.974778
00710	2671474	-9.816473	-0.126800	-0.231888				-0.003692	-0.000644	-0.002289				-152.259252	88.335211	-103.971893
00711	2671524	-9.814812	-0.131197	-0.259716				-0.002787	-0.000875	0.000240				-152.257949	88.335593	-103.969729
00712	2671574	-9.815179	-0.138139	-0.264084				-0.006305	0.001898	-0.002041				-152.268708	88.335626	-103.980644
00713	2671624	-9.798003	-0.127471	-0.251671				-0.003684	0.001040	-0.003049				-152.247804	88.334969	-103.958669
00714	2671674	-9.830188	-0.108190	-0.245510				-0.005581	0.000198	-0.003236				-152.240511	88.334782	-103.951917
00715	2671724	-9.796179	-0.135000	-0.261757				-0.005443	-0.000086	-0.000741				-152.235494	88.334510	-103.945431
00716	2671774	-9.822397	-0.140525	-0.286065				-0.003340	0.002176	-0.003330				-152.234716	88.334371	-103.945637
00717	2671824	-9.802703	-0.143810	-0.267459				-0.004141	0.001358	-0.001088				-152.232784	88.334037	-103.942440
00718	2671874	-9.818525	-0.124882	-0.250208				-0.002543	0.002578	-0.002213				-152.244218	88.333232	-103.955432
00719	2671924	-9.803436	-0.137745	-0.277308				-0.000940	0.000410	-0.001166				-152.236134	88.333045	-103.947040
00720	2671974	-9.802773	-0.138888	-0.266306				-0.005429	0.002724	-0.001464				-152.255537	88.332636	-103.966984
00721	2672024	-9.805607	-0.142458	-0.261865				-0.003286	-0.001311	-0.000755				-152.243799	88.332755	-103.954360
00722	2672074	-9.795405	-0.136854	-0.267982				-0.005685	0.001587	-0.000572				-152.265953	88.333004	-103.976880
00723	2672124	-9.813154	-0.147226	-0.265491				-0.003089	0.001666	-0.000802				-152.267584	88.332347	-103.977692
00724	2672174	-9.819406	-0.126678	-0.257881				-0.004122	0.002744	-0.003517				-152.268266	88.332134	-103.979035
00725	2672224	-9.817742	-0.125894	-0.259435				-0.002163	-0.000422	-0.002643				-152.243954	88.332029	-103.954024
00726	2672274	-9.814322	-0.145967	-0.271542				-0.008091	0.002874	-0.000528				-152.273023	88.331812	-103.982812
00727	2672324	-9.818732	-0.141997	-0.259919				-0.003436	0.001402	-0.000317				-152.277590	88.331337	-103.986437
00728	2672374	-9.828027	-0.119315	-0.265227				-0.006440	0.000955	-0.004676				-152.260820	88.330945	-103.969882
00729	2672424	-9.817480	-0.137233	-0.278000				-0.004767	0.005063	-0.001292				-152.273670	88.329546	-103.981347
00730	2672474	-9.829594	-0.129272	-0.260765				-0.001016	-0.000109	-0.002003				-152.274429	88.330060	-103.983737
00731	2672524	-9.821883	-0.151987	-0.269281				-0.000016	0.000950	0.001337				-152.290671	88.329774	-104.000095
00732	2672574	-9.817609	-0.140717	-0.251437				-0.000053	0.005856	-0.002966				-152.309429	88.328498	-104.020890
00733	2672624	-9.807704	-0.150825	-0.252287				-0.002313	-0.000133	-0.005432				-152.262198	88.327677	-103.973039
00734	2672674	-9.810449	-0.138996	-0.256603				-0.005569	0.000141	0.000805				-152.289828	88.328161	-104.001218
00735	2672724	-9.814354	-0.136823	-0.284105				-0.005656	-0.002291	0.000050				-152.281481	88.328650	-103.991292
00736	2672774	-9.796826	-0.125396	-0.253557				-0.001857	0.001270	0.001280				-152.316473	88.329500	-104.027508
00737	2672824	-9.802467	-0.166251	-0.261158				-0.004684	-0.001919	-0.002324				-152.288855	88.329437	-103.998654
00738	2672874	-9.823128	-0.134372	-0.256538				-0.001656	0.002656	-0.003655				-152.287825	88.329155	-103.999037
00739	2672924	-9.807480	-0.134310	-0.245306				-0.001503	-0.001249	-0.002912				-152.257417	88.329031	-103.968211
00740	2672974	-9.782955	-0.149702	-0.253348				-0.004484	-0.000107	-0.001515				-152.262599	88.329707	-103.974018
00741	2673024	-9.811016	-0.148704	-0.261458				-0.001068	0.001673	0.000513				-152.275126	88.329463	-103.986188
00742	2673074	-9.799054	-0.157043	-0.252632				-0.003060	0.000665	-0.001774				-152.281357	88.329081	-103.993883
00743	2673124	-9.793115	-0.134164	-0.258370				-0.002173	-0.000102	-0.002486				-152.259656	88.328831	-103.971525
00744	2673174	-9.804296	-0.130536	-0.266412				-0.000308	-0.003195	0.000706				-152.269027	88.330402	-103.982804
00745	2673224	-9.802835	-0.139717	-0.254763				-0.001840	0.001727	-0.000295				-152.274695	88.330035	-103.987893
00746	2673274	-9.798369	-0.139721	-0.282568				-0.004786	0.001641	-0.000184				-152.300194	88.330215	-104.014061
00747	2673324	-9.825682	-0.137754	-0.259218				-0.001992	0.001629	0.002084				-152.326473	88.329805	-104.039911
00748	2673374	-9.806798	-0.130156	-0.248233				-0.004958	-0.001114	-0.000492				-152.336475	88.330929	-104.050375
00749	2673424	-9.817852	-0.125767	-0.280798				-0.003396	0.002178	-0.000604				-152.342016	88.330433	-104.054881
00750	2673474	-9.807774	-0.147966	-0.246783				-0.006139	0.000969	0.000710				-152.372076	88.330683	-104.085312
00751	2673524	-9.810637	-0.125869	-0.253520				-0.000495	0.000483	-0.002290				-152.354553	88.330484	-104.067529
00752	2673574	-9.799003	-0.143368	-0.250648				-0.001478	-0.000863	-0.002330				-152.349331	88.330530	-104.064156
00753	2673624	-9.811832	-0.139236	-0.263979				-0.004403	-0.002526	-0.000693				-152.332844	88.331044	-104.046421
00754	2673674	-9.820902	-0.102459	-0.257515				-0.001963	0.001362	-0.003050				-152.330766	88.331068	-104.045726
00755	2673724	-9.815877	-0.136295	-0.269743				-0.003956	-0.001092	0.001752				-152.342033	88.331985	-104.055658
00756	2673774	-9.807507	-0.141547	-0.265468				-0.000244	-0.001416	-0.001500				-152.340627	88.332213	-104.056458
00757	2673824	-9.796291	-0.138092	-0.276665				-0.006466	0.003164	-0.000244				-152.354940	88.331152	-104.069037
00758	2673874	-9.817400	-0.139904	-0.286838				-0.004487	0.002255	-0.001214				-152.374192	88.331440	-104.088851
00759	2673924	-9.828859	-0.110260	-0.264379				-0.006293	-0.001653	-0.001673				-152.353955	88.331432	-104.066907
00760	2673974	-9.812990	-0.122433	-0.263279				-0.003595	-0.001804	-0.001527				-152.351349	88.332422	-104.065254
00761	2674024	-9.809301	-0.126465	-0.275374				-0.002090	0.001296	-0.003246				-152.329448	88.331454	-104.042850
00762	2674074	-9.830667	-0.123529	-0.254026				-0.007697	-0.002816	-0.003154				-152.309557	88.332323	-104.022797
00763	2674124	-9.815300	-0.134312	-0.252066				-0.003694	0.002465	-0.002369				-152.301049	88.331313	-104.013263
00764	2674174	-9.816563	-0.139437	-0.268809				-0.007024	0.000340	-0.001246				-152.311846	88.331819	-104.024025
00765	2674224	-9.824360	-0.127350	-0.264047				-0.002545	-0.004762	-0.002567				-152.268593	88.332537	-103.980097
00766	2674274	-9.812789	-0.141978	-0.257306				-0.002995	0.000472	-0.001131				-152.279754	88.332523	-103.992634
00767	2674324	-9.811536	-0.126500	-0.260243				-0.004559	0.002415	-0.002398				-152.271094	88.331530	-103.982696
00768	2674374	-9.805949	-0.135512	-0.259703				-0.008282	-0.000529	-0.001986				-152.271124	88.332731	-103.982022
00769	2674424	-9.789345	-0.148927	-0.261056				-0.007794	0.000554	-0.000317				-152.273077	88.332599	-103.981722
00770	2674474	-9.808727	-0.144831	-0.254218				-0.005171	0.000434	-0.001191				-152.284498	88.332623	-103.993836
00771	2674524	-9.800490	-0.136348	-0.256109				-0.008297	-0.003112	-0.002035				-152.254783	88.333198	-103.961700
00772	2674574	-9.797474	-0.142746	-0.268735				-0.001740	0.001563	-0.000872				-152.272991	88.333292	-103.981471
00773	2674624	-9.803100	-0.148321	-0.270325				-0.001565	0.000948	-0.000843				-152.270625	88.333059	-103.978595
00774	2674674	-9.806260	-0.144978	-0.266569				-0.005281	0.003215	-0.000116				-152.303682	88.332589	-104.012319
00775	2674724	-9.818277	-0.137522	-0.264804				0.001464	0.003225	-0.005233				-152.272593	88.330928	-103.981705
00776	2674774	-9.800611	-0.122240	-0.265048				-0.001901	0.000521	-0.000231				-152.291128	88.331341	-104.001764
00777	2674824	-9.777006	-0.145772	-0.260572				-0.001749	-0.001510	-0.001950				-152.267751	88.331290	-103.977962
00778	2674874	-9.791860	-0.143697	-0.249881				-0.004590	-0.002493	0.000206				-152.277218	88.332854	-103.988019
00779	2674924	-9.791288	-0.140583	-0.271583				-0.004287	-0.000168	-0.002190				-152.258722	88.332193	-103.968491
00780	2674974	-9.808807	-0.138356	-0.253964				-0.003679	-0.001120	-0.001009				-152.263940	88.333489	-103.974422
00781	2675024	-9.819029	-0.141227	-0.250865				-0.008572	0.001731	-0.001492				-152.261393	88.332832	-103.969425
00782	2675074	-9.798718	-0.156283	-0.271116				-0.004315	0.002746	-0.002368				-152.272144	88.332267	-103.981029
00783	2675124	-9.812678	-0.137361	-0.246113				-0.002822	0.001218	-0.000517				-152.274087	88.332065	-103.982080
00784	2675174	-9.804179	-0.146452	-0.253502				-0.004821	-0.000497	-0.001772				-152.275861	88.332158	-103.984688
00785	2675224	-9.792961	-0.147399	-0.257174				-0.005215	0.000853	-0.001924				-152.264347	88.331751	-103.971642
00786	2675274	-9.829600	-0.136742	-0.245224				-0.002414	-0.000881	-0.005563				-152.230830	88.331864	-103.939434
00787	2675324	-9.816191	-0.132820	-0.265497				-0.003949	0.001522	-0.001090				-152.229405	88.331219	-103.936935
00788	2675374	-9.808612	-0.130449	-0.262887				-0.005709	0.001298	-0.001150				-152.244948	88.331211	-103.952927
00789	2675424	-9.825850	-0.106817	-0.256419				-0.003270	0.004446	-0.001328				-152.254682	88.329903	-103.961724
00790	2675474	-9.806669	-0.135308	-0.259343				-0.003309	0.002141	-0.004261				-152.246235	88.329532	-103.954300
00791	2675524	-9.821711	-0.128918	-0.266134				-0.006174	0.000834	-0.002304				-152.231845	88.328813	-103.938236
00792	2675574	-9.801290	-0.145337	-0.262466				-0.006618	0.001507	-0.002786				-152.234245	88.329008	-103.940591
00793	2675624	-9.804966	-0.137263	-0.260992				-0.005774	0.001495	-0.000250				-152.240557	88.328448	-103.945326
00794	2675674	-9.807374	-0.152652	-0.263614				-0.003926	0.001981	0.002088				-152.287035	88.328734	-103.992783
00795	2675724	-9.811297	-0.142023	-0.267162				-0.002378	0.000487	-0.000648				-152.284133	88.328636	-103.989137
00796	2675774	-9.816978	-0.145631	-0.265975				-0.006074	0.001909	-0.000443				-152.308810	88.328422	-104.014243
00797	2675824	-9.821883	-0.137781	-0.258918				-0.005350	-0.000960	-0.001258				-152.294957	88.328534	-103.998835
00798	2675874	-9.817122	-0.119932	-0.255664				-0.006974	0.002184	0.001364				-152.336700	88.328710	-104.040643
00799	2675924	-9.817065	-0.123780	-0.257086				-0.006901	0.000565	-0.002466				-152.319778	88.328459	-104.021626
00800	2675974	-9.789073	-0.147464	-0.269478				-0.002626	0.001997	-0.002246				-152.328113	88.328055	-104.031310
00801	2676024	-9.809876	-0.124278	-0.263332				-0.008810	-0.000794	-0.000606				-152.321747	88.328210	-104.022404
00802	2676074	-9.790372	-0.147740	-0.251164				-0.000053	-0.001451	-0.002211				-152.313885	88.328803	-104.016577
00803	2676124	-9.815435	-0.125065	-0.248388				-0.005826	-0.001395	-0.003827				-152.275844	88.328662	-103.976845
00804	2676174	-9.799639	-0.135502	-0.279613				-0.003941	-0.003032	-0.000700				-152.274594	88.330042	-103.976435
00805	2676224	-9.817912	-0.133760	-0.254313				-0.005385	0.005377	-0.002027				-152.283383	88.328188	-103.983799
00806	2676274	-9.801346	-0.141280	-0.260731				-0.004454	-0.000976	-0.001296				-152.286623	88.328730	-103.987858
00807	2676324	-9.800872	-0.158080	-0.266466				-0.001645	-0.000668	-0.001783				-152.268760	88.328482	-103.969605
00808	2676374	-9.793090	-0.137203	-0.256175				-0.003739	-0.000218	-0.001486				-152.273773	88.329316	-103.975382
00809	2676424	-9.798513	-0.149999	-0.278038				-0.005063	0.001246	-0.000129				-152.279812	88.328907	-103.980010
00810	2676474	-9.809329	-0.154519	-0.253188				0.000193	-0.001827	0.000744				-152.295665	88.330167	-103.997893
00811	2676524	-9.804551	-0.136972	-0.252099				-0.007073	-0.000179	-0.001699				-152.282100	88.330068	-103.982257
00812	2676574	-9.798460	-0.145805	-0.256470				0.000121	0.000334	-0.001332				-152.289681	88.330818	-103.991719
00813	2676624	-9.803905	-0.145845	-0.260550				-0.005481	0.003373	-0.001942				-152.289664	88.329393	-103.990286
00814	2676674	-9.800572	-0.127865	-0.259582				-0.005788	0.002746	-0.004063				-152.286810	88.328583	-103.987867
00815	2676724	-9.795553	-0.150822	-0.253688				-0.008257	0.003935	-0.001065				-152.298070	88.327153	-103.996910
00816	2676774	-9.808877	-0.140193	-0.277693				-0.000697	-0.000101	-0.000881				-152.307891	88.328093	-104.008368
00817	2676824	-9.801324	-0.127673	-0.254253				-0.005364	-0.000510	-0.002512				-152.285153	88.327944	-103.984056
00818	2676874	-9.812436	-0.132990	-0.256631				-0.003941	0.002069	-0.002950				-152.288208	88.327503	-103.988078
00819	2676924	-9.815477	-0.153382	-0.262088				-0.002947	-0.000014	-0.001967				-152.271848	88.327401	-103.970785
00820	2676974	-9.808704	-0.141357	-0.264778				-0.001519	0.001463	-0.003210				-152.269334	88.327045	-103.969912
00821	2677024	-9.817294	-0.130361	-0.245783				-0.000466	0.000712	-0.001649				-152.258447	88.326540	-103.958943
00822	2677074	-9.824508	-0.134784	-0.263342				-0.003301	0.003774	0.004154				-152.330624	88.326619	-104.032317
00823	2677124	-9.818150	-0.128646	-0.263474				-0.004039	-0.001644	0.000724				-152.330519	88.327123	-104.031056
00824	2677174	-9.809015	-0.135351	-0.264732				-0.002688	-0.001038	0.000017				-152.344756	88.328137	-104.046486
00825	2677224	-9.814981	-0.128228	-0.277490				-0.001774	0.000296	-0.003219				-152.318624	88.327726	-104.019788
00826	2677274	-9.814863	-0.126210	-0.261409				-0.005531	0.000982	0.000518				-152.346977	88.328112	-104.048609
00827	2677324	-9.810570	-0.121138	-0.273208				-0.005109	0.000398	-0.004078				-152.315073	88.327584	-104.015172
00828	2677374	-9.809786	-0.147008	-0.271731				-0.004502	0.000378	-0.003565				-152.304864	88.327403	-104.005802
00829	2677424	-9.817445	-0.134937	-0.250384				-0.005090	-0.000820	0.001562				-152.316314	88.327502	-104.015951
00830	2677474	-9.823127	-0.130831	-0.263774				-0.002538	0.001284	-0.001445				-152.328115	88.328056	-104.028840
00831	2677524	-9.813753	-0.136629	-0.266057				-0.001144	0.003964	-0.001818				-152.330696	88.326929	-104.031037
00832	2677574	-9.804979	-0.133667	-0.265781				-0.007384	0.001756	-0.000246				-152.356338	88.326841	-104.056705
00833	2677624	-9.819186	-0.134567	-0.277961				-0.002926	0.001741	0.002120				-152.383820	88.326602	-104.083400
00834	2677674	-9.814519	-0.150399	-0.267737				-0.004917	0.003674	-0.001204				-152.409271	88.325940	-104.109542
00835	2677724	-9.800446	-0.138314	-0.259734				-0.001775	0.000227	-0.004732				-152.370138	88.325133	-104.069943
00836	2677774	-9.796681	-0.136157	-0.255595				-0.002090	0.004266	-0.004128				-152.371908	88.324015	-104.073156
00837	2677824	-9.801080	-0.134431	-0.279031				-0.006567	0.003156	-0.002327				-152.368058	88.322965	-104.067393
00838	2677874	-9.803694	-0.138615	-0.272916				-0.005883	-0.000554	-0.004048				-152.349500	88.323315	-104.049109
00839	2677924	-9.800560	-0.141501	-0.271741				-0.004041	0.000557	0.001475				-152.366222	88.323201	-104.064767
00840	2677974	-9.806039	-0.152958	-0.248539				-0.000440	0.001875	-0.001287				-152.381235	88.323675	-104.081448
00841	2678024	-9.826907	-0.130484	-0.269491				-0.004819	0.001901	0.001519				-152.404474	88.323438	-104.103291
00842	2678074	-9.816285	-0.139391	-0.275328				-0.002653	0.001930	-0.001958				-152.415150	88.322882	-104.115448
00843	2678124	-9.811215	-0.135108	-0.256339				-0.003005	-0.001211	-0.001527				-152.397111	88.323203	-104.096437
00844	2678174	-9.817533	-0.131674	-0.281304				-0.004636	0.002737	-0.002586				-152.406037	88.322573	-104.106170
00845	2678224	-9.810493	-0.140683	-0.245664				-0.004688	0.004578	-0.001808				-152.412336	88.321086	-104.111172
00846	2678274	-9.806513	-0.140997	-0.272185				-0.003937	-0.001130	-0.002386				-152.405975	88.321376	-104.105850
00847	2678324	-9.815087	-0.137328	-0.280758				-0.004644	-0.001978	-0.000785				-152.391452	88.321942	-104.089908
00848	2678374	-9.820930	-0.119765	-0.256777				-0.002415	-0.000554	-0.001103				-152.398150	88.322693	-104.097863
00849	2678424	-9.823606	-0.133336	-0.258726				-0.000245	0.000747	-0.001904				-152.385354	88.322324	-104.084951
00850	2678474	-9.795257	-0.148457	-0.267504				-0.003862	-0.000287	0.000181				-152.404540	88.322792	-104.105204
00851	2678524	-9.812864	-0.139379	-0.250338				-0.005186	-0.000954	0.000252				-152.403830	88.323116	-104.102985
00852	2678574	-9.803029	-0.120036	-0.262643				-0.002523	0.000439	-0.006140				-152.370569	88.322830	-104.070973
00853	2678624	-9.805599	-0.148371	-0.251403				-0.001779	0.002790	-0.001504				-152.370543	88.321981	-104.070412
00854	2678674	-9.809538	-0.140394	-0.247203				-0.006107	-0.003366	-0.001143				-152.365300	88.323428	-104.065364
00855	2678724	-9.804610	-0.112932	-0.251651				-0.001349	0.001208	-0.001320				-152.359607	88.323029	-104.059237
00856	2678774	-9.796038	-0.149382	-0.255927				-0.001311	-0.001957	-0.000413				-152.365535	88.323455	-104.067124
00857	2678824	-9.806883	-0.137912	-0.257597				-0.004109	0.000954	0.005837				-152.421633	88.324131	-104.121999
00858	2678874	-9.814083	-0.142351	-0.278473				-0.008446	0.001702	-0.002422				-152.428823	88.323996	-104.128801
00859	2678924	-9.792040	-0.137052	-0.272790				-0.007994	0.001413	-0.003805				-152.404369	88.323089	-104.102065
00860	2678974	-9.796510	-0.123537	-0.270797				-0.005021	-0.002410	-0.002231				-152.393695	88.323871	-104.092039
00861	2679024	-9.802278	-0.136634	-0.274314				-0.003608	-0.003681	-0.004713				-152.336877	88.324311	-104.034096
00862	2679074	-9.814771	-0.131702	-0.266432				-0.005558	0.001621	-0.001949				-152.346979	88.324060	-104.044751
00863	2679124	-9.788619	-0.148569	-0.263443				-0.002614	-0.000032	0.002201				-152.366619	88.324844	-104.063405
00864	2679174	-9.809162	-0.119625	-0.272960				-0.002520	0.000738	-0.001131				-152.379424	88.324661	-104.077752
00865	2679224	-9.815449	-0.129847	-0.275548				-0.000931	0.002351	-0.001511				-152.377353	88.323774	-104.075466
00866	2679274	-9.810522	-0.131440	-0.260435				-0.005248	0.000112	0.000736				-152.403460	88.324805	-104.101920
00867	2679324	-9.803880	-0.115165	-0.250197				-0.002585	0.000802	-0.001705				-152.393032	88.324256	-104.090809
00868	2679374	-9.814267	-0.135211	-0.263313				-0.001554	0.000692	-0.000396				-152.411231	88.324904	-104.110439
00869	2679424	-9.799457	-0.140486	-0.260561				-0.003635	0.002263	-0.006539				-152.366123	88.323462	-104.064268
00870	2679474	-9.828043	-0.139443	-0.260390				-0.002483	0.001714	-0.000608				-152.387320	88.323340	-104.086912
00871	2679524	-9.806518	-0.147099	-0.260731				-0.003759	0.001425	-0.002310				-152.374690	88.322708	-104.073185
00872	2679574	-9.797615	-0.149908	-0.269591				-0.007977	-0.001169	-0.002697				-152.366006	88.323263	-104.064227
00873	2679624	-9.816721	-0.132758	-0.256138				-0.002976	0.003356	0.000682				-152.387879	88.322292	-104.085360
00874	2679674	-9.798099	-0.136682	-0.256927				-0.006951	0.000717	-0.005868				-152.360371	88.321762	-104.057947
00875	2679724	-9.807500	-0.146669	-0.255237				-0.005338	0.001729	-0.000671				-152.363951	88.321184	-104.060026
00876	2679774	-9.813116	-0.130788	-0.266298				-0.002763	0.004351	-0.004061				-152.367060	88.320531	-104.064151
00877	2679824	-9.803764	-0.152784	-0.270500				-0.003908	-0.000902	0.000148				-152.365267	88.320663	-104.061293
00878	2679874	-9.787672	-0.152404	-0.255064				-0.004151	0.000599	-0.003278				-152.358706	88.320614	-104.055621
00879	2679924	-9.793164	-0.143889	-0.269448				-0.000796	0.003209	-0.001989				-152.356526	88.319233	-104.053367
00880	2679974	-9.822959	-0.130631	-0.252919				0.001243	-0.001207	0.002384				-152.389098	88.320591	-104.088256
00881	2680024	-9.827514	-0.126275	-0.257048				-0.003384	-0.000199	-0.002286				-152.369390	88.320307	-104.067583
00882	2680074	-9.801882	-0.136499	-0.261457				-0.004657	0.000787	0.000259				-152.394698	88.320914	-104.093506
00883	2680124	-9.799656	-0.145317	-0.256681				-0.002231	0.000957	-0.000708				-152.393500	88.320482	-104.091711
00884	2680174	-9.808836	-0.136290	-0.252598				0.000531	0.000778	-0.000235				-152.412711	88.320913	-104.113083
00885	2680224	-9.793768	-0.150219	-0.275184				-0.001950	0.001087	-0.001705				-152.403426	88.320372	-104.103258
00886	2680274	-9.807086	-0.124343	-0.252092				-0.001031	0.001493	0.000221				-152.430120	88.320809	-104.131582
00887	2680324	-9.803161	-0.148934	-0.261594				-0.001388	-0.003756	-0.002853				-152.388772	88.321345	-104.089837
00888	2680374	-9.794138	-0.152535	-0.249240				0.000639	0.000325	-0.000530				-152.403303	88.321879	-104.106560
00889	2680424	-9.807294	-0.148020	-0.248547				-0.005662	0.002927	-0.003675				-152.386504	88.320538	-104.088186
00890	2680474	-9.808594	-0.129247	-0.269510				-0.001101	0.000323	-0.003058				-152.379814	88.320440	-104.083310
00891	2680524	-9.797081	-0.158015	-0.262422				-0.004520	-0.001733	-0.000337				-152.370404	88.320833	-104.072602
00892	2680574	-9.800540	-0.139805	-0.240631				-0.003301	0.002161	-0.003620				-152.367775	88.320252	-104.071123
00893	2680624	-9.792041	-0.136220	-0.275464				-0.003070	0.002104	-0.001603				-152.364292	88.319457	-104.066783
00894	2680674	-9.808522	-0.137790	-0.262666				-0.007831	0.002633	-0.002159				-152.377356	88.319439	-104.079476
00895	2680724	-9.818335	-0.136591	-0.258057				-0.001936	0.002672	-0.002563				-152.367821	88.318422	-104.069382
00896	2680774	-9.793782	-0.156379	-0.261300				-0.005504	0.001930	-0.002269				-152.376174	88.318480	-104.078070
00897	2680824	-9.815228	-0.153745	-0.262736				-0.004173	-0.001664	-0.001007				-152.360893	88.318775	-104.061584
00898	2680874	-9.801024	-0.135999	-0.247087				-0.002126	-0.000338	-0.000907				-152.370844	88.318420	-104.073399
00899	2680924	-9.812699	-0.124738	-0.267962				-0.003441	0.003710	-0.002389				-152.368040	88.317331	-104.069523
00900	2680974	-9.792047	-0.145319	-0.254533				-0.003291	-0.000132	0.000057				-152.386362	88.317924	-104.088952
00901	2681024	-9.789257	-0.157772	-0.257686				-0.004607	-0.000155	-0.001901				-152.370484	88.317598	-104.071800
00902	2681074	-9.818893	-0.129919	-0.256899				-0.005851	0.002862	-0.002259				-152.383383	88.317717	-104.084779
00903	2681124	-9.809492	-0.131252	-0.273623				-0.000533	-0.000277	-0.002099				-152.364074	88.317565	-104.065280
00904	2681174	-9.802159	-0.138138	-0.250873				-0.003293	-0.001103	-0.001296				-152.366712	88.318221	-104.068997
00905	2681224	-9.805989	-0.147231	-0.267695				-0.005721	0.001663	-0.002585				-152.353304	88.317508	-104.053924
00906	2681274	-9.803955	-0.134749	-0.274804				-0.002940	-0.003295	-0.002174				-152.338356	88.318572	-104.040175
00907	2681324	-9.798543	-0.136433	-0.261436				-0.006524	-0.001023	0.000700				-152.341443	88.318724	-104.041502
00908	2681374	-9.812821	-0.149905	-0.275491				0.000153	-0.000491	0.000364				-152.360150	88.319616	-104.062239
00909	2681424	-9.838070	-0.148685	-0.276699				-0.002240	0.002114	-0.002370				-152.350012	88.318812	-104.051430
00910	2681474	-9.810957	-0.154725	-0.259196				-0.002811	0.000844	-0.002023				-152.354631	88.319041	-104.057209
00911	2681524	-9.815969	-0.148040	-0.269496				-0.003749	-0.001116	-0.004116				-152.315111	88.318811	-104.016578
00912	2681574	-9.831870	-0.125511	-0.285977				-0.004046	-0.000735	-0.004145				-152.294998	88.318855	-103.997430
00913	2681624	-9.828004	-0.139009	-0.267255				-0.003837	-0.001473	-0.004372				-152.251511	88.318923	-103.952693
00914	2681674	-9.805513	-0.143986	-0.274199				-0.002275	0.002316	-0.000542				-152.275937	88.318410	-103.978752
00915	2681724	-9.798260	-0.146041	-0.250254				-0.003479	0.001575	-0.004007				-152.249761	88.317486	-103.951561
00916	2681774	-9.808942	-0.139142	-0.269121				-0.001459	0.001775	-0.001641				-152.261909	88.317135	-103.965469
00917	2681824	-9.812412	-0.148198	-0.267012				-0.006525	0.004049	-0.000618				-152.276479	88.316339	-103.978023
00918	2681874	-9.808957	-0.123315	-0.259785				-0.001638	0.000481	0.000413				-152.300957	88.316526	-104.004255
00919	2681924	-9.787318	-0.157978	-0.261308				-0.010044	0.000685	-0.001113				-152.297475	88.316283	-103.997857
00920	2681974	-9.801264	-0.143768	-0.268621				-0.006776	0.000615	-0.001501				-152.306452	88.316676	-104.006844
00921	2682024	-9.800991	-0.150745	-0.260491				-0.003146	0.001454	-0.001217				-152.303242	88.316361	-104.002618
00922	2682074	-9.798064	-0.139369	-0.255770				-0.000790	0.001181	0.002268				-152.346253	88.316617	-104.047642
00923	2682124	-9.812609	-0.140433	-0.251280				-0.004430	-0.002901	-0.002714				-152.311020	88.317096	-104.011073
00924	2682174	-9.827671	-0.135862	-0.251531				-0.003494	0.001286	-0.002180				-152.315933	88.316951	-104.017081
00925	2682224	-9.806123	-0.157432	-0.264237				-0.004771	-0.001901	0.000563				-152.313778	88.317466	-104.013575
00926	2682274	-9.821585	-0.144985	-0.254003				-0.000705	0.002371	-0.001863				-152.326438	88.317326	-104.028010
00927	2682324	-9.818691	-0.146563	-0.256226				-0.006553	-0.003585	-0.002550				-152.289869	88.317988	-103.989505
00928	2682374	-9.812537	-0.140160	-0.262654				-0.001600	0.002228	0.000578				-152.322754	88.317850	-104.024071
00929	2682424	-9.818209	-0.143363	-0.263030				-0.003252	-0.001422	-0.000593				-152.312119	88.318010	-104.012563
00930	2682474	-9.799063	-0.146129	-0.274611				-0.003292	-0.001299	-0.004286				-152.287902	88.318773	-103.989236
00931	2682524	-9.803896	-0.143275	-0.268426				-0.002303	0.002346	0.001319				-152.310611	88.318518	-104.011215
00932	2682574	-9.819592	-0.144970	-0.267560				-0.006533	0.000101	-0.000991				-152.321999	88.318397	-104.023031
00933	2682624	-9.812036	-0.128476	-0.252538				-0.004046	0.000697	-0.000288				-152.323589	88.318400	-104.023358
00934	2682674	-9.797103	-0.130117	-0.276601				-0.005797	-0.000077	-0.002407				-152.321961	88.318484	-104.022174
00935	2682724	-9.803288	-0.160349	-0.254348				-0.001863	0.003552	0.000136				-152.339742	88.317548	-104.039458
00936	2682774	-9.815986	-0.150777	-0.262348				-0.003850	0.001311	-0.002337				-152.344249	88.317463	-104.044939
00937	2682824	-9.819117	-0.127747	-0.264687				-0.006928	-0.000849	-0.004169				-152.306449	88.317251	-104.005072
00938	2682874	-9.800973	-0.132049	-0.263092				-0.003425	-0.000174	-0.004851				-152.282300	88.317121	-103.982022
00939	2682924	-9.818278	-0.138209	-0.262796				-0.004395	-0.001898	-0.003413				-152.245423	88.316993	-103.943945
00940	2682974	-9.824042	-0.124374	-0.284508				-0.004096	-0.002021	-0.001422				-152.243179	88.318097	-103.942463
00941	2683024	-9.804003	-0.141428	-0.254208				-0.003070	-0.001063	-0.000238				-152.237365	88.318347	-103.935760
00942	2683074	-9.796921	-0.135926	-0.255077				-0.006627	0.003004	-0.001843				-152.253787	88.317969	-103.952299
00943	2683124	-9.805775	-0.150139	-0.259252				-0.000840	-0.002839	-0.003621				-152.209835	88.318267	-103.908057
00944	2683174	-9.799333	-0.141220	-0.279177				-0.004012	0.000338	-0.001220				-152.219510	88.318987	-103.918409
00945	2683224	-9.811690	-0.132391	-0.262428				-0.003111	0.002391	-0.001884				-152.215027	88.317941	-103.913131
00946	2683274	-9.808747	-0.134346	-0.272624				-0.003906	-0.002047	-0.001945				-152.207823	88.318921	-103.906783
00947	2683324	-9.820004	-0.119122	-0.253518				-0.004382	0.003178	-0.002072				-152.205878	88.317682	-103.903661
00948	2683374	-9.808750	-0.145105	-0.249682				-0.001944	0.001062	0.000574				-152.233701	88.317778	-103.933128
00949	2683424	-9.812701	-0.132114	-0.253214				-0.009549	-0.001895	-0.002344				-152.207766	88.317969	-103.904435
00950	2683474	-9.802340	-0.135008	-0.267008				-0.003153	0.001620	-0.001249				-152.222971	88.317772	-103.920858
00951	2683524	-9.817060	-0.135098	-0.273293				-0.004340	-0.002477	-0.001396				-152.200972	88.318333	-103.897547
00952	2683574	-9.797991	-0.151921	-0.280387				-0.006012	0.000592	-0.003653				-152.191778	88.318696	-103.888490
00953	2683624	-9.793883	-0.146122	-0.264356				-0.003324	0.001065	-0.000580				-152.192697	88.317846	-103.888705
00954	2683674	-9.802302	-0.137612	-0.268146				-0.005922	-0.000984	-0.001096				-152.198085	88.318512	-103.894455
00955	2683724	-9.823065	-0.120991	-0.255631				-0.004875	0.002590	-0.000690				-152.204881	88.318168	-103.899659
00956	2683774	-9.830579	-0.130910	-0.252938				-0.002200	0.000729	-0.002636				-152.204111	88.317943	-103.900416
00957	2683824	-9.818443	-0.134152	-0.244994				-0.004393	-0.001962	-0.002834				-152.171860	88.318279	-103.866785
00958	2683874	-9.787940	-0.143489	-0.267087				-0.003537	0.001474	-0.003562				-152.166481	88.318047	-103.862397
00959	2683924	-9.800965	-0.152199	-0.261559				-0.003863	0.003967	-0.001010				-152.176924	88.317333	-103.871525
00960	2683974	-9.818217	-0.146320	-0.257332				-0.003672	0.003836	-0.002483				-152.192012	88.315923	-103.887946
00961	2684024	-9.807286	-0.156306	-0.270232				-0.006314	-0.001194	-0.005683				-152.139420	88.315567	-103.833469
00962	2684074	-9.813333	-0.138185	-0.254265				-0.002367	0.002314	0.000199				-152.170229	88.315535	-103.865686
00963	2684124	-9.805814	-0.140765	-0.270259				-0.004413	-0.001026	-0.000460				-152.162979	88.315693	-103.857188
00964	2684174	-9.809533	-0.132363	-0.264803				-0.005758	-0.000176	-0.003015				-152.155187	88.316350	-103.849559
00965	2684224	-9.799600	-0.141722	-0.272500				-0.000224	-0.000688	0.000526				-152.156623	88.316679	-103.850891
00966	2684274	-9.807932	-0.131329	-0.255924				-0.005065	0.001159	-0.004071				-152.146051	88.315984	-103.841146
00967	2684324	-9.812387	-0.137239	-0.254217				-0.004309	-0.000249	-0.000675				-152.140201	88.315924	-103.834074
00968	2684374	-9.799475	-0.136681	-0.264583				-0.002781	0.000235	-0.000202				-152.157890	88.316750	-103.852846
00969	2684424	-9.808480	-0.138614	-0.267908				-0.005215	0.002228	-0.000435				-152.165772	88.316206	-103.859192
00970	2684474	-9.818113	-0.137589	-0.252257				-0.003061	0.000679	-0.002341				-152.167730	88.315815	-103.862576
00971	2684524	-9.814282	-0.127710	-0.275611				-0.002766	0.002692	-0.001560				-152.167606	88.314741	-103.861746
00972	2684574	-9.804933	-0.123176	-0.255649				-0.004090	-0.001147	-0.001132				-152.171013	88.315576	-103.865941
00973	2684624	-9.805282	-0.148862	-0.263405				0.000319	0.000419	0.000146				-152.173877	88.315640	-103.868830
00974	2684674	-9.819124	-0.135466	-0.247012				-0.007156	0.000808	0.001612				-152.211402	88.316150	-103.906390
00975	2684724	-9.818522	-0.135435	-0.268359				-0.004545	0.001173	0.000133				-152.219022	88.316324	-103.912487
00976	2684774	-9.828299	-0.134876	-0.266591				-0.003827	-0.000201	-0.000260				-152.234293	88.316654	-103.928813
00977	2684824	-9.814507	-0.134505	-0.264249				-0.008072	0.000237	-0.000602				-152.232468	88.316464	-103.924697
00978	2684874	-9.808147	-0.133657	-0.253378				-0.001992	0.003514	-0.001273				-152.255696	88.316016	-103.949379
00979	2684924	-9.808013	-0.145011	-0.253797				-0.004686	0.003693	-0.000045				-152.273729	88.315027	-103.966098
00980	2684974	-9.811066	-0.145066	-0.259453				-0.001401	-0.000163	-0.002000				-152.273297	88.315860	-103.967065
00981	2685024	-9.813024	-0.141691	-0.259068				-0.004745	0.002529	-0.000758				-152.279615	88.314974	-103.972094
00982	2685074	-9.801059	-0.130661	-0.250669				-0.003569	-0.000095	0.002592				-152.320135	88.315631	-104.013813
00983	2685124	-9.803893	-0.150701	-0.254166				-0.006998	-0.002459	-0.000393				-152.307610	88.316347	-103.999206
00984	2685174	-9.820009	-0.133652	-0.262292				-0.003286	-0.000262	-0.001100				-152.315530	88.316585	-104.008353
00985	2685224	-9.811158	-0.137403	-0.260945				0.001669	0.000151	-0.001175				-152.305742	88.316398	-103.999037
00986	2685274	-9.811267	-0.138158	-0.242548				-0.005374	0.003062	-0.002935				-152.313122	88.315877	-104.006870
00987	2685324	-9.785269	-0.152892	-0.257729				-0.005463	0.002409	-0.005090				-152.281659	88.314512	-103.973865
00988	2685374	-9.801047	-0.139922	-0.272932				-0.003057	0.000615	-0.001543				-152.289918	88.314803	-103.983265
00989	2685424	-9.796981	-0.147707	-0.260853				-0.002135	0.003830	-0.004065				-152.272538	88.313319	-103.965261
00990	2685474	-9.815398	-0.132039	-0.241064				-0.000276	0.001962	-0.000709				-152.292990	88.313337	-103.987664
00991	2685524	-9.811743	-0.141191	-0.273650				-0.005667	0.001184	-0.000667				-152.294127	88.313058	-103.987120
00992	2685574	-9.801669	-0.153174	-0.262159				-0.005246	0.000802	-0.002208				-152.297894	88.313107	-103.991450
00993	2685624	-9.811773	-0.137816	-0.237958				-0.004646	0.001036	-0.004747				-152.262938	88.312165	-103.955171
00994	2685674	-9.795806	-0.144519	-0.265190				-0.004903	-0.004108	-0.003137				-152.236761	88.313507	-103.929570
00995	2685724	-9.807693	-0.135616	-0.246762				-0.004002	-0.002986	-0.000630				-152.219110	88.314022	-103.910838
00996	2685774	-9.819735	-0.143669	-0.247524				-0.003678	0.000989	-0.002951				-152.216089	88.313901	-103.908812
00997	2685824	-9.800775	-0.165147	-0.266354				0.000936	-0.004321	-0.001360				-152.184280	88.315062	-103.877139
00998	2685874	-9.803820	-0.139319	-0.249203				-0.004005	-0.000593	0.001051				-152.209923	88.315826	-103.903758
00999	2685924	-9.800820	-0.144597	-0.261473				0.000852	-0.000413	-0.001404				-152.195716	88.315708	-103.889797
01000	2685974	-9.798362	-0.144709	-0.273984				-0.005268	0.002039	0.002641				-152.246604	88.316254	-103.941190
01001	2686024	-9.791620	-0.142497	-0.253145				-0.000618	0.002599	-0.000997				-152.250054	88.315643	-103.944372
01002	2686074	-9.829006	-0.132993	-0.271909				-0.005151	0.002870	-0.004122				-152.246853	88.313892	-103.942262
01003	2686124	-9.799615	-0.142785	-0.268400				-0.008985	-0.001622	-0.002182				-152.223300	88.314076	-103.916094
01004	2686174	-9.804762	-0.155386	-0.257367				-0.002044	0.001086	-0.001092				-152.236354	88.314846	-103.930326
01005	2686224	-9.808634	-0.147279	-0.264846				-0.005808	0.002506	-0.002135				-152.231156	88.313857	-103.923483
01006	2686274	-9.813389	-0.128634	-0.263742				-0.004557	-0.002612	-0.001558				-152.224512	88.314923	-103.917566
01007	2686324	-9.814884	-0.133530	-0.281628				-0.001573	0.003624	-0.000148				-152.240127	88.314003	-103.932727
01008	2686374	-9.808630	-0.140141	-0.279854				-0.000468	-0.001311	-0.001628				-152.237912	88.314853	-103.932352
01009	2686424	-9.805405	-0.137388	-0.267903				-0.006316	0.000530	0.001351				-152.253480	88.314982	-103.946079
01010	2686474	-9.829725	-0.137415	-0.261106				-0.002787	0.001007	-0.003659				-152.245303	88.314472	-103.939316
01011	2686524	-9.794798	-0.149372	-0.263521				-0.002581	-0.003023	0.002734				-152.255761	88.315539	-103.949080
01012	2686574	-9.813586	-0.138980	-0.249890				-0.003207	-0.000709	-0.000237				-152.268867	88.316461	-103.963196
01013	2686624	-9.822591	-0.137260	-0.260515				-0.003672	0.006235	-0.000356				-152.295260	88.314595	-103.988666
01014	2686674	-9.794876	-0.138140	-0.274196				-0.003877	0.000250	0.000120				-152.316336	88.315226	-104.010642
01015	2686724	-9.805651	-0.138884	-0.262630				-0.005776	-0.000332	0.001217				-152.326967	88.315635	-104.019542
01016	2686774	-9.812497	-0.144545	-0.261250				-0.004318	0.003986	-0.002520				-152.341545	88.314930	-104.034865
01017	2686824	-9.807509	-0.136125	-0.275561				-0.002360	-0.001147	-0.000530				-152.332357	88.315320	-104.024914
01018	2686874	-9.805071	-0.129466	-0.259693				-0.002377	-0.002475	-0.000056				-152.339238	88.316245	-104.033289
01019	2686924	-9.813683	-0.129481	-0.253774				-0.005814	0.001699	-0.002045				-152.330651	88.315486	-104.023062
01020	2686974	-9.800332	-0.153453	-0.245934				-0.000586	0.000102	-0.006235				-152.295033	88.314939	-103.989451
01021	2687024	-9.812282	-0.142854	-0.261374				-0.004558	0.000594	-0.000032				-152.298655	88.315057	-103.991635
01022	2687074	-9.799247	-0.147531	-0.240832				-0.003278	-0.000487	-0.001548				-152.301563	88.315335	-103.995779
01023	2687124	-9.820269	-0.119158	-0.249064				-0.002814	0.004310	-0.000562				-152.316963	88.314159	-104.010385
01024	2687174	-9.812633	-0.123553	-0.281078				-0.006855	0.000133	-0.001309				-152.326184	88.314910	-104.019525
01025	2687224	-9.799206	-0.138626	-0.265620				-0.003681	0.002154	-0.002559				-152.314753	88.314054	-104.007021
01026	2687274	-9.795065	-0.162398	-0.272701				-0.002702	-0.001642	-0.002456				-152.304477	88.314264	-103.998225
01027	2687324	-9.794066	-0.144722	-0.274751				-0.004636	0.002112	0.001035				-152.324145	88.314050	-104.016481
01028	2687374	-9.815007	-0.140693	-0.248415				-0.005497	0.000963	-0.000444				-152.343516	88.314581	-104.036228
01029	2687424	-9.803920	-0.156250	-0.276795				-0.004857	-0.000255	-0.001417				-152.331444	88.314695	-104.022645
01030	2687474	-9.807278	-0.138201	-0.270636				-0.001556	0.002706	-0.003941				-152.327506	88.314029	-104.020328
01031	2687524	-9.813943	-0.147596	-0.252254				-0.005815	-0.001471	-0.002832				-152.298230	88.313750	-103.989508
01032	2687574	-9.813877	-0.149470	-0.258305				-0.002540	0.001862	0.001834				-152.340845	88.314595	-104.033189
01033	2687624	-9.802834	-0.131840	-0.271554				-0.004558	0.001791	0.001128				-152.359944	88.314207	-104.051035
01034	2687674	-9.804809	-0.129647	-0.264079				-0.002985	0.000298	-0.001609				-152.365892	88.314102	-104.058369
01035	2687724	-9.800891	-0.138424	-0.263576				-0.003157	-0.001294	-0.000431				-152.357197	88.314326	-104.048785
01036	2687774	-9.826247	-0.129542	-0.263250				-0.003470	0.000380	-0.003144				-152.350411	88.314136	-104.043178
01037	2687824	-9.797993	-0.141265	-0.262413				-0.003227	-0.001138	-0.002101				-152.327948	88.314050	-104.019828
01038	2687874	-9.807920	-0.149724	-0.259294				-0.002756	0.003240	-0.001882				-152.344906	88.313724	-104.037981
01039	2687924	-9.808579	-0.150009	-0.267721				-0.003607	0.000834	0.000511				-152.354277	88.313753	-104.046231
01040	2687974	-9.802725	-0.140000	-0.271341				-0.004801	0.002102	-0.002235				-152.363221	88.313465	-104.055875
01041	2688024	-9.824043	-0.129557	-0.272337				-0.003990	-0.001472	-0.003185				-152.330260	88.313324	-104.021802
01042	2688074	-9.816100	-0.144152	-0.256994				-0.002909	-0.001126	-0.000945				-152.335336	88.314332	-104.027956
01043	2688124	-9.792118	-0.147768	-0.277094				-0.006673	0.000653	-0.000281				-152.337891	88.314112	-104.028613
01044	2688174	-9.792661	-0.134343	-0.255055				-0.002465	0.001240	-0.000966				-152.353561	88.313959	-104.045790
01045	2688224	-9.836735	-0.123380	-0.234947				0.000139	0.001000	-0.001897				-152.341768	88.313123	-104.034194
01046	2688274	-9.813443	-0.146432	-0.258323				-0.003173	0.002362	-0.000055				-152.369764	88.313700	-104.063017
01047	2688324	-9.799134	-0.141862	-0.270280				-0.001053	-0.002901	0.000102				-152.357613	88.314628	-104.050470
01048	2688374	-9.812141	-0.137022	-0.256671				-0.003862	0.001697	-0.002788				-152.360232	88.314409	-104.054012
01049	2688424	-9.808916	-0.156550	-0.277293				-0.004454	0.002240	-0.001244				-152.361135	88.313468	-104.053746
01050	2688474	-9.805943	-0.147748	-0.275138				-0.003786	0.001574	0.000034				-152.386828	88.313820	-104.080305
01051	2688524	-9.788539	-0.157046	-0.258687				-0.001502	0.003132	-0.001089				-152.391980	88.313180	-104.084878
01052	2688574	-9.801042	-0.138732	-0.276677				-0.001706	0.003318	-0.004002				-152.390212	88.312076	-104.084827
01053	2688624	-9.814189	-0.137951	-0.270867				-0.005526	0.003804	-0.001616				-152.394953	88.311067	-104.087905
01054	2688674	-9.793179	-0.137073	-0.280914				-0.004235	0.000371	-0.001351				-152.403652	88.311275	-104.097461
01055	2688724	-9.808727	-0.126167	-0.253156				-0.004775	0.003197	-0.004604				-152.379838	88.309622	-104.072386
