// General information: 
//  MT Manager version: 2022.0.0 
//  XDA version: 2022.0.0 build 7085 rev 119802 built on 2022-11-08
// Device information: 
//  DeviceId: 037004D1
//  ProductCode: MTi-300-2A5G4
//  Firmware Version: 1.4.1
//  Hardware Version: 2.1.0
// Device settings: 
//  Filter Profile: general(39.16)
//  Option Flags: Orientation Smoother Disabled, Position/Velocity Smoother Disabled, Continuous Zero Rotation Update Disabled, AHS Disabled, ICC Disabled
// Coordinate system: ENU
PacketCounter	SampleTimeFine	Acc_X	Acc_Y	Acc_Z	AccHR_X	AccHR_Y	AccHR_Z	Gyr_X	Gyr_Y	Gyr_Z	GyrHR_X	GyrHR_Y	GyrHR_Z	Roll	Pitch	Yaw
00001	15681862	0.099959	0.143069	-9.818074				-0.005393	-0.000541	0.001090				179.244414	-0.525226	-18.521473
00002	15681912	0.112193	0.117536	-9.817171				-0.004463	0.002640	0.000591				179.243137	-0.525984	-18.521630
00003	15681962	0.095036	0.138958	-9.782099				-0.007118	0.000070	-0.001179				179.243254	-0.525668	-18.521918
00004	15682012	0.114088	0.119955	-9.817181				-0.004804	0.001016	-0.001150				179.241874	-0.525955	-18.521590
00005	15682062	0.094302	0.115115	-9.829782				-0.003331	-0.006262	-0.000484				179.243077	-0.523828	-18.522047
00006	15682112	0.100218	0.119297	-9.845388				-0.005918	0.000733	-0.002756				179.241375	-0.524027	-18.521255
00007	15682162	0.093513	0.117166	-9.829776				-0.001974	0.001675	-0.001988				179.242963	-0.524167	-18.521264
00008	15682212	0.080216	0.131016	-9.821093				-0.006795	0.001074	-0.003612				179.241007	-0.524461	-18.520222
00009	15682262	0.109177	0.119158	-9.821711				-0.002504	0.002281	-0.002914				179.242441	-0.524771	-18.520013
00010	15682312	0.116198	0.113730	-9.828221				-0.003867	0.003009	0.001261				179.241337	-0.525638	-18.520360
00011	15682362	0.117221	0.117618	-9.821989				-0.001918	0.000703	-0.003116				179.242939	-0.525496	-18.520058
00012	15682412	0.093826	0.133914	-9.828345				-0.005659	0.003777	-0.002958				179.241309	-0.526566	-18.519194
00013	15682462	0.114506	0.111484	-9.818379				-0.004841	0.004215	-0.001104				179.242079	-0.527437	-18.519475
00014	15682512	0.103366	0.109124	-9.823357				-0.000016	0.004719	-0.001427				179.242070	-0.528784	-18.519050
00015	15682562	0.107889	0.129951	-9.827695				-0.003193	0.002150	0.002735				179.243321	-0.529078	-18.520409
00016	15682612	0.123750	0.139850	-9.839281				-0.005131	0.001268	-0.001919				179.241846	-0.529434	-18.519856
00017	15682662	0.117193	0.120019	-9.806890				-0.004628	0.003638	-0.000913				179.242677	-0.530141	-18.520168
00018	15682712	0.116851	0.129315	-9.817441				0.000359	0.002015	0.000221				179.242781	-0.530719	-18.520220
00019	15682762	0.109839	0.143767	-9.830347				-0.003526	0.001365	0.000232				179.243930	-0.530779	-18.520885
00020	15682812	0.114242	0.113959	-9.828446				-0.004380	0.001837	0.000457				179.242677	-0.531307	-18.521010
00021	15682862	0.099094	0.120100	-9.820704				-0.005113	0.000587	-0.001888				179.243366	-0.531136	-18.521062
00022	15682912	0.095991	0.122776	-9.831713				-0.004971	-0.000957	-0.002250				179.241936	-0.530853	-18.520420
00023	15682962	0.100453	0.140434	-9.824067				-0.003269	-0.001833	0.000020				179.243159	-0.529996	-18.521027
00024	15683012	0.089084	0.123106	-9.825207				-0.004255	0.000062	0.002468				179.241947	-0.530024	-18.521735
00025	15683062	0.097818	0.108965	-9.841298				-0.004247	-0.002660	-0.000719				179.242888	-0.528927	-18.522153
00026	15683112	0.102848	0.114577	-9.834860				-0.003675	0.000579	-0.002245				179.241829	-0.529085	-18.521510
00027	15683162	0.086256	0.130422	-9.807693				-0.006266	0.000605	-0.000858				179.242192	-0.528923	-18.521854
00028	15683212	0.097954	0.116620	-9.825251				-0.008241	-0.000887	-0.001824				179.239826	-0.528661	-18.521333
00029	15683262	0.101675	0.127103	-9.828380				-0.003254	0.001526	-0.001405				179.241050	-0.528761	-18.521525
00030	15683312	0.088512	0.112744	-9.836942				-0.003362	-0.002125	-0.000944				179.240085	-0.528149	-18.521261
00031	15683362	0.091513	0.107766	-9.831917				-0.002570	0.002479	-0.000476				179.241506	-0.528525	-18.521674
00032	15683412	0.096501	0.119284	-9.820211				-0.003646	0.001810	-0.002076				179.240456	-0.529036	-18.521071
00033	15683462	0.112596	0.123031	-9.818370				-0.004306	0.000475	-0.000094				179.241383	-0.528839	-18.521662
00034	15683512	0.104525	0.128898	-9.839662				-0.003485	-0.001287	-0.001036				179.240382	-0.528467	-18.521369
00035	15683562	0.118111	0.129412	-9.827745				-0.003392	0.001814	-0.002372				179.241564	-0.528645	-18.521272
00036	15683612	0.124153	0.124741	-9.816279				-0.001980	0.004909	-0.002489				179.240990	-0.530042	-18.520537
00037	15683662	0.118837	0.105263	-9.826792				-0.006074	-0.000328	0.000898				179.241412	-0.529620	-18.521402
00038	15683712	0.095749	0.121008	-9.808463				-0.003460	0.002374	0.001805				179.240426	-0.530307	-18.521910
00039	15683762	0.108525	0.127906	-9.823866				0.001604	0.001062	-0.000238				179.243045	-0.530278	-18.522426
00040	15683812	0.122824	0.132256	-9.829934				-0.001264	0.001199	-0.004461				179.242671	-0.530604	-18.521143
00041	15683862	0.132243	0.112036	-9.811759				-0.004714	0.002179	-0.001784				179.243476	-0.530889	-18.521177
00042	15683912	0.125427	0.126933	-9.812925				-0.007232	0.001812	-0.001433				179.241400	-0.531403	-18.520757
00043	15683962	0.106382	0.130405	-9.826968				-0.003034	0.000624	-0.002279				179.242685	-0.531241	-18.520681
00044	15684012	0.099615	0.114629	-9.821422				-0.004349	-0.000504	-0.004364				179.241427	-0.531080	-18.519435
00045	15684062	0.103733	0.109436	-9.813293				0.000437	0.001296	-0.003055				179.243705	-0.531108	-18.519124
00046	15684112	0.119164	0.117656	-9.833746				-0.004869	-0.001185	-0.001932				179.242305	-0.530761	-18.518578
00047	15684162	0.091100	0.117158	-9.831445				-0.009166	0.002167	-0.001933				179.241835	-0.531043	-18.518632
00048	15684212	0.080053	0.114882	-9.822280				-0.005909	-0.001820	-0.003949				179.240132	-0.530506	-18.517508
00049	15684262	0.073408	0.116744	-9.816732				-0.000513	-0.000845	-0.000175				179.242145	-0.529932	-18.518048
00050	15684312	0.097565	0.112226	-9.827882				-0.000010	0.000422	0.000087				179.242142	-0.530053	-18.518069
00051	15684362	0.073601	0.133694	-9.810990				-0.000247	0.000901	-0.001737				179.244228	-0.529972	-18.518178
00052	15684412	0.103711	0.131600	-9.822165				-0.008579	0.000949	-0.000528				179.241769	-0.530242	-18.518021
00053	15684462	0.109862	0.124213	-9.833221				-0.005665	0.001972	-0.000435				179.242306	-0.530473	-18.518496
00054	15684512	0.107729	0.117376	-9.823858				-0.006384	0.001077	-0.005093				179.240463	-0.530762	-18.517032
00055	15684562	0.107201	0.109151	-9.828656				-0.005305	0.003052	0.002649				179.241112	-0.531314	-18.518350
00056	15684612	0.118315	0.102589	-9.817195				-0.000394	-0.000682	0.000145				179.240999	-0.531119	-18.518394
00057	15684662	0.113354	0.123397	-9.809754				-0.004795	0.004829	-0.001322				179.241783	-0.532165	-18.518610
00058	15684712	0.115471	0.140781	-9.815283				-0.004255	0.000761	-0.003045				179.240556	-0.532372	-18.517735
00059	15684762	0.114255	0.131349	-9.834198				-0.004731	-0.000377	-0.001705				179.241357	-0.531925	-18.517856
00060	15684812	0.121147	0.135019	-9.828248				-0.000753	0.002473	-0.003045				179.241134	-0.532622	-18.516973
00061	15684862	0.113501	0.121930	-9.808315				-0.003612	-0.000359	-0.002474				179.242253	-0.532178	-18.516876
00062	15684912	0.102894	0.128659	-9.800352				-0.008719	0.001270	-0.000303				179.239754	-0.532540	-18.516781
00063	15684962	0.097937	0.116855	-9.817823				-0.003172	0.000142	-0.000200				179.241006	-0.532248	-18.517319
00064	15685012	0.113182	0.103899	-9.823879				-0.002891	0.002377	-0.001214				179.240175	-0.532925	-18.516960
00065	15685062	0.104877	0.120736	-9.812584				-0.005218	0.003850	-0.003056				179.240834	-0.533684	-18.516692
00066	15685112	0.114822	0.120199	-9.798972				-0.008214	-0.001661	-0.000866				179.238478	-0.533205	-18.516453
00067	15685162	0.105156	0.118729	-9.838704				-0.004571	-0.000338	-0.001352				179.239327	-0.532771	-18.516643
00068	15685212	0.094557	0.114168	-9.813969				-0.003875	-0.001300	-0.003151				179.238208	-0.532386	-18.515743
00069	15685262	0.084389	0.130253	-9.812487				-0.006527	0.000988	-0.000018				179.238500	-0.532337	-18.516337
00070	15685312	0.105755	0.103387	-9.831270				-0.003278	-0.001674	-0.001042				179.237558	-0.531854	-18.516045
00071	15685362	0.111051	0.114934	-9.816209				-0.005647	0.001254	-0.003456				179.238093	-0.531868	-18.515673
00072	15685412	0.100242	0.093866	-9.816625				-0.004057	0.004648	-0.002542				179.236924	-0.533189	-18.514923
00073	15685462	0.086010	0.109983	-9.845793				-0.000983	-0.000472	-0.002801				179.238796	-0.532711	-18.514709
00074	15685512	0.084521	0.110712	-9.829495				-0.001808	0.001949	0.002989				179.238286	-0.533281	-18.515559
00075	15685562	0.102299	0.108960	-9.822156				-0.003742	-0.000126	0.000349				179.239377	-0.532914	-18.516265
00076	15685612	0.097041	0.134354	-9.827410				-0.004312	0.001504	-0.002781				179.238135	-0.533335	-18.515461
00077	15685662	0.119396	0.115451	-9.830152				-0.003888	0.000184	-0.003530				179.239173	-0.533042	-18.515053
00078	15685712	0.115305	0.126345	-9.827255				-0.005072	0.001465	0.000006				179.237720	-0.533462	-18.515046
00079	15685762	0.109873	0.113738	-9.817398				-0.004967	0.000238	-0.000319				179.238459	-0.533196	-18.515575
00080	15685812	0.109100	0.137726	-9.818116				-0.005563	-0.000422	-0.002150				179.236859	-0.533067	-18.514961
00081	15685862	0.100406	0.128423	-9.823580				-0.005171	0.000691	0.001002				179.237543	-0.532937	-18.515819
00082	15685912	0.125705	0.103267	-9.815076				-0.006183	0.001058	0.000329				179.235772	-0.533241	-18.515910
00083	15685962	0.111849	0.130352	-9.821490				-0.001651	0.001683	-0.001185				179.237458	-0.533387	-18.516163
00084	15686012	0.115267	0.139025	-9.826536				-0.003531	-0.002806	-0.000820				179.236445	-0.532580	-18.515944
00085	15686062	0.112512	0.126742	-9.804952				-0.000519	0.001284	-0.000554				179.238457	-0.532614	-18.516379
00086	15686112	0.124127	0.114374	-9.817708				-0.004704	-0.000146	-0.000193				179.237109	-0.532571	-18.516324
00087	15686162	0.113247	0.123398	-9.847374				-0.001478	0.000431	0.001370				179.238852	-0.532368	-18.517314
00088	15686212	0.094910	0.115387	-9.833141				-0.003241	0.000074	-0.001762				179.237919	-0.532382	-18.516810
00089	15686262	0.092636	0.118711	-9.820190				-0.001064	0.000273	-0.000681				179.239775	-0.532126	-18.517211
00090	15686312	0.090395	0.124351	-9.849417				-0.003258	-0.000378	-0.000934				179.238839	-0.532014	-18.516944
00091	15686362	0.098121	0.125279	-9.824048				-0.001922	0.000161	-0.000197				179.240450	-0.531727	-18.517491
00092	15686412	0.104731	0.119992	-9.814503				-0.005027	0.001279	0.002349				179.239016	-0.532103	-18.518155
00093	15686462	0.090000	0.121232	-9.826647				-0.004946	-0.002606	-0.000235				179.239763	-0.531023	-18.518702
00094	15686512	0.098234	0.121406	-9.837235				-0.002232	0.001871	0.000226				179.239124	-0.531560	-18.518755
00095	15686562	0.118007	0.116829	-9.817196				-0.002589	0.001794	-0.003529				179.240536	-0.531728	-18.518352
00096	15686612	0.106145	0.118040	-9.837034				-0.005555	0.002488	-0.001877				179.238939	-0.532434	-18.517803
00097	15686662	0.088324	0.125314	-9.819448				-0.003292	0.001851	-0.001439				179.240155	-0.532626	-18.517983
00098	15686712	0.123767	0.111006	-9.809802				-0.007519	0.003681	-0.002798				179.237994	-0.533670	-18.517166
00099	15686762	0.118700	0.131391	-9.807858				-0.001322	0.003698	0.000969				179.239780	-0.534401	-18.518028
00100	15686812	0.097930	0.129806	-9.816376				-0.000620	-0.000229	0.001980				179.239608	-0.534343	-18.518597
00101	15686862	0.120096	0.120479	-9.830394				-0.006437	-0.000047	-0.000832				179.239925	-0.533995	-18.518978
00102	15686912	0.122927	0.103812	-9.825850				-0.003672	0.001547	-0.002531				179.238866	-0.534428	-18.518249
00103	15686962	0.115843	0.108493	-9.811199				-0.004951	0.000855	0.001512				179.239615	-0.534347	-18.519309
00104	15687012	0.100605	0.123855	-9.819026				-0.004569	-0.003313	-0.000275				179.238306	-0.533397	-18.519245
00105	15687062	0.118443	0.111492	-9.807615				-0.002307	0.001160	-0.000291				179.239807	-0.533396	-18.519700
00106	15687112	0.098655	0.114802	-9.819736				-0.005418	0.000296	0.000037				179.238255	-0.533481	-18.519710
00107	15687162	0.104458	0.122519	-9.851646				-0.005350	-0.000931	0.000414				179.238887	-0.532883	-18.520450
00108	15687212	0.104658	0.117200	-9.799157				-0.006190	0.000183	-0.001953				179.237108	-0.532928	-18.519887
00109	15687262	0.093348	0.127445	-9.804135				-0.000340	-0.001229	0.000783				179.239177	-0.532247	-18.520727
00110	15687312	0.110061	0.103579	-9.820747				-0.002413	0.002547	-0.001343				179.238482	-0.532972	-18.520335
00111	15687362	0.102304	0.112139	-9.825029				-0.006938	0.001524	-0.003354				179.238650	-0.533063	-18.519951
00112	15687412	0.113038	0.108107	-9.821965				-0.004192	-0.000268	-0.002407				179.237442	-0.532977	-18.519262
00113	15687462	0.092661	0.117420	-9.822351				-0.005250	-0.001125	-0.000488				179.238101	-0.532321	-18.519742
00114	15687512	0.090543	0.104686	-9.823289				-0.007439	0.001297	0.000558				179.235972	-0.532694	-18.519899
00115	15687562	0.103762	0.116946	-9.849244				-0.003161	-0.002347	0.000788				179.237232	-0.531693	-18.520730
00116	15687612	0.092843	0.106749	-9.825459				-0.004644	-0.000014	-0.000607				179.235900	-0.531687	-18.520555
00117	15687662	0.100905	0.115543	-9.832934				-0.006216	0.000989	-0.003649				179.236274	-0.531624	-18.520118
00118	15687712	0.097149	0.113351	-9.826921				-0.009054	0.004215	0.003242				179.233689	-0.532844	-18.521026
00119	15687762	0.105663	0.133188	-9.816188				-0.006701	0.004375	-0.000677				179.233932	-0.533762	-18.521420
00120	15687812	0.111074	0.111245	-9.817401				-0.005800	0.000029	-0.001379				179.232266	-0.533765	-18.521024
00121	15687862	0.116860	0.133256	-9.847396				-0.004145	-0.001986	-0.003411				179.233234	-0.532851	-18.520663
00122	15687912	0.117339	0.132381	-9.822473				-0.003380	0.002593	-0.001530				179.232262	-0.533587	-18.520219
00123	15687962	0.121778	0.122844	-9.830881				-0.003130	0.001890	0.000360				179.233530	-0.533798	-18.520915
00124	15688012	0.124711	0.099462	-9.819864				-0.004140	0.005421	-0.002222				179.232338	-0.535343	-18.520255
00125	15688062	0.096921	0.125480	-9.833632				-0.005339	-0.000647	-0.004011				179.232963	-0.534810	-18.519702
00126	15688112	0.131282	0.079288	-9.819174				-0.000361	0.000286	-0.000779				179.232857	-0.534889	-18.519473
00127	15688162	0.126340	0.123842	-9.817719				-0.003609	-0.001193	0.000440				179.233989	-0.534217	-18.520197
00128	15688212	0.093283	0.145027	-9.824031				-0.006794	-0.000763	-0.000160				179.232043	-0.533997	-18.520156
00129	15688262	0.087986	0.124228	-9.823044				-0.004142	-0.003950	-0.001273				179.233018	-0.532529	-18.520410
00130	15688312	0.101290	0.110132	-9.816628				-0.007506	-0.002681	0.000603				179.230869	-0.531763	-18.520592
00131	15688362	0.115149	0.122916	-9.833965				-0.006509	0.002643	0.002587				179.231176	-0.532199	-18.521883
00132	15688412	0.098709	0.114132	-9.820939				-0.004130	-0.000271	-0.004396				179.229981	-0.532104	-18.520627
00133	15688462	0.085234	0.131895	-9.828065				-0.006428	0.003732	-0.002377				179.230298	-0.532832	-18.520519
00134	15688512	0.097538	0.111375	-9.831004				-0.002480	-0.000590	-0.000938				179.229585	-0.532659	-18.520252
00135	15688562	0.096305	0.112426	-9.823557				-0.001509	-0.001962	-0.000662				179.231316	-0.531762	-18.520655
00136	15688612	0.111398	0.111165	-9.819325				-0.004862	0.003021	-0.000270				179.229922	-0.532627	-18.520561
00137	15688662	0.099870	0.115167	-9.812314				-0.003344	0.001433	0.000296				179.231130	-0.532706	-18.521252
00138	15688712	0.098325	0.097637	-9.835313				-0.001308	0.002018	-0.000064				179.230755	-0.533284	-18.521221
00139	15688762	0.126800	0.100400	-9.833535				-0.002417	-0.000788	-0.002325				179.232223	-0.532718	-18.521165
00140	15688812	0.100922	0.128788	-9.816640				-0.003865	0.002975	0.000786				179.231118	-0.533573	-18.521376
00141	15688862	0.107939	0.118665	-9.822186				-0.001257	0.001208	-0.001640				179.232919	-0.533580	-18.521516
00142	15688912	0.099888	0.134389	-9.809204				-0.004745	0.003576	0.000889				179.231562	-0.534608	-18.521753
00143	15688962	0.096623	0.141575	-9.837227				-0.003503	0.002753	0.000107				179.232724	-0.535064	-18.522365
00144	15689012	0.104707	0.146753	-9.828890				-0.001587	-0.001616	-0.003449				179.232260	-0.534588	-18.521383
00145	15689062	0.124489	0.126938	-9.833290				-0.003839	-0.002427	-0.002360				179.233320	-0.533552	-18.521317
00146	15689112	0.129077	0.105846	-9.817492				-0.004520	0.004150	-0.002741				179.232018	-0.534730	-18.520510
00147	15689162	0.115093	0.105380	-9.811187				-0.003558	-0.003004	-0.000790				179.233162	-0.533534	-18.520894
00148	15689212	0.126047	0.105448	-9.828021				-0.001633	0.002040	-0.001027				179.232692	-0.534115	-18.520590
00149	15689262	0.131374	0.119147	-9.833811				-0.001612	0.002427	-0.001765				179.234391	-0.534471	-18.520691
00150	15689312	0.113886	0.122030	-9.833243				-0.002906	0.000627	-0.002986				179.233551	-0.534639	-18.519833
00151	15689362	0.127664	0.095116	-9.819156				-0.000527	-0.000985	-0.004800				179.235553	-0.534007	-18.519079
00152	15689412	0.082487	0.137273	-9.819659				0.000400	0.001951	0.000709				179.235669	-0.534568	-18.519276
00153	15689462	0.107221	0.124652	-9.837275				-0.004558	0.000142	-0.003049				179.236522	-0.534265	-18.519010
00154	15689512	0.095591	0.124240	-9.817807				-0.006518	-0.001602	-0.001283				179.234652	-0.533801	-18.518648
00155	15689562	0.085110	0.119105	-9.806002				-0.000934	-0.002991	-0.002079				179.236545	-0.532604	-18.518658
00156	15689612	0.082418	0.128862	-9.822061				-0.004432	-0.003765	-0.001206				179.235272	-0.531521	-18.518328
00157	15689662	0.110503	0.117270	-9.820038				-0.002902	-0.001405	0.000146				179.236607	-0.530787	-18.518967
00158	15689712	0.115376	0.109189	-9.826531				-0.002551	0.000437	-0.004430				179.235865	-0.530895	-18.517694
00159	15689762	0.083079	0.127752	-9.828531				-0.003132	-0.000084	0.000026				179.237134	-0.530539	-18.518296
00160	15689812	0.093745	0.111844	-9.814447				-0.005741	0.002392	0.000368				179.235491	-0.531226	-18.518390
00161	15689862	0.095616	0.134835	-9.811341				-0.004991	0.003148	0.000951				179.236229	-0.531799	-18.519267
00162	15689912	0.110166	0.119849	-9.832497				-0.001541	0.001101	0.001124				179.235791	-0.532119	-18.519583
00163	15689962	0.110813	0.117067	-9.821483				-0.002556	0.000496	-0.003627				179.237216	-0.531915	-18.519140
00164	15690012	0.112576	0.123800	-9.838984				-0.003891	0.003417	-0.002933				179.236094	-0.532882	-18.518289
00165	15690062	0.113189	0.096627	-9.816216				-0.003156	0.002397	-0.001433				179.237352	-0.533231	-18.518472
00166	15690112	0.096857	0.122949	-9.838660				-0.004582	0.003251	0.000567				179.236041	-0.534165	-18.518619
00167	15690162	0.101569	0.119871	-9.820720				-0.005414	0.003533	0.003459				179.236666	-0.534858	-18.520211
00168	15690212	0.114782	0.127502	-9.825338				-0.005739	0.003996	-0.003083				179.235013	-0.535991	-18.519312
00169	15690262	0.123842	0.119456	-9.818428				-0.006299	0.000434	-0.002139				179.235370	-0.535775	-18.519337
00170	15690312	0.112655	0.122245	-9.826284				-0.006951	-0.000255	-0.002046				179.233373	-0.535694	-18.518750
00171	15690362	0.099674	0.136849	-9.837963				-0.001334	-0.000773	-0.003825				179.235148	-0.535125	-18.518250
00172	15690412	0.121312	0.101624	-9.827037				-0.002278	0.001725	-0.005416				179.234480	-0.535599	-18.516690
00173	15690462	0.129681	0.119597	-9.826608				-0.005150	0.003453	-0.004888				179.235159	-0.536237	-18.515888
00174	15690512	0.112642	0.110705	-9.823400				-0.001656	0.002947	0.001009				179.234688	-0.537085	-18.516163
00175	15690562	0.082955	0.141289	-9.837400				-0.007048	-0.000129	-0.001013				179.234833	-0.536712	-18.516458
00176	15690612	0.109195	0.123619	-9.816917				-0.002649	-0.002506	-0.001650				179.234070	-0.535988	-18.515996
00177	15690662	0.102297	0.124955	-9.817117				-0.001772	-0.001107	-0.003601				179.235720	-0.535325	-18.515568
00178	15690712	0.127611	0.103481	-9.844807				-0.003104	0.002951	-0.000560				179.234829	-0.536168	-18.515398
00179	15690762	0.114084	0.112058	-9.827247				-0.006284	0.003183	-0.001323				179.235193	-0.536743	-18.515594
00180	15690812	0.098796	0.099381	-9.815184				-0.005487	-0.000939	-0.001825				179.233616	-0.536467	-18.515069
00181	15690862	0.085107	0.140192	-9.839088				-0.000984	-0.000607	-0.003181				179.235494	-0.535948	-18.514773
00182	15690912	0.104064	0.130325	-9.823612				-0.003351	0.003721	-0.001069				179.234532	-0.537010	-18.514452
00183	15690962	0.117689	0.117817	-9.831102				-0.004111	0.000219	-0.000283				179.235521	-0.536739	-18.514954
00184	15691012	0.114597	0.123176	-9.823903				-0.005249	0.001746	-0.001398				179.234013	-0.537234	-18.514549
00185	15691062	0.108629	0.120538	-9.827218				-0.005417	-0.000100	-0.003072				179.234621	-0.536862	-18.514264
00186	15691112	0.111730	0.120204	-9.820282				-0.005192	0.001400	0.002772				179.233141	-0.537274	-18.515048
00187	15691162	0.114320	0.131827	-9.810473				-0.008890	0.000358	-0.000497				179.232760	-0.537042	-18.515516
00188	15691212	0.117027	0.132712	-9.813843				-0.004573	0.000525	-0.003266				179.231441	-0.537180	-18.514580
00189	15691262	0.148038	0.085848	-9.812313				-0.001729	0.000639	-0.004013				179.233103	-0.537015	-18.514023
00190	15691312	0.107125	0.116331	-9.803246				-0.003235	0.002141	0.000430				179.232177	-0.537630	-18.514138
00191	15691362	0.102332	0.126910	-9.812813				-0.007348	0.003225	-0.003947				179.232230	-0.538207	-18.513604
00192	15691412	0.115470	0.123715	-9.831087				-0.004328	-0.003181	-0.000753				179.230988	-0.537293	-18.513403
00193	15691462	0.104541	0.119531	-9.815695				-0.002629	-0.001151	-0.002187				179.232397	-0.536623	-18.513372
00194	15691512	0.099659	0.118751	-9.825024				-0.005309	0.002913	0.001050				179.230878	-0.537461	-18.513660
00195	15691562	0.102109	0.135335	-9.808017				-0.005104	-0.000744	-0.001056				179.231581	-0.536912	-18.513961
00196	15691612	0.120049	0.114068	-9.840219				-0.004985	0.002593	-0.000910				179.230151	-0.537651	-18.513689
00197	15691662	0.117298	0.112203	-9.821750				-0.004567	-0.000536	-0.001411				179.231007	-0.537160	-18.513899
00198	15691712	0.113755	0.108044	-9.829878				-0.004175	-0.002927	-0.001840				179.229806	-0.536315	-18.513384
00199	15691762	0.118018	0.104464	-9.812640				-0.003575	-0.001718	-0.003540				179.230940	-0.535477	-18.512980
00200	15691812	0.087069	0.116342	-9.835984				-0.005470	0.000707	-0.002009				179.229368	-0.535672	-18.512401
00201	15691862	0.106925	0.114879	-9.837038				-0.002983	0.001982	-0.002041				179.230676	-0.535900	-18.512413
00202	15691912	0.090138	0.122186	-9.830478				-0.003040	0.001818	-0.001369				179.229802	-0.536415	-18.512011
00203	15691962	0.101717	0.126570	-9.809209				-0.006101	-0.000495	0.001385				179.230227	-0.535946	-18.513021
00204	15692012	0.091182	0.135434	-9.827140				-0.003959	0.004911	0.001217				179.229095	-0.537358	-18.513347
00205	15692062	0.103544	0.128142	-9.814734				-0.006366	0.002532	-0.003699				179.229431	-0.537737	-18.512873
00206	15692112	0.101098	0.126527	-9.824793				-0.002610	-0.000628	-0.000611				179.228681	-0.537554	-18.512699
00207	15692162	0.091249	0.131623	-9.830490				-0.001238	0.004990	0.000504				179.230497	-0.538654	-18.513442
00208	15692212	0.123686	0.104377	-9.800692				-0.002498	-0.000206	-0.000551				179.229780	-0.538592	-18.513285
00209	15692262	0.116303	0.107524	-9.833961				-0.009406	0.001678	0.000410				179.229255	-0.538742	-18.513983
00210	15692312	0.116240	0.131615	-9.835410				-0.003937	0.001098	0.002351				179.228133	-0.539066	-18.514653
00211	15692362	0.110853	0.131626	-9.828192				-0.002232	-0.001532	-0.002224				179.229656	-0.538287	-18.514596
00212	15692412	0.107559	0.112968	-9.832006				-0.003511	-0.000453	0.000221				179.228651	-0.538158	-18.514662
00213	15692462	0.100500	0.122172	-9.825498				-0.000669	-0.001378	-0.002642				179.230621	-0.537421	-18.514502
00214	15692512	0.119811	0.113446	-9.816970				0.000651	-0.001481	-0.002169				179.230802	-0.536988	-18.513889
00215	15692562	0.110883	0.124646	-9.804706				-0.001553	0.002690	0.001068				179.232528	-0.537431	-18.514792
00216	15692612	0.090296	0.146381	-9.840071				-0.006706	0.000433	0.001875				179.230613	-0.537562	-18.515326
00217	15692662	0.099862	0.129912	-9.815674				-0.002649	-0.000407	-0.002506				179.232016	-0.537103	-18.515213
00218	15692712	0.103668	0.121433	-9.819287				-0.001854	0.002902	-0.002360				179.231478	-0.537926	-18.514521
00219	15692762	0.116058	0.117019	-9.841880				-0.002820	-0.002892	0.002035				179.232845	-0.536773	-18.515732
00220	15692812	0.105475	0.123009	-9.838709				-0.005504	-0.003527	-0.001711				179.231264	-0.535756	-18.515258
00221	15692862	0.098453	0.132083	-9.825497				-0.008224	-0.000505	-0.002525				179.231070	-0.535269	-18.515113
00222	15692912	0.087024	0.112910	-9.812257				-0.004917	0.001529	-0.000210				179.229661	-0.535706	-18.515046
00223	15692962	0.092153	0.115829	-9.832169				-0.002497	0.003961	-0.002033				179.231109	-0.536501	-18.515054
00224	15693012	0.088951	0.122477	-9.841741				-0.000630	0.000663	-0.001446				179.230925	-0.536685	-18.514641
00225	15693062	0.111203	0.110316	-9.838490				-0.003964	-0.000394	-0.001160				179.231955	-0.536236	-18.514924
00226	15693112	0.098258	0.135381	-9.830282				-0.003080	0.002109	-0.000018				179.231073	-0.536840	-18.514913
00227	15693162	0.121218	0.115075	-9.834232				-0.004842	0.002815	-0.003863				179.231844	-0.537299	-18.514374
00228	15693212	0.112038	0.134586	-9.812142				-0.005786	0.003444	-0.003888				179.230176	-0.538271	-18.513246
00229	15693262	0.100000	0.123492	-9.825978				-0.004280	0.000567	-0.001468				179.231115	-0.538095	-18.513430
00230	15693312	0.113560	0.124558	-9.820053				-0.006606	0.001110	-0.001461				179.229219	-0.538408	-18.513005
00231	15693362	0.103724	0.125455	-9.842529				-0.005315	0.002071	0.000726				179.229868	-0.538672	-18.513831
00232	15693412	0.122347	0.126803	-9.825620				-0.003485	-0.000164	-0.000709				179.228868	-0.538622	-18.513631
00233	15693462	0.113003	0.119586	-9.835869				-0.005940	0.000641	0.001517				179.229340	-0.538479	-18.514653
00234	15693512	0.124002	0.107831	-9.819866				-0.005810	0.000577	0.001901				179.227681	-0.538652	-18.515192
00235	15693562	0.105831	0.142945	-9.835599				-0.006758	0.003684	-0.005261				179.227900	-0.539354	-18.514276
00236	15693612	0.118577	0.121159	-9.828234				-0.005816	-0.004759	-0.000437				179.226233	-0.537990	-18.514170
00237	15693662	0.095602	0.119774	-9.826674				0.000042	0.001783	-0.000252				179.228415	-0.538167	-18.514718
00238	15693712	0.114542	0.124526	-9.809756				-0.002151	0.002088	-0.003520				179.227789	-0.538751	-18.513703
00239	15693762	0.088937	0.104193	-9.832153				-0.003722	0.004328	-0.001419				179.228889	-0.539654	-18.513891
00240	15693812	0.076068	0.124558	-9.813623				-0.001646	-0.001945	-0.003118				179.228409	-0.539084	-18.513005
00241	15693862	0.089232	0.119704	-9.847010				-0.006279	-0.001445	-0.004588				179.228768	-0.538320	-18.512313
00242	15693912	0.086435	0.119921	-9.814649				-0.001422	-0.000604	0.000638				179.228362	-0.538150	-18.512497
00243	15693962	0.108300	0.111626	-9.837283				-0.004875	0.001008	-0.001175				179.229133	-0.538101	-18.512752
00244	15694012	0.096516	0.119303	-9.819487				-0.004365	0.002116	-0.002774				179.227875	-0.538697	-18.511950
00245	15694062	0.094545	0.125844	-9.828351				-0.004962	-0.000054	0.000297				179.228625	-0.538350	-18.512651
00246	15694112	0.090804	0.129589	-9.816112				-0.002575	0.000272	-0.002340				179.227881	-0.538419	-18.511978
00247	15694162	0.105688	0.126005	-9.820257				-0.005263	0.000325	-0.001055				179.228541	-0.538176	-18.512284
00248	15694212	0.109270	0.114116	-9.830581				-0.001665	0.000838	-0.002115				179.228058	-0.538408	-18.511672
00249	15694262	0.117347	0.125211	-9.817923				-0.004420	0.000988	-0.000888				179.228959	-0.538355	-18.512002
00250	15694312	0.128717	0.120793	-9.822525				0.000005	0.002841	-0.002304				179.228955	-0.539160	-18.511332
00251	15694362	0.111312	0.115006	-9.825801				-0.002620	0.000695	-0.000542				179.230373	-0.539025	-18.511790
00252	15694412	0.109665	0.110508	-9.814996				-0.000577	0.000091	0.001405				179.230212	-0.539056	-18.512189
00253	15694462	0.117176	0.125335	-9.820313				-0.007274	0.002034	-0.000685				179.230297	-0.539304	-18.512584
00254	15694512	0.119909	0.119744	-9.841416				-0.006028	-0.002245	-0.003215				179.228561	-0.538648	-18.511672
00255	15694562	0.124374	0.110789	-9.803576				-0.003976	0.002160	-0.001013				179.229590	-0.538931	-18.511978
00256	15694612	0.110991	0.116756	-9.813092				-0.003307	0.000363	0.000547				179.228644	-0.539037	-18.512132
00257	15694662	0.095099	0.129014	-9.832422				-0.006368	-0.004513	-0.001264				179.228987	-0.537407	-18.512411
00258	15694712	0.107733	0.138451	-9.827938				-0.000971	-0.000898	-0.001708				179.228705	-0.537143	-18.511925
00259	15694762	0.115120	0.119827	-9.825096				-0.003366	0.001971	-0.001722				179.229906	-0.537369	-18.512024
00260	15694812	0.095913	0.122528	-9.813736				-0.005830	0.000831	-0.001942				179.228231	-0.537599	-18.511461
00261	15694862	0.119678	0.110497	-9.814333				-0.006528	0.001761	-0.000781				179.228529	-0.537768	-18.511830
00262	15694912	0.101208	0.116700	-9.815917				-0.004426	0.000083	0.000294				179.227262	-0.537793	-18.511915
00263	15694962	0.082042	0.120786	-9.834271				-0.006003	0.001248	-0.000654				179.227712	-0.537816	-18.512336
00264	15695012	0.077776	0.134733	-9.830662				-0.006101	0.000636	0.001267				179.225967	-0.538003	-18.512692
00265	15695062	0.092664	0.109577	-9.826657				-0.002247	0.003125	-0.001943				179.227489	-0.538558	-18.512739
00266	15695112	0.114171	0.099638	-9.821248				-0.004571	0.002269	-0.004442				179.226168	-0.539191	-18.511459
00267	15695162	0.095479	0.149809	-9.832197				-0.003871	0.001770	-0.001813				179.227225	-0.539359	-18.511528
00268	15695212	0.095254	0.125755	-9.827154				-0.003286	-0.000414	0.000289				179.226284	-0.539241	-18.511612
00269	15695262	0.114220	0.122356	-9.835875				-0.003611	0.002876	-0.000144				179.227421	-0.539732	-18.512171
00270	15695312	0.122358	0.127555	-9.848861				-0.001105	0.003733	-0.000214				179.227104	-0.540801	-18.512089
00271	15695362	0.100129	0.130487	-9.818549				-0.004926	0.001489	-0.004028				179.227853	-0.540879	-18.511540
00272	15695412	0.114792	0.123979	-9.820304				-0.002597	0.001756	-0.003809				179.227099	-0.541367	-18.510438
00273	15695462	0.118145	0.122709	-9.832537				-0.008248	-0.000401	0.001842				179.226913	-0.540927	-18.511589
00274	15695512	0.125308	0.113539	-9.823229				-0.003579	-0.000884	-0.006005				179.225871	-0.540651	-18.509875
00275	15695562	0.115159	0.104345	-9.838990				-0.002652	0.001664	-0.002078				179.227277	-0.540787	-18.509875
00276	15695612	0.112741	0.123348	-9.821492				-0.005082	-0.004552	0.000589				179.225823	-0.539485	-18.510063
00277	15695662	0.098396	0.117636	-9.820931				-0.003605	-0.000682	-0.001734				179.226958	-0.538951	-18.510174
00278	15695712	0.099650	0.127097	-9.817114				-0.003128	-0.002383	0.000662				179.226064	-0.538270	-18.510374
00279	15695762	0.095626	0.133876	-9.816373				-0.003037	0.002856	-0.001204				179.227362	-0.538752	-18.510660
00280	15695812	0.102885	0.126646	-9.831510				-0.004308	-0.000659	-0.001350				179.226125	-0.538557	-18.510276
00281	15695862	0.099757	0.136027	-9.813043				-0.004592	-0.001732	-0.000612				179.226980	-0.537727	-18.510730
00282	15695912	0.087626	0.117787	-9.822556				-0.003012	-0.001355	-0.003376				179.226108	-0.537326	-18.509769
00283	15695962	0.085824	0.117698	-9.834774				-0.004442	-0.001536	-0.000995				179.227005	-0.536549	-18.510105
00284	15696012	0.104408	0.118170	-9.831989				-0.004970	0.000843	-0.002811				179.225574	-0.536780	-18.509296
00285	15696062	0.099999	0.122558	-9.814956				-0.003097	0.000621	-0.001504				179.226854	-0.536619	-18.509441
00286	15696112	0.111839	0.126150	-9.817171				-0.007501	-0.001078	-0.002629				179.224698	-0.536300	-18.508691
00287	15696162	0.093465	0.132984	-9.836014				-0.003378	-0.001974	-0.003151				179.225893	-0.535390	-18.508412
00288	15696212	0.106887	0.111391	-9.826248				-0.002193	0.001118	-0.004677				179.225252	-0.535692	-18.507070
00289	15696262	0.094588	0.115819	-9.812532				-0.003561	0.003432	0.001369				179.226407	-0.536348	-18.508048
00290	15696312	0.095805	0.115099	-9.824030				-0.004508	-0.000864	-0.004461				179.225104	-0.536083	-18.506774
00291	15696362	0.113772	0.115362	-9.831798				-0.000931	0.001017	-0.000480				179.227008	-0.536040	-18.507255
00292	15696412	0.125324	0.120285	-9.816289				-0.003240	0.003843	-0.004984				179.226067	-0.537122	-18.505809
00293	15696462	0.094855	0.144639	-9.835306				-0.003509	0.000481	-0.002369				179.227227	-0.536918	-18.505742
00294	15696512	0.116054	0.138878	-9.826070				-0.006056	0.001086	0.000112				179.225492	-0.537230	-18.505771
00295	15696562	0.109729	0.120629	-9.821956				-0.002104	-0.000658	-0.003442				179.227052	-0.536696	-18.505381
00296	15696612	0.123185	0.116557	-9.809316				-0.002599	0.002857	-0.003996				179.226296	-0.537499	-18.504224
00297	15696662	0.107377	0.119972	-9.835358				-0.006416	0.003378	-0.000840				179.226628	-0.538130	-18.504599
00298	15696712	0.113710	0.122592	-9.836827				-0.002028	0.000253	-0.000673				179.226045	-0.538200	-18.504407
00299	15696762	0.120312	0.102820	-9.825358				-0.003854	0.001991	-0.003903				179.227103	-0.538423	-18.503891
00300	15696812	0.103745	0.109748	-9.827913				-0.004082	-0.000855	-0.001924				179.225929	-0.538171	-18.503342
00301	15696862	0.089056	0.124668	-9.846527				-0.006872	-0.003748	-0.001387				179.226129	-0.536759	-18.503533
00302	15696912	0.114698	0.116103	-9.827488				-0.004955	0.001758	0.001330				179.224713	-0.537268	-18.503906
00303	15696962	0.111280	0.114007	-9.825555				-0.001431	-0.000449	-0.001577				179.226471	-0.536801	-18.504050
00304	15697012	0.102358	0.119586	-9.812567				-0.005175	-0.000579	-0.001281				179.224985	-0.536630	-18.503683
00305	15697062	0.094042	0.126965	-9.835292				-0.000484	-0.002080	-0.001072				179.227016	-0.535698	-18.504002
00306	15697112	0.094456	0.127019	-9.828102				-0.003097	-0.002613	-0.002546				179.226122	-0.534939	-18.503286
00307	15697162	0.098392	0.110216	-9.830523				-0.005314	0.003109	0.000441				179.226773	-0.535499	-18.503983
00308	15697212	0.092776	0.130626	-9.822352				-0.001802	-0.000713	0.000378				179.226258	-0.535296	-18.504090
00309	15697262	0.099112	0.136189	-9.821670				-0.002807	0.000428	-0.002405				179.227621	-0.535077	-18.504019
00310	15697312	0.098965	0.139688	-9.845629				-0.005953	-0.000241	-0.001211				179.225912	-0.535003	-18.503674
00311	15697362	0.122724	0.114588	-9.821053				-0.001694	-0.000264	-0.001352				179.227597	-0.534589	-18.503911
00312	15697412	0.098267	0.117839	-9.834840				-0.003751	0.002131	0.000431				179.226523	-0.535201	-18.504025
00313	15697462	0.115224	0.124573	-9.822220				-0.006224	-0.000792	-0.000862				179.226910	-0.534639	-18.504402
00314	15697512	0.099865	0.146355	-9.833893				-0.002883	0.002816	-0.004444				179.226072	-0.535428	-18.503116
00315	15697562	0.108108	0.122010	-9.817392				-0.003388	0.001879	0.000304				179.227276	-0.535635	-18.503780
00316	15697612	0.117723	0.112096	-9.810729				-0.006394	0.000598	0.000139				179.225444	-0.535807	-18.503818
00317	15697662	0.115845	0.123338	-9.820790				-0.004704	0.004824	-0.003595				179.226260	-0.536842	-18.503381
00318	15697712	0.110305	0.108247	-9.801579				-0.004275	0.000339	-0.002563				179.225029	-0.536929	-18.502649
00319	15697762	0.121316	0.096452	-9.820804				-0.005668	-0.000365	-0.002275				179.225571	-0.536483	-18.502584
00320	15697812	0.109958	0.121934	-9.830341				-0.003479	-0.003420	0.001492				179.224579	-0.535509	-18.503027
00321	15697862	0.093270	0.143133	-9.830021				-0.003275	-0.003679	0.001939				179.225819	-0.534131	-18.504207
00322	15697912	0.109537	0.116969	-9.809244				-0.004142	-0.001149	-0.004882				179.224620	-0.533783	-18.502811
00323	15697962	0.099304	0.131394	-9.836999				-0.002123	0.002287	-0.001496				179.226181	-0.534099	-18.502951
00324	15698012	0.106128	0.103995	-9.820490				-0.003682	-0.001333	-0.002445				179.225119	-0.533708	-18.502257
00325	15698062	0.107033	0.144465	-9.818589				-0.001086	-0.001289	-0.001934				179.226977	-0.532998	-18.502336
00326	15698112	0.092516	0.119816	-9.831212				-0.003508	0.000587	0.000997				179.225974	-0.533170	-18.502616
00327	15698162	0.098243	0.119661	-9.828368				-0.002322	0.003444	-0.001813				179.227477	-0.533817	-18.502698
00328	15698212	0.099856	0.122933	-9.837959				-0.003093	0.000560	0.000067				179.226591	-0.533978	-18.502718
00329	15698262	0.102413	0.116992	-9.817842				-0.006668	0.000438	0.003157				179.226863	-0.533783	-18.504225
00330	15698312	0.103562	0.114339	-9.814494				-0.006498	-0.002448	-0.002282				179.224995	-0.533073	-18.503581
00331	15698362	0.113271	0.137488	-9.845938				-0.005314	-0.001428	-0.003080				179.225638	-0.532319	-18.503304
00332	15698412	0.108535	0.126657	-9.806134				-0.007562	0.002799	-0.004268				179.223460	-0.533105	-18.502070
00333	15698462	0.115189	0.126586	-9.820064				-0.002383	0.001442	0.000262				179.224952	-0.533186	-18.502763
00334	15698512	0.112833	0.120695	-9.835150				-0.004955	0.002491	-0.003900				179.223522	-0.533885	-18.501637
00335	15698562	0.127004	0.119221	-9.842649				-0.002111	-0.003301	0.000365				179.225092	-0.532608	-18.502365
00336	15698612	0.095841	0.147211	-9.805112				-0.000848	0.002667	0.000363				179.224850	-0.533373	-18.502456
00337	15698662	0.111978	0.125652	-9.810225				-0.002597	-0.001895	-0.000267				179.226279	-0.532496	-18.503004
00338	15698712	0.106363	0.113323	-9.828644				-0.001182	0.000585	-0.003818				179.225931	-0.532649	-18.501906
00339	15698762	0.105332	0.129508	-9.815947				-0.001773	-0.001679	0.000051				179.227597	-0.531835	-18.502547
00340	15698812	0.112525	0.131300	-9.825327				-0.007497	-0.000103	-0.001787				179.225444	-0.531799	-18.502037
00341	15698862	0.102029	0.113616	-9.815439				-0.004371	0.000504	0.001196				179.226369	-0.531616	-18.502977
00342	15698912	0.107793	0.132362	-9.822665				-0.005683	0.001582	0.001073				179.224744	-0.532073	-18.503274
00343	15698962	0.090229	0.127728	-9.823774				-0.002093	0.000414	-0.000096				179.226318	-0.531859	-18.503882
00344	15699012	0.114057	0.112270	-9.827241				-0.003060	0.001395	-0.000285				179.225440	-0.532257	-18.503794
00345	15699062	0.103845	0.129503	-9.831274				-0.002927	0.003534	0.001048				179.226778	-0.532941	-18.504679
00346	15699112	0.112359	0.123237	-9.820290				-0.001752	-0.000320	-0.000551				179.226275	-0.532847	-18.504521
00347	15699162	0.094395	0.125894	-9.804378				-0.003894	-0.000621	-0.001601				179.227329	-0.532330	-18.504670
00348	15699212	0.107080	0.132935	-9.837761				-0.002280	0.000384	0.002473				179.226683	-0.532449	-18.505380
00349	15699262	0.102778	0.133045	-9.854993				0.000894	0.003087	-0.000313				179.229112	-0.533000	-18.505886
00350	15699312	0.103190	0.114000	-9.833179				-0.000384	0.006162	-0.000680				179.229000	-0.534762	-18.505665
00351	15699362	0.103945	0.115033	-9.825994				-0.005970	0.000381	0.001841				179.229469	-0.534546	-18.506801
00352	15699412	0.108597	0.105220	-9.824340				-0.002190	0.000150	-0.002730				179.228834	-0.534578	-18.506015
00353	15699462	0.127775	0.112560	-9.830427				-0.007119	-0.002436	-0.006454				179.228952	-0.533523	-18.504783
00354	15699512	0.119744	0.107955	-9.832306				-0.004674	-0.002218	0.000343				179.227614	-0.532889	-18.504893
00355	15699562	0.118697	0.124707	-9.817924				-0.003656	0.005365	0.000223				179.228741	-0.534094	-18.505534
00356	15699612	0.132682	0.104565	-9.823505				-0.002914	0.002721	-0.003292				179.227898	-0.534861	-18.504576
00357	15699662	0.113321	0.114039	-9.802554				-0.004420	0.000855	-0.001788				179.228801	-0.534766	-18.504663
00358	15699712	0.117563	0.108836	-9.828219				-0.007509	-0.001912	-0.001285				179.226647	-0.534213	-18.504303
00359	15699762	0.106450	0.133080	-9.825776				-0.005925	0.004900	-0.002756				179.227116	-0.535274	-18.504110
00360	15699812	0.113230	0.110481	-9.829153				0.001309	-0.001986	0.000393				179.227493	-0.534706	-18.504234
00361	15699862	0.117675	0.121181	-9.799706				-0.005230	-0.003105	-0.002836				179.228162	-0.533473	-18.504027
00362	15699912	0.118327	0.116472	-9.805937				-0.004169	-0.000008	-0.000481				179.226966	-0.533469	-18.503886
00363	15699962	0.091407	0.123353	-9.816826				-0.000583	0.000186	-0.000744				179.228971	-0.533187	-18.504242
00364	15700012	0.093568	0.137021	-9.817804				-0.003342	0.000004	-0.002886				179.228006	-0.533177	-18.503414
00365	15700062	0.081199	0.144711	-9.822295				-0.003633	0.002364	-0.001360				179.229136	-0.533516	-18.503626
00366	15700112	0.103287	0.121581	-9.815443				-0.000179	-0.001552	-0.000565				179.229083	-0.533069	-18.503471
00367	15700162	0.111123	0.105831	-9.833933				-0.008520	0.002759	-0.002508				179.228811	-0.533517	-18.503339
00368	15700212	0.112428	0.121827	-9.834187				-0.005235	-0.000867	-0.001310				179.227308	-0.533264	-18.502967
00369	15700262	0.096081	0.109070	-9.809177				-0.002542	0.000414	0.000512				179.228756	-0.533051	-18.503724
00370	15700312	0.101246	0.122088	-9.812086				-0.004989	0.001989	0.002262				179.227333	-0.533630	-18.504365
00371	15700362	0.110305	0.124388	-9.820283				-0.001109	0.003700	-0.001203				179.229187	-0.534352	-18.504610
00372	15700412	0.092176	0.133944	-9.838168				-0.002763	0.003148	-0.002839				179.228387	-0.535243	-18.503782
00373	15700462	0.118545	0.116671	-9.835179				-0.001169	0.002373	-0.002624				179.230220	-0.535580	-18.503620
00374	15700512	0.113641	0.113829	-9.819095				-0.005985	-0.001168	0.000992				179.228508	-0.535249	-18.503906
00375	15700562	0.100135	0.110538	-9.817824				-0.004918	0.000875	-0.006338				179.229258	-0.535143	-18.502709
00376	15700612	0.089729	0.115994	-9.813944				-0.002325	-0.001956	-0.003987				179.228582	-0.534567	-18.501573
00377	15700662	0.108516	0.128795	-9.823871				-0.005443	0.000942	-0.000246				179.229196	-0.534503	-18.502070
00378	15700712	0.107336	0.122495	-9.807565				-0.002097	0.000253	-0.002474				179.228589	-0.534566	-18.501362
00379	15700762	0.112726	0.132502	-9.840184				-0.008086	0.003348	-0.003368				179.228438	-0.535180	-18.500957
00380	15700812	0.121821	0.115933	-9.802605				-0.001158	-0.001986	-0.000047				179.228106	-0.534610	-18.500948
00381	15700862	0.116715	0.121201	-9.837807				-0.002947	-0.002350	-0.001841				179.229433	-0.533597	-18.501015
00382	15700912	0.136915	0.101131	-9.812741				-0.002753	0.001664	-0.002911				179.228636	-0.534063	-18.500176
00383	15700962	0.112345	0.131555	-9.817418				-0.005321	0.003074	-0.001389				179.229283	-0.534605	-18.500369
00384	15701012	0.117527	0.127044	-9.812892				-0.004981	0.000200	-0.003330				179.227848	-0.534650	-18.499419
00385	15701062	0.095276	0.120082	-9.820440				-0.005803	-0.001036	-0.000898				179.228358	-0.534017	-18.499778
00386	15701112	0.119704	0.127947	-9.823204				-0.004130	-0.000334	-0.003178				179.227167	-0.533910	-18.498870
00387	15701162	0.107166	0.122874	-9.821219				-0.010020	0.000568	-0.001614				179.226468	-0.533733	-18.499030
00388	15701212	0.112742	0.137042	-9.827005				0.000134	-0.000160	-0.001550				179.226502	-0.533681	-18.498584
00389	15701262	0.117628	0.108240	-9.826546				-0.002891	0.000246	0.000481				179.227851	-0.533421	-18.499313
00390	15701312	0.095640	0.106327	-9.813251				-0.002345	-0.001015	-0.002477				179.227173	-0.533121	-18.498607
00391	15701362	0.115537	0.105392	-9.831803				-0.001290	0.002239	-0.001150				179.228976	-0.533425	-18.498899
00392	15701412	0.113685	0.118404	-9.837313				-0.005176	-0.000736	-0.001123				179.227490	-0.533210	-18.498575
00393	15701462	0.101444	0.121315	-9.819990				-0.008124	-0.000566	-0.001399				179.227335	-0.532710	-18.498761
00394	15701512	0.095741	0.127311	-9.820930				-0.002571	0.002988	-0.004283				179.226586	-0.533549	-18.497518
00395	15701562	0.094873	0.126849	-9.841767				-0.000326	0.000294	0.001694				179.228674	-0.533307	-18.498621
00396	15701612	0.101427	0.138767	-9.815205				-0.003491	0.000516	-0.005544				179.227659	-0.533433	-18.497027
00397	15701662	0.105263	0.116881	-9.829834				-0.002011	-0.001623	-0.002706				179.229251	-0.532625	-18.496870
00398	15701712	0.125015	0.115716	-9.813400				-0.001534	-0.001684	-0.006370				179.228795	-0.532118	-18.495051
00399	15701762	0.117105	0.118832	-9.819113				-0.005153	-0.000513	-0.002884				179.229488	-0.531627	-18.494823
00400	15701812	0.113491	0.126190	-9.809997				-0.003299	0.001013	-0.000417				179.228541	-0.531916	-18.494697
00401	15701862	0.118477	0.111697	-9.816001				-0.003197	0.001951	0.001358				179.229805	-0.532148	-18.495675
00402	15701912	0.111891	0.130356	-9.826518				0.001523	0.000548	-0.001066				179.230239	-0.532300	-18.495368
00403	15701962	0.112764	0.110838	-9.823406				-0.006037	0.000283	-0.001270				179.230682	-0.532044	-18.495626
00404	15702012	0.101178	0.133124	-9.825030				-0.001904	0.002854	0.002997				179.230145	-0.532873	-18.496468
00405	15702062	0.116771	0.122090	-9.812877				-0.006426	0.005905	0.000779				179.230482	-0.534235	-18.497275
00406	15702112	0.130424	0.112374	-9.831882				-0.007109	0.000976	0.000497				179.228447	-0.534516	-18.497416
00407	15702162	0.105643	0.124961	-9.820736				-0.006646	-0.000897	-0.002948				179.228711	-0.533915	-18.497189
00408	15702212	0.092038	0.126953	-9.821386				-0.000781	-0.001893	-0.002453				179.228481	-0.533364	-18.496498
00409	15702262	0.100263	0.122313	-9.828376				-0.003137	-0.002314	-0.000656				179.229757	-0.532365	-18.496881
00410	15702312	0.080436	0.121732	-9.822284				-0.005265	-0.001001	-0.002979				179.228241	-0.532067	-18.496030
00411	15702362	0.106467	0.110980	-9.829365				-0.002372	0.004097	-0.001328				179.229734	-0.532903	-18.496243
00412	15702412	0.085160	0.135728	-9.828059				-0.008181	0.002182	-0.003213				179.227382	-0.533516	-18.495318
00413	15702462	0.119407	0.106122	-9.842367				-0.002894	0.001883	-0.005155				179.228716	-0.533702	-18.494434
00414	15702512	0.084063	0.121002	-9.827332				0.001135	-0.001664	-0.002071				179.229036	-0.533217	-18.493850
00415	15702562	0.102538	0.122758	-9.823115				-0.004088	0.005749	-0.001055				179.230038	-0.534528	-18.494118
00416	15702612	0.125117	0.094343	-9.839279				-0.004711	-0.002924	0.002041				179.228694	-0.533698	-18.494714
00417	15702662	0.091940	0.128310	-9.834328				-0.006018	0.001063	0.000655				179.229149	-0.533673	-18.495525
00418	15702712	0.103911	0.132715	-9.819534				-0.006120	0.000828	-0.001141				179.227393	-0.533905	-18.495195
00419	15702762	0.108262	0.134441	-9.810684				-0.003561	0.005307	-0.000227				179.228549	-0.535092	-18.495724
00420	15702812	0.128575	0.115329	-9.823242				-0.005884	0.003777	0.000121				179.226864	-0.536174	-18.495742
00421	15702862	0.116176	0.117471	-9.816236				0.000513	-0.001183	-0.000694				179.229186	-0.535500	-18.496178
00422	15702912	0.110324	0.131607	-9.806145				-0.004540	0.002097	0.002965				179.227893	-0.536112	-18.497022
00423	15702962	0.106531	0.130824	-9.807564				-0.003400	0.002602	0.003897				179.229107	-0.536540	-18.498733
00424	15703012	0.095933	0.132060	-9.820457				-0.002901	0.003570	-0.002161				179.228270	-0.537554	-18.498097
00425	15703062	0.112916	0.110811	-9.810708				-0.004356	0.000024	0.000840				179.229201	-0.537231	-18.498973
00426	15703112	0.103084	0.111821	-9.822631				-0.004918	0.001564	-0.000631				179.227791	-0.537677	-18.498789
00427	15703162	0.105319	0.108178	-9.818814				-0.003127	-0.001838	-0.003375				179.229064	-0.536805	-18.498456
00428	15703212	0.099782	0.123524	-9.818549				-0.002888	-0.000020	-0.001509				179.228232	-0.536793	-18.498025
00429	15703262	0.099755	0.127021	-9.833646				0.000153	-0.001002	-0.002197				179.230447	-0.536165	-18.497997
00430	15703312	0.118152	0.112540	-9.819839				-0.008787	-0.003865	0.001404				179.227934	-0.535063	-18.498414
00431	15703362	0.102348	0.110972	-9.821676				-0.001244	0.001723	-0.000541				179.229753	-0.535221	-18.498864
00432	15703412	0.116686	0.110033	-9.834212				-0.003438	0.001299	0.000300				179.228769	-0.535595	-18.498945
00433	15703462	0.097624	0.116546	-9.814700				-0.001834	-0.001037	-0.002643				179.230414	-0.534954	-18.498792
00434	15703512	0.123336	0.100108	-9.817225				-0.002377	-0.001714	0.001945				179.229739	-0.534471	-18.499359
00435	15703562	0.103729	0.118558	-9.828397				-0.004992	0.002283	0.003548				179.230495	-0.534806	-18.500960
00436	15703612	0.086609	0.117767	-9.835974				-0.003355	0.001658	-0.000692				179.229532	-0.535278	-18.500753
00437	15703662	0.111625	0.114311	-9.821721				-0.005356	0.002434	0.001621				179.230180	-0.535649	-18.501815
00438	15703712	0.109059	0.121814	-9.817394				-0.004216	0.002003	0.003513				179.228982	-0.536236	-18.502811
00439	15703762	0.107442	0.133187	-9.805408				-0.004224	0.002836	-0.000270				179.229949	-0.536714	-18.503315
00440	15703812	0.104509	0.138600	-9.833916				-0.004177	0.004749	0.001217				179.228755	-0.538079	-18.503641
00441	15703862	0.123108	0.127322	-9.822980				0.001273	0.001115	-0.004403				179.231285	-0.538049	-18.502942
00442	15703912	0.096934	0.131215	-9.805355				-0.005507	-0.000425	-0.004683				179.229695	-0.537909	-18.501603
00443	15703962	0.093947	0.129622	-9.825712				-0.007379	-0.000007	-0.003774				179.229749	-0.537560	-18.501151
00444	15704012	0.131613	0.109728	-9.822063				-0.001531	0.000617	-0.002220				179.229304	-0.537728	-18.500513
00445	15704062	0.115052	0.115461	-9.812155				-0.006976	0.000519	-0.003550				179.229474	-0.537530	-18.500091
00446	15704112	0.128248	0.105910	-9.807905				-0.002578	0.000709	0.002918				179.228744	-0.537744	-18.500921
00447	15704162	0.100903	0.117192	-9.807295				-0.002642	0.000241	-0.003143				179.230156	-0.537468	-18.500622
00448	15704212	0.097533	0.118130	-9.824761				-0.000661	0.000673	0.000543				179.229968	-0.537663	-18.500776
00449	15704262	0.105923	0.122816	-9.824811				-0.005864	-0.002075	-0.000386				179.230466	-0.536735	-18.501278
00450	15704312	0.108589	0.126348	-9.839444				-0.003685	-0.000130	-0.001187				179.229407	-0.536693	-18.500939
00451	15704362	0.101504	0.123807	-9.833176				-0.002951	0.000913	-0.004201				179.230728	-0.536605	-18.500345
00452	15704412	0.097467	0.127346	-9.832438				-0.006487	-0.003735	-0.000875				179.228868	-0.535532	-18.500106
00453	15704462	0.098280	0.129895	-9.827647				-0.005121	0.000354	-0.005607				179.229564	-0.535279	-18.499094
00454	15704512	0.118285	0.107039	-9.820316				-0.006156	0.000726	-0.005186				179.227786	-0.535467	-18.497605
00455	15704562	0.098520	0.129769	-9.823339				-0.004864	0.000820	-0.000053				179.228571	-0.535369	-18.498184
00456	15704612	0.099348	0.122599	-9.806085				-0.003084	-0.001797	-0.000040				179.227687	-0.534854	-18.498177
00457	15704662	0.107361	0.124626	-9.818584				-0.003085	0.001506	0.002093				179.228987	-0.534961	-18.499396
00458	15704712	0.101933	0.122905	-9.832703				-0.005310	-0.002355	0.000087				179.227466	-0.534287	-18.499430
00459	15704762	0.113389	0.131684	-9.840425				-0.005369	0.002457	-0.003157				179.228098	-0.534646	-18.499118
00460	15704812	0.107549	0.108053	-9.837040				-0.005443	0.003011	-0.000618				179.226537	-0.535506	-18.498927
00461	15704862	0.111139	0.108907	-9.819084				-0.000437	0.000475	-0.001641				179.228586	-0.535303	-18.499085
00462	15704912	0.117094	0.130443	-9.839005				-0.001404	-0.002651	-0.004350				179.228172	-0.534526	-18.497847
00463	15704962	0.106780	0.128498	-9.810677				-0.000394	0.000056	-0.002540				179.230232	-0.534200	-18.497736
00464	15705012	0.119548	0.120896	-9.813863				-0.002544	0.001708	0.001642				179.229507	-0.534695	-18.498199
00465	15705062	0.117365	0.113293	-9.826063				-0.006343	0.002185	-0.000814				179.229867	-0.534985	-18.498570
00466	15705112	0.110012	0.130069	-9.840888				-0.007511	-0.001012	-0.004454				179.227703	-0.534678	-18.497296
00467	15705162	0.104779	0.134777	-9.801563				-0.004569	0.001372	-0.003707				179.228563	-0.534724	-18.496849
00468	15705212	0.112657	0.105069	-9.822923				-0.004319	0.002804	-0.001489				179.227322	-0.535521	-18.496411
00469	15705262	0.115939	0.108777	-9.825817				-0.007732	0.000152	-0.002043				179.227280	-0.535224	-18.496426
00470	15705312	0.108606	0.114530	-9.810443				-0.002662	-0.001149	-0.002129				179.226512	-0.534887	-18.495821
00471	15705362	0.105569	0.107773	-9.826483				-0.000641	0.003963	-0.003003				179.228499	-0.535678	-18.495541
00472	15705412	0.107321	0.121595	-9.811392				-0.003374	-0.000769	-0.000771				179.227530	-0.535454	-18.495325
00473	15705462	0.124019	0.109152	-9.821545				-0.001851	0.001744	-0.001025				179.229176	-0.535617	-18.495644
00474	15705512	0.118371	0.110008	-9.831820				-0.003652	0.000841	-0.002079				179.228124	-0.535850	-18.495045
00475	15705562	0.090213	0.128531	-9.836716				-0.006139	-0.001524	0.000614				179.228547	-0.535083	-18.495838
00476	15705612	0.092856	0.132779	-9.844630				-0.008745	-0.001921	0.003277				179.226050	-0.534546	-18.496785
00477	15705662	0.096212	0.123428	-9.828596				-0.003278	-0.000568	0.002439				179.227297	-0.534060	-18.498084
00478	15705712	0.098883	0.117708	-9.821175				-0.004836	-0.000145	-0.000734				179.225909	-0.534015	-18.497875
00479	15705762	0.102688	0.124431	-9.799870				-0.001128	-0.000889	-0.000717				179.227764	-0.533425	-18.498279
00480	15705812	0.112714	0.114091	-9.807830				-0.004593	0.002509	-0.000304				179.226447	-0.534142	-18.498185
00481	15705862	0.101415	0.112221	-9.824305				-0.002883	0.000121	0.001509				179.227805	-0.533850	-18.499218
00482	15705912	0.109705	0.112594	-9.822193				-0.003137	0.003052	-0.000367				179.226906	-0.534723	-18.499103
00483	15705962	0.116314	0.126816	-9.814555				-0.006183	-0.000406	-0.004322				179.227302	-0.534257	-18.498466
00484	15706012	0.103835	0.124138	-9.819285				-0.004026	0.002675	-0.001682				179.226144	-0.535017	-18.497974
00485	15706062	0.110485	0.131009	-9.819561				-0.002978	0.001954	-0.000761				179.227468	-0.535241	-18.498347
00486	15706112	0.123326	0.121087	-9.820587				-0.005143	0.000193	-0.003652				179.225985	-0.535282	-18.497303
00487	15706162	0.117141	0.108231	-9.809529				-0.002047	0.004713	-0.004692				179.227566	-0.536281	-18.496530
00488	15706212	0.115985	0.110469	-9.845943				-0.006535	-0.001276	-0.000925				179.225691	-0.535912	-18.496271
00489	15706262	0.109225	0.122827	-9.823628				-0.003550	-0.002125	0.001179				179.226858	-0.534975	-18.497245
00490	15706312	0.122393	0.128109	-9.833757				-0.001684	0.000552	-0.000643				179.226374	-0.535130	-18.497061
00491	15706362	0.104698	0.145010	-9.823132				-0.001003	-0.000153	-0.004788				179.228253	-0.534735	-18.496306
00492	15706412	0.115269	0.118816	-9.820543				-0.003202	-0.000186	-0.002022				179.227330	-0.534674	-18.495726
00493	15706462	0.095676	0.115439	-9.809895				0.001753	-0.001070	-0.003194				179.230004	-0.534023	-18.495440
00494	15706512	0.103670	0.118489	-9.828874				-0.002719	0.000496	-0.004489				179.229213	-0.534148	-18.494151
00495	15706562	0.107427	0.123210	-9.807569				-0.003927	-0.002458	-0.000458				179.230268	-0.533109	-18.494643
00496	15706612	0.091845	0.122959	-9.820425				-0.001837	-0.002272	-0.005948				179.229725	-0.532436	-18.492951
00497	15706662	0.103893	0.124714	-9.831743				-0.001720	0.000584	-0.002024				179.231408	-0.532263	-18.492981
00498	15706712	0.087392	0.122036	-9.824952				-0.000848	0.000047	-0.004271				179.231153	-0.532260	-18.491756
00499	15706762	0.113931	0.111284	-9.809748				-0.003082	0.002046	-0.002874				179.232443	-0.532502	-18.491514
00500	15706812	0.096733	0.136811	-9.819974				-0.001615	0.000494	-0.000101				179.231980	-0.532643	-18.491483
00501	15706862	0.115168	0.106261	-9.814310				0.000083	0.000290	-0.002027				179.234178	-0.532385	-18.491509
00502	15706912	0.103243	0.109105	-9.815930				-0.004031	0.001434	0.005947				179.233039	-0.532818	-18.493207
00503	15706962	0.102640	0.114392	-9.812571				-0.000872	-0.000688	0.000503				179.234971	-0.532290	-18.493962
00504	15707012	0.125256	0.122058	-9.818669				-0.006634	0.001785	-0.003770				179.233060	-0.532787	-18.492874
00505	15707062	0.112621	0.128265	-9.830600				-0.007202	0.000814	-0.000628				179.233175	-0.532685	-18.493298
00506	15707112	0.105273	0.133116	-9.817623				-0.003982	-0.002308	-0.004821				179.232022	-0.532006	-18.491927
00507	15707162	0.110379	0.128383	-9.828906				-0.003964	-0.001165	0.001986				179.233072	-0.531347	-18.493120
00508	15707212	0.120509	0.121941	-9.824645				0.000467	0.000103	-0.002963				179.233198	-0.531365	-18.492269
00509	15707262	0.107378	0.115623	-9.831771				-0.005543	0.002874	-0.002930				179.233782	-0.531844	-18.492058
00510	15707312	0.115547	0.124655	-9.833248				-0.003721	-0.000030	-0.001092				179.232713	-0.531831	-18.491746
00511	15707362	0.107991	0.099945	-9.833200				-0.004386	-0.000468	-0.003433				179.233628	-0.531351	-18.491352
00512	15707412	0.098621	0.119644	-9.826689				-0.004915	0.000399	-0.000119				179.232219	-0.531465	-18.491315
00513	15707462	0.101353	0.132109	-9.821437				-0.001444	0.000943	-0.002504				179.233979	-0.531392	-18.491203
00514	15707512	0.110368	0.128790	-9.823639				-0.003983	-0.000483	0.002120				179.232844	-0.531262	-18.491810
00515	15707562	0.107087	0.126746	-9.848304				-0.004600	0.000601	-0.000537				179.233705	-0.531099	-18.492233
00516	15707612	0.110347	0.124810	-9.844245				-0.002880	0.000988	0.000196				179.232880	-0.531383	-18.492285
00517	15707662	0.105098	0.131683	-9.819536				-0.003242	0.000499	0.001771				179.234136	-0.531200	-18.493386
00518	15707712	0.094224	0.111257	-9.824745				-0.001951	0.001064	0.000134				179.233577	-0.531505	-18.493419
00519	15707762	0.115076	0.109302	-9.808075				-0.002894	0.000205	-0.001126				179.234926	-0.531227	-18.493735
00520	15707812	0.111102	0.107898	-9.848556				-0.006375	0.002794	-0.002157				179.233094	-0.532019	-18.493105
00521	15707862	0.120250	0.111001	-9.833748				-0.004084	0.001352	-0.000633				179.234103	-0.532071	-18.493535
00522	15707912	0.109604	0.122749	-9.834647				-0.004627	-0.000826	-0.001282				179.232774	-0.531830	-18.493171
00523	15707962	0.093344	0.147408	-9.821155				-0.009365	0.003392	-0.002273				179.232266	-0.532460	-18.493105
00524	15708012	0.087527	0.130809	-9.818250				-0.005272	0.002461	-0.002322				179.230749	-0.533156	-18.492433
00525	15708062	0.097692	0.132616	-9.822605				-0.003457	-0.001122	0.000512				179.231941	-0.532504	-18.493162
00526	15708112	0.127319	0.111092	-9.829706				-0.004675	-0.000109	0.001157				179.230605	-0.532477	-18.493494
00527	15708162	0.144860	0.119443	-9.818769				-0.006256	0.003185	-0.002766				179.230985	-0.533046	-18.493273
00528	15708212	0.115999	0.131159	-9.814317				-0.007383	-0.002880	-0.002027				179.228865	-0.532213	-18.492705
00529	15708262	0.114534	0.101459	-9.823414				-0.001910	-0.000580	-0.000235				179.230497	-0.531713	-18.493213
00530	15708312	0.123798	0.114571	-9.816270				-0.003315	0.005028	0.003135				179.229556	-0.533165	-18.494089
00531	15708362	0.123204	0.106739	-9.814828				-0.003668	-0.001679	-0.000843				179.230683	-0.532348	-18.494484
00532	15708412	0.088012	0.130967	-9.831436				-0.004639	0.000628	-0.002043				179.229349	-0.532520	-18.493895
00533	15708462	0.105248	0.119787	-9.813542				-0.004770	0.000523	-0.005029				179.230150	-0.532318	-18.493063
00534	15708512	0.123887	0.120041	-9.811960				-0.007159	0.002427	-0.002481				179.228092	-0.533004	-18.492343
00535	15708562	0.120824	0.104713	-9.830631				0.000517	0.002593	-0.002982				179.230414	-0.533402	-18.492092
00536	15708612	0.094651	0.121299	-9.831469				-0.003432	-0.000092	-0.002534				179.229424	-0.533366	-18.491367
00537	15708662	0.100412	0.120961	-9.811604				-0.006831	0.000404	0.002068				179.229654	-0.533157	-18.492535
00538	15708712	0.091123	0.124026	-9.810837				-0.002044	0.000069	0.002149				179.229074	-0.533185	-18.493147
00539	15708762	0.110605	0.125466	-9.809740				-0.003212	0.000170	-0.001056				179.230332	-0.532896	-18.493454
00540	15708812	0.088550	0.147550	-9.825208				-0.006451	0.002144	-0.003666				179.228474	-0.533497	-18.492396
00541	15708862	0.088783	0.124000	-9.816575				-0.007713	0.000705	-0.002034				179.228441	-0.533358	-18.492439
00542	15708912	0.105713	0.134003	-9.816423				-0.001430	-0.002509	0.000339				179.228032	-0.532640	-18.492544
00543	15708962	0.100344	0.107484	-9.820220				-0.003044	-0.003482	-0.004124				179.229330	-0.531294	-18.491956
00544	15709012	0.103361	0.111342	-9.839894				-0.001936	0.001162	-0.002245				179.228770	-0.531618	-18.491305
00545	15709062	0.106549	0.127681	-9.817145				-0.004562	-0.000795	-0.002341				179.229638	-0.531049	-18.491255
00546	15709112	0.102283	0.115607	-9.818557				-0.005739	0.003528	0.002083				179.227999	-0.532067	-18.491837
00547	15709162	0.113927	0.132249	-9.800410				-0.001874	0.003624	-0.000336				179.229642	-0.532771	-18.492324
00548	15709212	0.116075	0.109205	-9.811917				-0.002570	-0.000852	-0.000556				179.228905	-0.532525	-18.492167
00549	15709262	0.110473	0.134082	-9.813570				-0.003085	-0.001866	-0.001615				179.230199	-0.531652	-18.492332
00550	15709312	0.101200	0.111504	-9.836287				-0.003213	0.001944	-0.003612				179.229268	-0.532194	-18.491287
00551	15709362	0.101177	0.124382	-9.830538				-0.000634	-0.001169	0.000852				179.231271	-0.531530	-18.492124
00552	15709412	0.113523	0.112778	-9.830607				-0.005151	-0.001509	-0.001384				179.229791	-0.531092	-18.491737
00553	15709462	0.112284	0.111299	-9.825076				-0.004375	-0.001531	-0.000776				179.230718	-0.530318	-18.492127
00554	15709512	0.093366	0.131119	-9.822592				-0.003354	0.003587	-0.003735				179.229747	-0.531331	-18.491047
00555	15709562	0.109228	0.119950	-9.816672				-0.005645	-0.001641	0.002789				179.230320	-0.530539	-18.492458
00556	15709612	0.128345	0.125069	-9.821086				-0.001509	-0.000190	-0.002090				179.229882	-0.530477	-18.491861
00557	15709662	0.112392	0.111405	-9.819558				-0.004889	-0.003579	-0.000782				179.230662	-0.529115	-18.492245
00558	15709712	0.098743	0.134003	-9.833408				-0.004810	0.000276	0.001100				179.229287	-0.529198	-18.492560
00559	15709762	0.109238	0.120136	-9.833688				-0.003465	0.001971	-0.003003				179.230468	-0.529419	-18.492296
00560	15709812	0.109481	0.128978	-9.823630				-0.002058	0.000089	-0.002956				179.229870	-0.529433	-18.491450
00561	15709862	0.098560	0.139542	-9.840116				-0.002442	0.002187	-0.002234				179.231347	-0.529718	-18.491411
00562	15709912	0.109940	0.112084	-9.831775				-0.005171	-0.000743	-0.002219				179.229860	-0.529497	-18.490778
00563	15709962	0.097445	0.141680	-9.826926				-0.003573	-0.001389	0.000117				179.231019	-0.528767	-18.491452
00564	15710012	0.102270	0.128625	-9.808261				-0.002780	0.001889	-0.001504				179.230218	-0.529302	-18.491015
00565	15710062	0.125492	0.109120	-9.828498				-0.004078	0.000481	0.000735				179.231233	-0.529110	-18.491839
00566	15710112	0.115932	0.110988	-9.799448				-0.004167	-0.000751	0.000698				179.230042	-0.528897	-18.492043
00567	15710162	0.111034	0.109301	-9.808538				-0.004395	0.000212	-0.000518				179.230963	-0.528623	-18.492517
00568	15710212	0.109232	0.118436	-9.833934				-0.001761	0.001197	0.000092				179.230459	-0.528966	-18.492541
00569	15710262	0.114143	0.121224	-9.838266				-0.003054	-0.000938	-0.002897				179.231759	-0.528353	-18.492329
00570	15710312	0.111287	0.133233	-9.819087				-0.005060	-0.001164	-0.002866				179.230302	-0.528009	-18.491511
00571	15710362	0.094591	0.122357	-9.820914				-0.005725	0.002903	-0.001106				179.230841	-0.528504	-18.491794
00572	15710412	0.132006	0.106355	-9.835969				-0.003061	0.002491	-0.004166				179.229953	-0.529201	-18.490590
00573	15710462	0.098985	0.131134	-9.814713				-0.004920	0.003526	-0.004087				179.230715	-0.529862	-18.490011
00574	15710512	0.102860	0.123703	-9.828874				-0.001383	-0.000603	0.000341				179.230319	-0.529691	-18.490112
00575	15710562	0.097637	0.160845	-9.830286				-0.007741	-0.001404	-0.002214				179.230278	-0.528947	-18.490098
00576	15710612	0.101476	0.125013	-9.836046				-0.001769	0.000031	-0.002931				179.229764	-0.528945	-18.489255
00577	15710662	0.099283	0.112344	-9.829090				-0.003353	0.001779	-0.000574				179.230984	-0.529120	-18.489708
00578	15710712	0.106403	0.124476	-9.822894				-0.005857	-0.000171	-0.000609				179.229304	-0.529068	-18.489536
00579	15710762	0.098956	0.119869	-9.833878				-0.006896	0.000162	-0.002978				179.229503	-0.528771	-18.489282
00580	15710812	0.095820	0.127795	-9.837461				-0.002712	0.001694	-0.001474				179.228722	-0.529250	-18.488850
00581	15710862	0.134041	0.120588	-9.820397				0.001644	-0.000002	0.001422				179.231379	-0.528922	-18.489841
00582	15710912	0.101855	0.125779	-9.810411				-0.002787	0.000276	0.001307				179.230584	-0.529006	-18.490212
00583	15710962	0.103964	0.103929	-9.831026				-0.002756	0.002149	-0.001309				179.231973	-0.529284	-18.490427
00584	15711012	0.115750	0.124086	-9.822223				-0.003347	0.001656	-0.000732				179.231012	-0.529756	-18.490214
00585	15711062	0.096384	0.125398	-9.819250				-0.003270	0.002301	-0.000089				179.232258	-0.530082	-18.490816
00586	15711112	0.104661	0.143467	-9.828880				-0.001907	0.003549	-0.003070				179.231704	-0.531087	-18.489926
00587	15711162	0.114563	0.113990	-9.816699				-0.003920	-0.000622	-0.001260				179.232759	-0.530571	-18.490129
00588	15711212	0.097204	0.132817	-9.809433				-0.001908	-0.000395	-0.001809				179.232208	-0.530451	-18.489611
00589	15711262	0.108498	0.132764	-9.836805				-0.003904	-0.000105	-0.001738				179.233268	-0.530081	-18.489730
00590	15711312	0.106415	0.126919	-9.834164				-0.002963	-0.000608	-0.002448				179.232412	-0.529898	-18.489027
00591	15711362	0.117861	0.115785	-9.823906				-0.001557	0.002881	-0.001088				179.234146	-0.530386	-18.489319
00592	15711412	0.116953	0.130796	-9.807856				-0.005577	-0.000102	-0.002471				179.232542	-0.530347	-18.488613
00593	15711462	0.105077	0.136768	-9.823609				-0.004182	0.000341	-0.003690				179.233516	-0.530098	-18.488157
00594	15711512	0.111154	0.107994	-9.817643				-0.003421	0.001875	-0.001373				179.232533	-0.530630	-18.487758
00595	15711562	0.128358	0.109531	-9.826119				-0.002681	0.002827	-0.001952				179.233942	-0.531099	-18.487795
00596	15711612	0.116768	0.109909	-9.811684				-0.003766	-0.000057	0.003428				179.232872	-0.531096	-18.488779
00597	15711662	0.099822	0.128823	-9.824545				-0.002515	0.003833	0.000589				179.234336	-0.531863	-18.489524
00598	15711712	0.110974	0.121458	-9.826268				-0.003339	-0.000873	-0.001970				179.233374	-0.531605	-18.488962
00599	15711762	0.119610	0.125377	-9.842615				-0.003348	-0.000545	0.000023				179.234597	-0.531116	-18.489588
00600	15711812	0.119611	0.110713	-9.802110				-0.003412	0.001585	-0.001214				179.233617	-0.531566	-18.489231
00601	15711862	0.112937	0.115245	-9.825799				0.000547	-0.001353	-0.002845				179.235949	-0.530834	-18.489032
00602	15711912	0.114718	0.110843	-9.827725				-0.002790	-0.000090	-0.003285				179.235141	-0.530796	-18.488091
00603	15711962	0.113904	0.103704	-9.830839				-0.002648	0.001695	-0.002119				179.236559	-0.530940	-18.488085
00604	15712012	0.099496	0.123182	-9.809680				-0.003789	0.001451	-0.000256				179.235473	-0.531355	-18.488007
00605	15712062	0.139135	0.120925	-9.829289				-0.003474	0.000350	-0.002670				179.236654	-0.531112	-18.487877
00606	15712112	0.098946	0.121004	-9.839394				-0.002106	-0.000399	-0.002130				179.236045	-0.530990	-18.487268
00607	15712162	0.101323	0.129677	-9.815924				-0.004146	0.000279	-0.002345				179.237035	-0.530728	-18.487224
00608	15712212	0.102799	0.126602	-9.819519				-0.000825	0.000852	-0.001678				179.236794	-0.530966	-18.486742
00609	15712262	0.120482	0.114825	-9.834470				-0.003428	0.000368	0.004258				179.238006	-0.530755	-18.488587
00610	15712312	0.101249	0.134426	-9.854986				-0.006422	0.002404	-0.002807				179.236159	-0.531433	-18.487772
00611	15712362	0.113146	0.139324	-9.818136				-0.003280	0.001357	-0.002211				179.237397	-0.531480	-18.487732
00612	15712412	0.087883	0.130764	-9.799554				-0.004415	0.001790	-0.003261				179.236123	-0.531981	-18.486790
00613	15712462	0.108329	0.117763	-9.802533				-0.003126	0.000983	0.001667				179.237415	-0.531936	-18.487892
00614	15712512	0.097551	0.129682	-9.823573				0.001366	0.001343	-0.002547				179.237800	-0.532311	-18.487159
00615	15712562	0.104190	0.127970	-9.826478				-0.002594	-0.004158	-0.002242				179.239234	-0.530779	-18.487145
00616	15712612	0.109196	0.117572	-9.823869				-0.001917	0.003065	-0.001664				179.238680	-0.531650	-18.486653
00617	15712662	0.116259	0.115848	-9.822942				-0.006209	-0.001243	-0.001066				179.239082	-0.530957	-18.486969
00618	15712712	0.118635	0.104088	-9.831097				-0.003805	0.000836	0.000351				179.237993	-0.531198	-18.487070
00619	15712762	0.119576	0.110565	-9.805943				-0.002066	0.000510	-0.001227				179.239581	-0.531006	-18.487311
00620	15712812	0.120711	0.120143	-9.809783				-0.005394	0.001487	-0.000797				179.238033	-0.531429	-18.487075
00621	15712862	0.085119	0.121803	-9.826387				-0.002729	0.003572	0.000333				179.239435	-0.532121	-18.487749
00622	15712912	0.103318	0.117149	-9.842766				-0.004059	0.000636	-0.001409				179.238268	-0.532298	-18.487341
00623	15712962	0.106204	0.124631	-9.822655				-0.004493	0.002310	-0.001496				179.239161	-0.532621	-18.487519
00624	15713012	0.111525	0.112579	-9.826030				0.000224	-0.001975	-0.000284				179.239224	-0.532054	-18.487445
00625	15713062	0.099088	0.128184	-9.824534				-0.004384	0.003091	0.000077				179.240152	-0.532606	-18.488076
00626	15713112	0.098388	0.122484	-9.828131				-0.004032	0.001258	0.002536				179.239004	-0.532976	-18.488795
00627	15713162	0.105414	0.123647	-9.834632				-0.004230	0.003186	-0.001849				179.239971	-0.533549	-18.488878
00628	15713212	0.097042	0.127509	-9.817821				-0.002689	0.000885	-0.001989				179.239195	-0.533795	-18.488306
00629	15713262	0.111484	0.122816	-9.821004				-0.004479	0.000790	-0.002020				179.240090	-0.533680	-18.488325
00630	15713312	0.105506	0.128466	-9.837268				-0.004085	-0.001432	-0.000429				179.238919	-0.533268	-18.488210
00631	15713362	0.111820	0.124534	-9.809986				-0.003610	0.001641	-0.003719				179.240058	-0.533391	-18.487740
00632	15713412	0.119404	0.117948	-9.803546				-0.006036	0.005809	0.000704				179.238331	-0.535058	-18.487922
00633	15713462	0.127618	0.111089	-9.817012				-0.004426	0.005613	0.001086				179.239249	-0.536337	-18.488811
00634	15713512	0.120879	0.117507	-9.829196				0.000156	0.001163	-0.002000				179.239288	-0.536662	-18.488236
00635	15713562	0.124547	0.115267	-9.807411				-0.006355	0.000368	-0.001313				179.239648	-0.536430	-18.488445
00636	15713612	0.100516	0.132983	-9.812323				-0.004215	-0.000303	-0.000617				179.238439	-0.536341	-18.488273
00637	15713662	0.108638	0.121033	-9.828661				-0.005248	-0.000123	0.000446				179.239120	-0.535975	-18.489008
00638	15713712	0.118430	0.115886	-9.828229				-0.002179	0.000124	-0.000107				179.238496	-0.536010	-18.488978
00639	15713762	0.111794	0.120256	-9.808542				-0.003462	-0.001939	-0.001302				179.239684	-0.535116	-18.489238
00640	15713812	0.101229	0.131498	-9.836771				-0.003868	0.001805	-0.000217				179.238575	-0.535633	-18.489169
00641	15713862	0.107519	0.116643	-9.830323				0.000395	-0.000322	-0.001749				179.240868	-0.535201	-18.489276
00642	15713912	0.107223	0.141358	-9.832251				-0.002565	-0.001086	-0.003350				179.240124	-0.534877	-18.488318
00643	15713962	0.102631	0.109997	-9.839651				-0.004666	0.000296	-0.004747				179.240959	-0.534611	-18.487563
00644	15714012	0.117980	0.111469	-9.822234				-0.004920	-0.001250	0.000888				179.239552	-0.534257	-18.487822
00645	15714062	0.090771	0.132775	-9.820667				-0.005052	-0.001289	-0.001739				179.240284	-0.533548	-18.487951
00646	15714112	0.107064	0.127598	-9.831524				-0.000245	0.005037	-0.001140				179.240211	-0.534986	-18.487608
00647	15714162	0.092167	0.120370	-9.816835				-0.004203	0.001545	0.001097				179.241193	-0.535100	-18.488524
00648	15714212	0.122568	0.120212	-9.843110				-0.004631	0.001563	-0.000639				179.239865	-0.535546	-18.488337
00649	15714262	0.114541	0.109969	-9.833721				-0.004457	-0.001119	-0.003444				179.240763	-0.534879	-18.487945
00650	15714312	0.125834	0.116515	-9.834018				-0.002034	-0.000887	-0.004249				179.240169	-0.534609	-18.486732
00651	15714362	0.110181	0.128458	-9.847605				-0.005088	0.003044	0.000976				179.240898	-0.535152	-18.487579
00652	15714412	0.105472	0.128684	-9.812823				-0.001421	0.003598	-0.000411				179.240489	-0.536181	-18.487448
00653	15714462	0.123864	0.119019	-9.828734				-0.002556	-0.001476	-0.004092				179.241931	-0.535410	-18.486946
00654	15714512	0.108858	0.134246	-9.831778				-0.002459	0.002865	-0.000700				179.241224	-0.536228	-18.486736
00655	15714562	0.108909	0.124258	-9.803253				-0.005785	-0.000361	-0.000229				179.241750	-0.535791	-18.487283
00656	15714612	0.102448	0.126920	-9.831266				-0.004825	0.001953	0.001485				179.240372	-0.536356	-18.487702
00657	15714662	0.112549	0.114520	-9.827234				-0.009453	0.001091	-0.001137				179.239845	-0.536331	-18.487967
00658	15714712	0.108992	0.108240	-9.821468				-0.000984	-0.000611	-0.004438				179.239551	-0.536139	-18.486696
00659	15714762	0.108011	0.105077	-9.842786				-0.004957	0.001554	-0.002914				179.240308	-0.536240	-18.486477
00660	15714812	0.100857	0.112823	-9.816875				0.000983	0.000368	-0.002868				179.240582	-0.536335	-18.485654
00661	15714862	0.099219	0.105712	-9.813032				-0.006416	0.001370	-0.001177				179.240925	-0.536390	-18.485950
00662	15714912	0.078357	0.137752	-9.807420				-0.000717	0.001732	0.000162				179.240720	-0.536887	-18.485989
00663	15714962	0.119853	0.098066	-9.826311				-0.003978	0.000124	-0.000548				179.241763	-0.536587	-18.486415
00664	15715012	0.096070	0.120796	-9.827389				-0.002256	0.001542	-0.000259				179.241116	-0.537028	-18.486337
00665	15715062	0.092150	0.116996	-9.816113				-0.002009	-0.001135	0.000916				179.242727	-0.536373	-18.487210
00666	15715112	0.110720	0.111235	-9.826986				-0.003618	0.001098	0.000899				179.241693	-0.536691	-18.487465
00667	15715162	0.105146	0.116591	-9.822645				-0.004757	0.001828	0.000843				179.242517	-0.536884	-18.488286
00668	15715212	0.105705	0.127678	-9.818581				-0.004464	0.003503	-0.001591				179.241234	-0.537882	-18.487815
00669	15715262	0.094990	0.138036	-9.822603				-0.001994	0.006525	-0.002827				179.242839	-0.539407	-18.487601
00670	15715312	0.101897	0.109646	-9.832931				-0.007163	0.000549	-0.000888				179.240785	-0.539561	-18.487344
00671	15715362	0.113583	0.123463	-9.816463				-0.004933	0.001171	-0.001027				179.241554	-0.539560	-18.487660
00672	15715412	0.119306	0.121373	-9.812175				-0.007077	0.001776	-0.002269				179.239520	-0.540060	-18.487004
00673	15715462	0.109891	0.109610	-9.812362				-0.003733	0.000680	-0.000162				179.240635	-0.539922	-18.487571
00674	15715512	0.120383	0.110468	-9.845734				-0.001966	0.003750	0.000589				179.240073	-0.540998	-18.487723
00675	15715562	0.121486	0.113477	-9.827282				-0.001229	-0.003006	-0.004904				179.241894	-0.539785	-18.486975
00676	15715612	0.122711	0.123026	-9.824650				-0.004300	0.002149	-0.002301				179.240655	-0.540392	-18.486306
00677	15715662	0.111872	0.132296	-9.834675				-0.003971	0.001864	-0.002754				179.241695	-0.540583	-18.486136
00678	15715712	0.118477	0.119573	-9.850274				-0.005462	-0.001621	-0.001742				179.240126	-0.540112	-18.485646
00679	15715762	0.122381	0.107094	-9.822489				-0.004832	0.000945	-0.001475				179.240922	-0.540044	-18.485834
00680	15715812	0.111365	0.112909	-9.827711				-0.003307	0.002462	0.000040				179.239975	-0.540749	-18.485836
00681	15715862	0.109662	0.121408	-9.809490				-0.003762	-0.001559	-0.001521				179.241079	-0.539964	-18.486031
00682	15715912	0.094240	0.119420	-9.813727				-0.003954	-0.000359	0.000573				179.239948	-0.539863	-18.486195
00683	15715962	0.100241	0.120125	-9.811361				-0.004944	0.001330	-0.002660				179.240709	-0.539901	-18.486039
00684	15716012	0.088292	0.113888	-9.825916				-0.007440	0.002991	-0.006104				179.238561	-0.540735	-18.484278
00685	15716062	0.106634	0.127222	-9.822173				-0.002868	-0.000641	-0.003028				179.239916	-0.540207	-18.484040
00686	15716112	0.114040	0.124948	-9.851936				-0.001673	0.002062	-0.004874				179.239424	-0.540779	-18.482634
00687	15716162	0.092105	0.130139	-9.827861				-0.001109	0.000587	-0.003214				179.241283	-0.540602	-18.482333
00688	15716212	0.115483	0.105756	-9.825097				-0.001832	0.000586	0.001692				179.240763	-0.540776	-18.482811
00689	15716262	0.102774	0.112591	-9.814008				-0.001831	0.000929	-0.004661				179.242410	-0.540691	-18.482066
00690	15716312	0.107398	0.104544	-9.828167				-0.002296	-0.000499	-0.002449				179.241746	-0.540539	-18.481370
00691	15716362	0.119567	0.122966	-9.823204				-0.003988	0.000445	-0.001415				179.242785	-0.540328	-18.481565
00692	15716412	0.099808	0.118591	-9.816631				-0.004151	0.001803	0.001641				179.241600	-0.540851	-18.482028
00693	15716462	0.124835	0.118496	-9.822033				-0.005327	0.000291	-0.000352				179.242259	-0.540600	-18.482561
00694	15716512	0.112865	0.130870	-9.840666				-0.001296	0.000291	-0.002516				179.241881	-0.540674	-18.481836
00695	15716562	0.110523	0.119162	-9.815011				-0.004455	0.001145	-0.001473				179.242786	-0.540663	-18.482008
00696	15716612	0.107242	0.136119	-9.823384				-0.004117	0.002640	-0.002072				179.241601	-0.541412	-18.481404
00697	15716662	0.088966	0.127081	-9.825923				-0.002846	-0.001083	0.000724				179.242974	-0.540771	-18.482247
00698	15716712	0.109132	0.114495	-9.818835				-0.005240	-0.001422	-0.001391				179.241469	-0.540359	-18.481852
00699	15716762	0.115340	0.134793	-9.829412				-0.001761	-0.000003	-0.001168				179.243146	-0.540020	-18.482107
00700	15716812	0.106454	0.124505	-9.828408				-0.003794	0.000676	0.000092				179.242060	-0.540214	-18.482132
00701	15716862	0.123349	0.127999	-9.821783				-0.005998	0.000577	0.002665				179.242534	-0.540057	-18.483493
00702	15716912	0.110401	0.113457	-9.819564				-0.001048	0.000888	0.000539				179.242235	-0.540313	-18.483644
00703	15716962	0.121279	0.100291	-9.832068				-0.000925	0.000784	-0.002000				179.244151	-0.540197	-18.483677
00704	15717012	0.108143	0.104754	-9.837270				-0.002456	-0.001667	-0.004093				179.243436	-0.539704	-18.482515
00705	15717062	0.085407	0.131790	-9.821588				-0.004931	-0.000222	-0.002697				179.244202	-0.539297	-18.482355
00706	15717112	0.095114	0.135131	-9.848967				-0.003958	0.002677	-0.001016				179.243066	-0.540060	-18.482054
00707	15717162	0.099388	0.131382	-9.819506				-0.001764	0.000928	-0.003824				179.244735	-0.539979	-18.481568
00708	15717212	0.119058	0.105539	-9.819363				-0.003838	0.000602	-0.004462				179.243624	-0.540134	-18.480289
00709	15717262	0.105570	0.118916	-9.837988				-0.002035	-0.001855	-0.004445				179.245215	-0.539253	-18.479627
00710	15717312	0.109130	0.114764	-9.825062				-0.003473	-0.000545	0.000631				179.244221	-0.539099	-18.479808
00711	15717362	0.105013	0.117467	-9.837989				-0.003543	0.003615	-0.002937				179.245385	-0.539790	-18.479584
00712	15717412	0.103821	0.133747	-9.829598				-0.004127	0.004127	-0.000301				179.244202	-0.540971	-18.479480
00713	15717462	0.123851	0.130074	-9.799974				-0.005854	0.000867	0.000326				179.244711	-0.540888	-18.480193
00714	15717512	0.120840	0.113555	-9.826086				-0.004614	-0.001024	-0.001968				179.243384	-0.540588	-18.479632
00715	15717562	0.101281	0.118089	-9.816879				-0.005105	0.001727	0.002924				179.244115	-0.540760	-18.481061
00716	15717612	0.106486	0.135565	-9.818346				-0.005024	0.000305	0.003786				179.242686	-0.540862	-18.482145
00717	15717662	0.100526	0.135108	-9.808969				-0.005219	0.000905	-0.001153				179.243374	-0.540783	-18.482400
00718	15717712	0.118648	0.118662	-9.821764				-0.005828	0.000795	-0.001855				179.241699	-0.541004	-18.481869
00719	15717762	0.122105	0.114740	-9.825130				-0.005686	0.003713	-0.000110				179.242256	-0.541734	-18.482433
00720	15717812	0.118399	0.134113	-9.807377				-0.006513	0.002469	-0.001170				179.240386	-0.542437	-18.482087
00721	15717862	0.118042	0.119393	-9.832300				-0.008311	0.001667	0.002001				179.240197	-0.542589	-18.483268
00722	15717912	0.093107	0.136837	-9.824512				-0.003801	-0.001697	-0.004405				179.239096	-0.542086	-18.482017
00723	15717962	0.120827	0.113113	-9.822722				-0.002363	-0.000077	-0.000687				179.240603	-0.541728	-18.482455
00724	15718012	0.116277	0.100097	-9.824138				-0.002229	0.000702	0.000892				179.239966	-0.541933	-18.482704
00725	15718062	0.080275	0.133254	-9.817968				-0.004939	-0.000969	-0.001705				179.240733	-0.541316	-18.482839
00726	15718112	0.091546	0.122416	-9.813234				-0.002912	-0.002256	-0.002106				179.239893	-0.540662	-18.482243
00727	15718162	0.093249	0.111325	-9.819710				-0.000165	0.000087	-0.002864				179.242024	-0.540343	-18.482019
00728	15718212	0.112153	0.099973	-9.832271				-0.003608	-0.002162	0.001939				179.240996	-0.539731	-18.482580
00729	15718262	0.097962	0.113976	-9.815421				-0.003248	0.000525	-0.000615				179.242250	-0.539546	-18.483011
00730	15718312	0.110085	0.121389	-9.840647				-0.002231	-0.002207	0.000268				179.241611	-0.538915	-18.483098
00731	15718362	0.100041	0.128704	-9.822626				-0.005819	0.003903	0.000021				179.242131	-0.539699	-18.483695
00732	15718412	0.113901	0.119625	-9.826771				-0.005764	0.001259	0.000650				179.240481	-0.540062	-18.483879
00733	15718462	0.102896	0.120252	-9.815932				-0.004642	0.001819	-0.003264				179.241328	-0.540238	-18.483544
00734	15718512	0.103702	0.137724	-9.827200				-0.001847	0.002706	-0.003333				179.240790	-0.541000	-18.482581
00735	15718562	0.112600	0.118067	-9.815974				0.001180	0.000018	-0.002394				179.243308	-0.540663	-18.482511
00736	15718612	0.096193	0.127553	-9.829315				-0.004382	-0.000177	-0.001483				179.242049	-0.540607	-18.482085
00737	15718662	0.121031	0.124521	-9.834714				-0.003192	-0.000218	0.000217				179.243322	-0.540212	-18.482780
00738	15718712	0.132667	0.117863	-9.825185				-0.003050	-0.001705	0.001141				179.242451	-0.539728	-18.483110
00739	15718762	0.103886	0.116906	-9.827196				-0.004719	-0.001637	-0.000139				179.243285	-0.538926	-18.483688
00740	15718812	0.096207	0.130997	-9.803197				-0.001326	-0.000480	-0.001875				179.242900	-0.538781	-18.483152
00741	15718862	0.110473	0.131782	-9.840887				-0.001202	-0.000610	-0.002903				179.244735	-0.538262	-18.482923
00742	15718912	0.087404	0.139655	-9.824489				-0.003938	-0.000142	-0.003692				179.243597	-0.538208	-18.481864
00743	15718962	0.109543	0.127147	-9.821956				-0.006489	0.002827	-0.000688				179.243922	-0.538682	-18.482254
00744	15719012	0.104120	0.117329	-9.827193				-0.001515	-0.000776	-0.001592				179.243483	-0.538454	-18.481799
00745	15719062	0.116846	0.127066	-9.817434				-0.005445	0.001672	-0.004487				179.244098	-0.538583	-18.481141
00746	15719112	0.109386	0.111232	-9.808532				-0.004988	0.001747	-0.002111				179.242663	-0.539075	-18.480528
00747	15719162	0.109425	0.112696	-9.827466				-0.004645	-0.001319	-0.003347				179.243510	-0.538352	-18.480208
00748	15719212	0.096724	0.115257	-9.820210				-0.003654	-0.000644	0.002687				179.242471	-0.538178	-18.480983
00749	15719262	0.114810	0.109478	-9.836351				-0.000364	0.000147	-0.004058				179.244542	-0.537871	-18.480433
00750	15719312	0.094939	0.123135	-9.812291				-0.002844	0.001720	-0.003204				179.243719	-0.538352	-18.479510
00751	15719362	0.100120	0.108853	-9.814481				-0.005819	-0.000069	0.001475				179.244242	-0.538004	-18.480529
00752	15719412	0.123900	0.096923	-9.812673				-0.003972	0.002863	-0.003617				179.243095	-0.538811	-18.479480
00753	15719462	0.111009	0.125326	-9.836097				-0.001902	-0.000781	-0.001683				179.244731	-0.538247	-18.479577
00754	15719512	0.120034	0.113064	-9.813852				-0.002363	-0.000371	-0.002160				179.244048	-0.538133	-18.478959
00755	15719562	0.107494	0.118418	-9.824098				-0.007480	0.001480	-0.002040				179.244087	-0.538216	-18.479008
00756	15719612	0.106695	0.127384	-9.847338				-0.003029	-0.002249	0.001679				179.243224	-0.537578	-18.479499
00757	15719662	0.113937	0.133386	-9.828208				-0.004199	0.000148	-0.001738				179.244203	-0.537281	-18.479612
00758	15719712	0.090745	0.144563	-9.819947				-0.002483	0.000767	0.001185				179.243495	-0.537505	-18.479948
00759	15719762	0.105480	0.125343	-9.820018				-0.004269	0.001313	-0.001599				179.244454	-0.537542	-18.480082
00760	15719812	0.118920	0.133618	-9.855548				-0.002401	0.000056	0.001116				179.243769	-0.537562	-18.480400
00761	15719862	0.107301	0.116751	-9.820269				-0.003404	0.003292	-0.003487				179.244971	-0.538158	-18.479972
00762	15719912	0.115728	0.131411	-9.810484				-0.002317	-0.001633	-0.000434				179.244306	-0.537688	-18.479854
00763	15719962	0.123336	0.119169	-9.818660				-0.004657	-0.001644	-0.000847				179.245156	-0.536881	-18.480234
00764	15720012	0.115670	0.126275	-9.815034				-0.000338	0.000758	-0.000456				179.245058	-0.537097	-18.480104
00765	15720062	0.089865	0.133693	-9.824252				-0.001024	-0.001933	-0.001241				179.246948	-0.536205	-18.480361
00766	15720112	0.114138	0.114490	-9.823412				0.000107	-0.000427	-0.001781				179.246974	-0.536076	-18.479851
00767	15720162	0.124238	0.103618	-9.816035				-0.001099	-0.000545	0.000726				179.248847	-0.535589	-18.480649
00768	15720212	0.100492	0.125043	-9.823822				-0.002476	0.001299	-0.001922				179.248133	-0.535954	-18.480092
00769	15720262	0.108926	0.130134	-9.823394				-0.002319	-0.001401	0.001977				179.249661	-0.535228	-18.481305
00770	15720312	0.110073	0.124903	-9.838490				-0.002939	-0.000225	-0.001416				179.248816	-0.535158	-18.480900
00771	15720362	0.099975	0.123374	-9.807523				-0.001352	0.001489	0.000800				179.250617	-0.535254	-18.481745
00772	15720412	0.106511	0.118904	-9.827926				-0.006989	-0.000004	-0.001564				179.248611	-0.535247	-18.481298
00773	15720462	0.090225	0.126359	-9.828323				-0.000384	0.000114	-0.000715				179.250685	-0.534944	-18.481716
00774	15720512	0.103169	0.109654	-9.811849				-0.000325	-0.000790	-0.000527				179.250591	-0.534716	-18.481568
00775	15720562	0.117119	0.111648	-9.798743				-0.003849	-0.001661	-0.000139				179.251675	-0.533906	-18.482148
00776	15720612	0.107618	0.126660	-9.825297				-0.006325	0.002462	-0.002933				179.249855	-0.534600	-18.481297
00777	15720662	0.109187	0.117082	-9.822193				-0.004750	0.002496	0.000202				179.250681	-0.534983	-18.481966
00778	15720712	0.121748	0.122311	-9.827286				-0.003981	0.002410	-0.000793				179.249539	-0.535671	-18.481729
00779	15720762	0.106668	0.118186	-9.798696				-0.005374	0.002165	0.002193				179.250192	-0.535966	-18.482942
00780	15720812	0.107240	0.135874	-9.809488				-0.004345	0.003956	-0.000043				179.248947	-0.537099	-18.482915
00781	15720862	0.103990	0.119951	-9.840623				-0.004617	0.002104	-0.001623				179.249807	-0.537362	-18.483058
00782	15720912	0.125681	0.105120	-9.813881				-0.005090	0.001233	0.001609				179.248353	-0.537721	-18.483516
00783	15720962	0.116900	0.116764	-9.821745				-0.005160	-0.003136	-0.001588				179.249058	-0.536484	-18.483699
00784	15721012	0.113024	0.114418	-9.833237				-0.002169	0.000363	-0.004144				179.248426	-0.536572	-18.482508
00785	15721062	0.110941	0.115350	-9.841848				0.001197	-0.000510	-0.003772				179.250945	-0.536079	-18.482030
00786	15721112	0.099157	0.137158	-9.828615				-0.001045	-0.000420	-0.002161				179.250640	-0.535950	-18.481413
00787	15721162	0.102280	0.132334	-9.829595				-0.004273	0.000728	0.001413				179.251606	-0.535831	-18.482401
00788	15721212	0.079564	0.138467	-9.825401				0.001646	-0.001270	0.001101				179.252081	-0.535471	-18.482726
00789	15721262	0.126784	0.112994	-9.822277				-0.001254	-0.001545	0.003222				179.253917	-0.534707	-18.484261
00790	15721312	0.109893	0.116744	-9.829860				-0.001972	-0.000200	0.001597				179.253357	-0.534656	-18.484721
00791	15721362	0.105304	0.125799	-9.806599				-0.003773	-0.000878	0.002335				179.254468	-0.534080	-18.486010
00792	15721412	0.083013	0.134359	-9.822783				-0.001691	0.001799	-0.003523				179.253974	-0.534582	-18.484995
00793	15721462	0.090455	0.121100	-9.808914				-0.001384	0.000557	0.001985				179.255770	-0.534415	-18.486155
00794	15721512	0.101253	0.132443	-9.807060				-0.002626	0.003113	-0.001333				179.255014	-0.535302	-18.485762
00795	15721562	0.101576	0.123551	-9.814487				-0.005615	0.000343	-0.000893				179.255591	-0.535063	-18.486123
00796	15721612	0.104330	0.118688	-9.818092				-0.005140	0.001714	0.001325				179.254122	-0.535559	-18.486493
00797	15721662	0.096848	0.127706	-9.824527				-0.005221	-0.001040	-0.001383				179.254809	-0.534923	-18.486711
00798	15721712	0.105228	0.117699	-9.827677				-0.006024	0.003309	-0.000493				179.253081	-0.535869	-18.486558
00799	15721762	0.109863	0.119127	-9.825065				-0.005107	0.001354	-0.002653				179.253799	-0.535913	-18.486391
00800	15721812	0.107251	0.117026	-9.831530				-0.007353	-0.000758	-0.003074				179.251684	-0.535684	-18.485518
00801	15721862	0.115655	0.143484	-9.812638				0.000218	0.002484	0.000162				179.253934	-0.536063	-18.486133
00802	15721912	0.108275	0.115622	-9.832012				-0.006553	0.000688	0.001065				179.252059	-0.536264	-18.486436
00803	15721962	0.121373	0.126500	-9.817702				-0.005486	0.001083	-0.003941				179.252664	-0.536227	-18.485899
00804	15722012	0.107539	0.123116	-9.813075				-0.002649	0.000040	0.000187				179.251905	-0.536239	-18.485953
00805	15722062	0.098177	0.118884	-9.828364				-0.002659	-0.000127	-0.002986				179.253323	-0.535858	-18.485668
00806	15722112	0.095384	0.110470	-9.818525				-0.003672	0.001705	-0.000536				179.252269	-0.536344	-18.485508
00807	15722162	0.134581	0.121698	-9.826630				-0.002163	-0.000331	0.001431				179.253841	-0.535921	-18.486525
00808	15722212	0.107338	0.125493	-9.820742				-0.000013	-0.000366	-0.000044				179.253838	-0.535816	-18.486513
00809	15722262	0.111987	0.110558	-9.824362				-0.004139	-0.000760	-0.000744				179.254837	-0.535262	-18.486926
00810	15722312	0.108857	0.116631	-9.825537				-0.001322	-0.001619	-0.000437				179.254457	-0.534797	-18.486807
00811	15722362	0.103152	0.124180	-9.825752				-0.002356	0.001496	-0.003912				179.255960	-0.534877	-18.486324
00812	15722412	0.112168	0.112132	-9.834668				-0.004531	0.001628	-0.000793				179.254660	-0.535341	-18.486088
00813	15722462	0.103238	0.131730	-9.818811				-0.004239	0.000665	0.000288				179.255634	-0.535199	-18.486814
00814	15722512	0.086862	0.119049	-9.807452				0.000774	0.000742	-0.003248				179.255847	-0.535399	-18.485879
00815	15722562	0.100970	0.129520	-9.831015				-0.005006	0.001128	-0.003298				179.256591	-0.535377	-18.485564
00816	15722612	0.098598	0.119455	-9.829565				-0.003613	0.006067	-0.001860				179.255551	-0.537108	-18.485009
00817	15722662	0.112986	0.126697	-9.837790				-0.005760	0.003026	-0.000236				179.256088	-0.537640	-18.485565
00818	15722712	0.119938	0.112112	-9.832542				-0.001889	-0.000942	0.000980				179.255549	-0.537374	-18.485849
00819	15722762	0.096545	0.136909	-9.825248				-0.003803	-0.000335	-0.002825				179.256640	-0.536934	-18.485653
00820	15722812	0.106130	0.122424	-9.817382				-0.002915	-0.001931	0.001365				179.255808	-0.536386	-18.486052
00821	15722862	0.095812	0.100256	-9.829063				-0.006852	-0.000294	-0.002209				179.256027	-0.535960	-18.486020
00822	15722912	0.107186	0.103354	-9.826250				-0.001849	-0.000263	0.000857				179.255499	-0.535888	-18.486263
00823	15722962	0.108490	0.135236	-9.826498				-0.006134	0.000524	-0.002752				179.255922	-0.535694	-18.486082
00824	15723012	0.101283	0.115761	-9.834848				-0.003013	-0.000768	0.000892				179.255061	-0.535477	-18.486342
00825	15723062	0.114227	0.112561	-9.820538				-0.002072	0.000862	-0.000455				179.256654	-0.535389	-18.486787
00826	15723112	0.124580	0.126013	-9.816995				-0.004320	-0.003551	-0.004382				179.255405	-0.534355	-18.485549
00827	15723162	0.123584	0.105129	-9.837598				-0.001703	-0.002015	-0.002524				179.257098	-0.533435	-18.485447
00828	15723212	0.132033	0.124909	-9.829979				-0.005192	0.003164	-0.001814				179.255605	-0.534335	-18.484913
00829	15723262	0.093121	0.129081	-9.824268				-0.006433	0.002914	-0.002223				179.255944	-0.534827	-18.484856
00830	15723312	0.100029	0.119131	-9.822385				-0.005803	0.000849	-0.005928				179.254265	-0.535048	-18.483153
00831	15723362	0.099081	0.123320	-9.837234				-0.002889	-0.002806	0.000239				179.255626	-0.533912	-18.483874
00832	15723412	0.105658	0.118321	-9.826962				-0.003554	-0.004314	-0.003014				179.254600	-0.532665	-18.483026
00833	15723462	0.096424	0.126933	-9.824044				-0.004824	0.000618	-0.002018				179.255400	-0.532501	-18.483042
00834	15723512	0.111682	0.121643	-9.815969				-0.005733	0.001116	-0.001724				179.253753	-0.532814	-18.482544
00835	15723562	0.107687	0.142069	-9.829138				-0.003172	0.000096	-0.001512				179.255028	-0.532502	-18.482699
00836	15723612	0.105313	0.118045	-9.819533				-0.005054	0.001645	-0.003614				179.253570	-0.532960	-18.481655
00837	15723662	0.112402	0.127587	-9.825087				-0.001331	0.003017	0.002413				179.255382	-0.533500	-18.482954
00838	15723712	0.106761	0.121860	-9.828655				-0.002252	-0.000629	-0.001007				179.254734	-0.533316	-18.482663
00839	15723762	0.102073	0.119506	-9.814482				-0.003821	-0.001921	-0.001744				179.255823	-0.532426	-18.482789
00840	15723812	0.108444	0.093906	-9.826732				-0.002094	-0.001632	-0.000626				179.255221	-0.531956	-18.482618
00841	15723862	0.113117	0.111233	-9.825803				-0.002738	0.002363	-0.003680				179.256615	-0.532286	-18.482160
00842	15723912	0.101097	0.113631	-9.814720				-0.005571	0.001928	-0.002906				179.255011	-0.532827	-18.481317
00843	15723962	0.120516	0.132026	-9.824646				-0.003590	0.004059	-0.004121				179.256159	-0.533641	-18.480739
00844	15724012	0.098292	0.132543	-9.837469				-0.000769	-0.000957	-0.000434				179.255938	-0.533365	-18.480618
00845	15724062	0.127029	0.098586	-9.822033				-0.003667	0.002380	-0.002459				179.257068	-0.533704	-18.480520
00846	15724112	0.105770	0.121817	-9.818097				-0.006513	0.002230	-0.003865				179.255192	-0.534329	-18.479404
00847	15724162	0.095303	0.127632	-9.837696				-0.005279	-0.000561	-0.005388				179.255853	-0.533814	-18.478468
00848	15724212	0.103262	0.132237	-9.834863				-0.005604	-0.002079	-0.001036				179.254245	-0.533215	-18.478182
00849	15724262	0.138287	0.103681	-9.818501				-0.005361	0.001844	0.003025				179.254905	-0.533420	-18.479649
00850	15724312	0.105668	0.107452	-9.828882				-0.005490	-0.001919	-0.003567				179.253323	-0.532857	-18.478635
00851	15724362	0.108997	0.108686	-9.816199				-0.002740	0.001460	-0.002628				179.254719	-0.532932	-18.478512
00852	15724412	0.107884	0.102572	-9.821222				-0.002141	0.000694	-0.003152				179.254098	-0.533119	-18.477604
00853	15724462	0.117851	0.117664	-9.833257				-0.005107	0.004654	0.000057				179.254823	-0.534119	-18.478224
00854	15724512	0.102290	0.108425	-9.818794				-0.002830	-0.001509	0.000151				179.254013	-0.533687	-18.478273
00855	15724562	0.114733	0.122738	-9.825812				-0.005845	-0.001434	0.001407				179.254530	-0.532948	-18.479289
00856	15724612	0.106557	0.098918	-9.838221				-0.000118	0.000097	0.003485				179.254506	-0.532989	-18.480287
00857	15724662	0.103371	0.115963	-9.813051				-0.005041	0.000483	-0.001504				179.255245	-0.532788	-18.480480
00858	15724712	0.111039	0.121323	-9.832983				-0.003365	-0.002173	-0.003127				179.254273	-0.532154	-18.479594
00859	15724762	0.101889	0.109401	-9.819036				-0.005226	0.002586	0.001749				179.254970	-0.532568	-18.480722
00860	15724812	0.098978	0.132053	-9.831007				-0.003367	-0.000881	-0.001324				179.254001	-0.532310	-18.480346
00861	15724862	0.121346	0.126974	-9.804761				-0.005606	0.001891	-0.004029				179.254573	-0.532503	-18.479796
00862	15724912	0.116634	0.119384	-9.817914				-0.001405	-0.002004	-0.000279				179.254170	-0.531928	-18.479725
00863	15724962	0.116325	0.106363	-9.811197				-0.002887	0.000594	0.002375				179.255537	-0.531774	-18.481045
00864	15725012	0.114921	0.114736	-9.824138				-0.000770	0.002107	-0.002053				179.255311	-0.532370	-18.480446
00865	15725062	0.102485	0.129655	-9.810655				-0.003207	0.001295	-0.001539				179.256576	-0.532401	-18.480615
00866	15725112	0.104334	0.123810	-9.829594				-0.005210	-0.000562	-0.003725				179.255074	-0.532227	-18.479552
00867	15725162	0.115699	0.125762	-9.814553				-0.002046	0.003025	-0.000123				179.256675	-0.532759	-18.480096
00868	15725212	0.112439	0.116921	-9.829868				-0.000187	-0.003316	-0.002436				179.256615	-0.531800	-18.479414
00869	15725262	0.099321	0.137400	-9.815671				0.000563	0.001615	-0.000970				179.258962	-0.531926	-18.479765
00870	15725312	0.110240	0.127434	-9.829384				-0.006234	0.000591	-0.001343				179.257173	-0.532090	-18.479374
00871	15725362	0.095393	0.129923	-9.821402				-0.001191	0.001226	-0.002509				179.259013	-0.532099	-18.479276
00872	15725412	0.099069	0.123839	-9.829806				-0.006539	-0.000198	-0.005609				179.257125	-0.532021	-18.477669
00873	15725462	0.098506	0.131413	-9.830758				-0.007819	-0.001253	-0.005419				179.257058	-0.531309	-18.476749
00874	15725512	0.090135	0.128337	-9.814901				-0.004078	-0.000888	-0.002119				179.255884	-0.531046	-18.476145
00875	15725562	0.096461	0.112304	-9.846805				-0.004077	-0.000498	0.001471				179.256909	-0.530575	-18.477186
00876	15725612	0.098485	0.120205	-9.827888				-0.004942	0.003231	-0.003480				179.255483	-0.531488	-18.476179
00877	15725662	0.117418	0.113324	-9.817200				-0.003064	-0.001357	-0.001492				179.256790	-0.530760	-18.476345
00878	15725712	0.108075	0.134783	-9.819311				-0.003394	-0.001809	0.001435				179.255821	-0.530247	-18.476764
00879	15725762	0.106144	0.122454	-9.814502				-0.004697	-0.000481	-0.002763				179.256657	-0.529765	-18.476584
00880	15725812	0.097554	0.119574	-9.809190				-0.001112	-0.001189	0.000145				179.256338	-0.529425	-18.476631
00881	15725862	0.109610	0.123790	-9.838966				-0.005247	-0.001102	0.000218				179.257023	-0.528777	-18.477295
00882	15725912	0.108290	0.127502	-9.821712				-0.004613	0.000136	-0.000227				179.255701	-0.528815	-18.477225
00883	15725962	0.100345	0.121879	-9.833403				-0.003405	0.002252	-0.003199				179.256906	-0.529115	-18.476909
00884	15726012	0.102220	0.123132	-9.821200				-0.003432	0.003225	-0.003482				179.255913	-0.530026	-18.475901
00885	15726062	0.114137	0.123794	-9.824616				-0.001407	0.003839	-0.002430				179.257692	-0.530783	-18.475825
00886	15726112	0.113526	0.129693	-9.826287				-0.001402	0.000969	-0.001001				179.257287	-0.531057	-18.475532
00887	15726162	0.103733	0.127943	-9.841336				-0.001518	-0.004560	0.000548				179.259043	-0.529419	-18.476331
00888	15726212	0.101571	0.114959	-9.828142				-0.003917	0.000143	-0.002632				179.257914	-0.529450	-18.475574
00889	15726262	0.094319	0.134121	-9.801752				-0.002836	0.001786	-0.000093				179.259289	-0.529628	-18.476166
00890	15726312	0.099327	0.116597	-9.818787				-0.000040	-0.000850	-0.000914				179.259275	-0.529381	-18.475907
00891	15726362	0.112640	0.122683	-9.828202				-0.005145	0.000672	-0.001600				179.259985	-0.529234	-18.476051
00892	15726412	0.107837	0.120553	-9.814274				-0.003906	-0.000013	-0.001285				179.258863	-0.529225	-18.475682
00893	15726462	0.102930	0.120557	-9.821198				-0.004143	0.001407	-0.000186				179.259863	-0.529294	-18.476243
00894	15726512	0.111213	0.125228	-9.830585				-0.001213	-0.002028	0.001458				179.259519	-0.528718	-18.476671
00895	15726562	0.082720	0.128177	-9.840512				-0.004002	0.002958	-0.002966				179.260553	-0.529221	-18.476426
00896	15726612	0.098286	0.109192	-9.815901				-0.001951	0.001930	-0.001539				179.259990	-0.529768	-18.475978
00897	15726662	0.078417	0.123298	-9.829224				-0.006603	0.001266	-0.001783				179.260282	-0.529791	-18.476075
00898	15726712	0.100560	0.112962	-9.827408				-0.002209	-0.003351	-0.004229				179.259639	-0.528815	-18.474882
00899	15726762	0.101384	0.119944	-9.816876				-0.002342	-0.002992	-0.001629				179.261152	-0.527618	-18.475046
00900	15726812	0.083939	0.128343	-9.816549				-0.004087	0.000758	-0.001085				179.259978	-0.527831	-18.474735
00901	15726862	0.112317	0.102271	-9.811415				-0.003792	-0.000861	-0.004435				179.261068	-0.527234	-18.474074
00902	15726912	0.126975	0.114608	-9.843612				-0.006149	0.003115	-0.000014				179.259306	-0.528126	-18.474055
00903	15726962	0.098129	0.128115	-9.825974				-0.002042	0.003093	0.000653				179.260911	-0.528681	-18.474842
00904	15727012	0.100838	0.112770	-9.819748				-0.006785	0.000808	-0.001239				179.258964	-0.528907	-18.474485
00905	15727062	0.099192	0.125578	-9.811597				-0.004722	0.000325	-0.003657				179.259790	-0.528653	-18.474046
00906	15727112	0.107057	0.125889	-9.806607				-0.005242	0.000770	-0.000699				179.258286	-0.528871	-18.473844
00907	15727162	0.116541	0.121335	-9.827503				-0.003104	0.002102	-0.000538				179.259584	-0.529137	-18.474298
00908	15727212	0.115638	0.125523	-9.811919				-0.002499	0.000110	0.000472				179.258869	-0.529170	-18.474431
00909	15727262	0.126216	0.112842	-9.793995				-0.001677	0.001446	-0.002183				179.260571	-0.529243	-18.474405
00910	15727312	0.104876	0.131375	-9.812585				-0.003508	0.002676	-0.001915				179.259561	-0.530002	-18.473845
00911	15727362	0.104750	0.129873	-9.822651				-0.004802	0.001975	-0.002491				179.260367	-0.530225	-18.473743
00912	15727412	0.106227	0.112891	-9.819059				-0.001124	-0.000570	0.001912				179.260050	-0.530069	-18.474294
00913	15727462	0.097817	0.103384	-9.818532				-0.004067	0.000019	0.000545				179.261075	-0.529742	-18.475057
00914	15727512	0.093056	0.130222	-9.839602				-0.004369	-0.001641	-0.001610				179.259819	-0.529266	-18.474603
00915	15727562	0.106528	0.114222	-9.825769				-0.000624	-0.000734	-0.003544				179.261819	-0.528709	-18.474190
00916	15727612	0.100996	0.142216	-9.832220				-0.001312	-0.000098	-0.001098				179.261440	-0.528677	-18.473873
00917	15727662	0.088802	0.127931	-9.817533				-0.005037	0.001492	0.001035				179.262188	-0.528774	-18.474800
00918	15727712	0.100361	0.122731	-9.843719				-0.003439	0.000316	-0.002183				179.261197	-0.528857	-18.474172
00919	15727762	0.100247	0.114443	-9.843717				-0.003923	0.001208	-0.004678				179.262249	-0.528852	-18.473462
00920	15727812	0.122271	0.114609	-9.816980				-0.004158	0.000956	0.000033				179.261058	-0.529126	-18.473467
00921	15727862	0.111814	0.124642	-9.810704				-0.006980	0.000933	-0.000502				179.261246	-0.529057	-18.473950
00922	15727912	0.101665	0.126554	-9.831020				-0.002812	-0.001324	-0.003254				179.260432	-0.528666	-18.473023
00923	15727962	0.121978	0.119694	-9.828722				-0.003178	0.000092	-0.001673				179.261706	-0.528352	-18.473159
00924	15728012	0.103091	0.127746	-9.828395				-0.000627	0.000496	-0.001869				179.261521	-0.528487	-18.472622
00925	15728062	0.123927	0.109767	-9.821788				-0.005204	-0.000390	-0.000580				179.262218	-0.528040	-18.473097
00926	15728112	0.114685	0.112819	-9.820782				-0.001856	0.002355	0.002027				179.261691	-0.528722	-18.473668
00927	15728162	0.114383	0.116709	-9.833236				-0.007169	-0.002170	0.000636				179.261828	-0.527769	-18.474476
00928	15728212	0.105664	0.139832	-9.815713				-0.007719	-0.000757	0.000580				179.259619	-0.527554	-18.474644
00929	15728262	0.101120	0.118129	-9.803937				-0.003769	0.000060	0.001472				179.260731	-0.527243	-18.475681
00930	15728312	0.096025	0.139042	-9.821410				-0.007087	0.002487	-0.000525				179.258699	-0.527953	-18.475523
00931	15728362	0.119529	0.121672	-9.818647				-0.002676	0.000659	0.000381				179.260123	-0.527809	-18.476244
00932	15728412	0.101246	0.117798	-9.815206				-0.002263	0.002665	-0.002110				179.259469	-0.528565	-18.475629
00933	15728462	0.093414	0.120993	-9.832647				0.000866	0.000334	0.000594				179.261907	-0.528329	-18.476427
00934	15728512	0.092329	0.121585	-9.822588				-0.002883	-0.000967	-0.001097				179.261078	-0.528048	-18.476117
00935	15728562	0.089723	0.143766	-9.826407				-0.005245	-0.002272	-0.001805				179.261759	-0.527056	-18.476225
00936	15728612	0.095502	0.130955	-9.836981				-0.004534	-0.000313	0.000417				179.260461	-0.526968	-18.476345
00937	15728662	0.093303	0.108028	-9.818277				-0.003131	0.001910	-0.000632				179.261751	-0.527179	-18.476766
00938	15728712	0.110356	0.102846	-9.826986				-0.001005	0.001522	-0.001447				179.261459	-0.527609	-18.476345
00939	15728762	0.115847	0.114368	-9.823421				-0.004277	0.001698	-0.000153				179.262422	-0.527761	-18.476882
00940	15728812	0.111061	0.125705	-9.810699				-0.004649	0.000165	-0.001409				179.261086	-0.527803	-18.476474
00941	15728862	0.095028	0.123914	-9.811811				-0.003589	0.005062	-0.004400				179.262235	-0.528903	-18.475807
00942	15728912	0.095515	0.127844	-9.835068				-0.005043	0.001518	-0.002109				179.260784	-0.529330	-18.475199
00943	15728962	0.138117	0.106897	-9.815386				-0.002058	0.003578	0.000781				179.262385	-0.530023	-18.476000
00944	15729012	0.105964	0.149817	-9.815711				-0.002120	0.004547	0.000083				179.261777	-0.531326	-18.476006
00945	15729062	0.111849	0.112884	-9.819328				-0.005831	0.003251	-0.001201				179.262293	-0.531919	-18.476265
00946	15729112	0.119492	0.113126	-9.830150				-0.006125	0.001307	-0.001433				179.260534	-0.532288	-18.475848
00947	15729162	0.128773	0.116341	-9.810781				-0.008411	-0.001056	0.003245				179.260322	-0.531664	-18.477414
00948	15729212	0.112376	0.114112	-9.838492				-0.005920	-0.000375	-0.002278				179.258619	-0.531548	-18.476764
00949	15729262	0.133907	0.109824	-9.805062				-0.005954	0.001956	-0.000403				179.259102	-0.531773	-18.477239
00950	15729312	0.098016	0.124005	-9.803683				-0.003461	0.002292	0.000074				179.258110	-0.532429	-18.477248
00951	15729362	0.130738	0.095802	-9.838114				-0.003389	0.002609	-0.004963				179.259315	-0.532824	-18.476426
00952	15729412	0.104471	0.121220	-9.804671				-0.000834	0.001170	-0.001672				179.259071	-0.533153	-18.475942
00953	15729462	0.112610	0.123945	-9.800639				-0.004982	0.004979	0.000092				179.259833	-0.534246	-18.476578
00954	15729512	0.105567	0.123073	-9.812588				-0.003085	-0.001942	-0.002100				179.258944	-0.533682	-18.475984
00955	15729562	0.087901	0.130282	-9.830954				-0.005530	0.003871	-0.001130				179.259545	-0.534453	-18.476251
00956	15729612	0.086400	0.110847	-9.818480				-0.005642	0.004186	-0.003468				179.257919	-0.535640	-18.475239
00957	15729662	0.103025	0.118429	-9.810174				0.000450	-0.002368	-0.004773				179.260224	-0.534610	-18.474480
00958	15729712	0.109594	0.108838	-9.828661				-0.002107	0.002962	-0.000121				179.259620	-0.535458	-18.474434
00959	15729762	0.087207	0.114153	-9.819441				-0.002724	-0.000929	-0.000837				179.261027	-0.534854	-18.474805
00960	15729812	0.114707	0.116437	-9.827731				-0.001793	0.002123	-0.001734				179.260509	-0.535456	-18.474299
00961	15729862	0.105047	0.112377	-9.843018				-0.001711	0.002219	-0.004642				179.262195	-0.535741	-18.473593
00962	15729912	0.106896	0.126143	-9.811390				-0.002509	0.002207	-0.005154				179.261462	-0.536354	-18.472108
00963	15729962	0.088321	0.131845	-9.825200				-0.004462	0.003374	-0.002123				179.262367	-0.536979	-18.472061
00964	15730012	0.094027	0.122673	-9.815168				-0.001995	0.001283	-0.003073				179.261787	-0.537335	-18.471176
00965	15730062	0.115022	0.116818	-9.821014				-0.008702	-0.001186	0.001293				179.261487	-0.536666	-18.472160
00966	15730112	0.105340	0.112674	-9.810665				-0.006593	0.002621	-0.005013				179.259585	-0.537398	-18.470716
00967	15730162	0.122630	0.119450	-9.823211				-0.003801	-0.002097	0.003645				179.260695	-0.536477	-18.472398
00968	15730212	0.106315	0.137183	-9.833913				-0.002753	-0.000887	0.000250				179.259907	-0.536224	-18.472472
00969	15730262	0.105597	0.118181	-9.816899				-0.004102	0.003025	-0.002418				179.260914	-0.536747	-18.472383
00970	15730312	0.115265	0.125344	-9.831084				-0.004925	-0.000487	-0.005293				179.259489	-0.536588	-18.470864
00971	15730362	0.117275	0.093140	-9.818385				-0.002187	-0.000849	-0.002000				179.261046	-0.536004	-18.470942
00972	15730412	0.117551	0.113151	-9.819594				-0.004221	0.002931	-0.000848				179.259835	-0.536840	-18.470689
00973	15730462	0.102149	0.128104	-9.815203				-0.007184	0.003360	-0.002731				179.259958	-0.537459	-18.470522
00974	15730512	0.107051	0.116686	-9.840153				-0.004984	-0.000776	-0.004457				179.258519	-0.537220	-18.469247
00975	15730562	0.123136	0.101578	-9.814587				-0.007490	0.001674	-0.003348				179.258553	-0.537353	-18.468905
00976	15730612	0.102791	0.122003	-9.819281				-0.003005	-0.003126	-0.000308				179.257691	-0.536456	-18.468831
00977	15730662	0.110555	0.109511	-9.835135				-0.007059	0.001360	-0.000370				179.257857	-0.536511	-18.469349
00978	15730712	0.087433	0.123960	-9.839336				-0.002141	-0.000199	-0.000706				179.257242	-0.536451	-18.469148
00979	15730762	0.105263	0.121540	-9.816896				-0.006629	0.000945	-0.002459				179.257526	-0.536379	-18.469012
00980	15730812	0.094293	0.115991	-9.810852				-0.003503	0.000223	-0.003073				179.256514	-0.536432	-18.468128
00981	15730862	0.110123	0.117114	-9.826027				-0.000902	0.001438	0.000898				179.258447	-0.536513	-18.468973
00982	15730912	0.111835	0.126842	-9.810941				-0.000109	0.001712	-0.000671				179.258414	-0.537001	-18.468773
00983	15730962	0.108613	0.124440	-9.819792				-0.003310	0.002659	0.000495				179.259657	-0.537430	-18.469510
00984	15731012	0.136488	0.123273	-9.816574				-0.004876	0.002005	-0.005022				179.258246	-0.537986	-18.468061
00985	15731062	0.127432	0.104964	-9.824672				-0.000943	0.002339	-0.002501				179.260159	-0.538312	-18.467945
00986	15731112	0.107627	0.126394	-9.827940				-0.002188	0.001347	-0.002497				179.259525	-0.538689	-18.467226
00987	15731162	0.087760	0.143932	-9.806747				-0.004692	-0.000443	-0.001474				179.260366	-0.538223	-18.467402
00988	15731212	0.121638	0.108224	-9.817937				-0.006029	0.002348	-0.001908				179.258634	-0.538888	-18.466846
00989	15731262	0.104880	0.111208	-9.822408				-0.006896	-0.000443	0.000715				179.258849	-0.538430	-18.467647
00990	15731312	0.117340	0.130799	-9.813127				-0.002937	0.003989	-0.000267				179.258007	-0.539572	-18.467554
00991	15731362	0.095296	0.137597	-9.824522				-0.002383	0.000537	0.000165				179.259513	-0.539392	-18.468201
00992	15731412	0.113762	0.111901	-9.829642				-0.007521	0.002199	0.002269				179.257365	-0.540031	-18.468842
00993	15731462	0.114147	0.123854	-9.812868				-0.001739	-0.003812	-0.001309				179.259053	-0.538600	-18.469092
00994	15731512	0.112465	0.117834	-9.833230				-0.007223	-0.002588	-0.001577				179.256980	-0.537852	-18.468651
00995	15731562	0.115195	0.113442	-9.806164				-0.005171	-0.003418	0.001847				179.257692	-0.536547	-18.469791
00996	15731612	0.129265	0.113041	-9.817258				-0.005098	-0.004105	-0.002042				179.256227	-0.535363	-18.469227
00997	15731662	0.106661	0.125421	-9.833920				-0.007209	-0.001333	-0.003875				179.256341	-0.534633	-18.468728
00998	15731712	0.098689	0.124447	-9.837235				0.000151	0.002261	-0.002789				179.256376	-0.535270	-18.467918
00999	15731762	0.110853	0.121140	-9.839694				-0.002446	0.001768	0.001483				179.257869	-0.535448	-18.468952
01000	15731812	0.105041	0.119957	-9.815218				-0.002948	0.000976	-0.002789				179.257017	-0.535718	-18.468151
01001	15731862	0.108406	0.111725	-9.812843				-0.003966	-0.000301	-0.002309				179.258065	-0.535289	-18.468102
01002	15731912	0.125218	0.105038	-9.823469				-0.005476	-0.000036	-0.001436				179.256492	-0.535273	-18.467692
01003	15731962	0.107792	0.116358	-9.802295				-0.004943	0.000330	-0.001436				179.257262	-0.535028	-18.467880
01004	15732012	0.098926	0.119897	-9.827413				-0.001580	0.001358	-0.002559				179.256802	-0.535408	-18.467143
01005	15732062	0.111008	0.101197	-9.819324				-0.005180	0.001582	-0.003354				179.257499	-0.535514	-18.466785
01006	15732112	0.104234	0.119279	-9.803229				-0.000802	0.000372	0.000577				179.257271	-0.535623	-18.466947
01007	15732162	0.097547	0.109693	-9.817096				-0.002529	0.001082	-0.001631				179.258731	-0.535593	-18.467111
01008	15732212	0.101976	0.114597	-9.849952				-0.003678	0.001938	-0.001238				179.257674	-0.536143	-18.466749
01009	15732262	0.119326	0.106393	-9.824160				-0.005329	0.002622	0.000822				179.258339	-0.536564	-18.467576
01010	15732312	0.103456	0.129967	-9.817849				-0.002034	-0.000326	0.001600				179.257761	-0.536476	-18.468036
01011	15732362	0.102847	0.136366	-9.843495				-0.005032	0.000973	-0.002620				179.258502	-0.536411	-18.467872
01012	15732412	0.091861	0.127403	-9.800775				-0.001998	-0.002923	-0.004414				179.257918	-0.535558	-18.466619
01013	15732462	0.111841	0.133138	-9.838501				-0.007048	-0.000840	-0.000638				179.258087	-0.534981	-18.467047
01014	15732512	0.099303	0.133183	-9.829093				-0.003219	0.002620	-0.003324				179.257155	-0.535719	-18.466083
01015	15732562	0.105055	0.141625	-9.828648				-0.004463	-0.000763	-0.001831				179.258062	-0.535160	-18.466174
01016	15732612	0.110363	0.131268	-9.819801				-0.003462	-0.000676	0.000737				179.257072	-0.534969	-18.466388
01017	15732662	0.099903	0.113949	-9.808244				-0.004268	0.003182	-0.003479				179.258030	-0.535533	-18.465988
01018	15732712	0.116226	0.124597	-9.827505				-0.003403	0.000164	-0.001024				179.257052	-0.535577	-18.465693
01019	15732762	0.106978	0.109849	-9.812830				-0.005066	-0.000932	-0.001346				179.257787	-0.534971	-18.465905
01020	15732812	0.119850	0.093016	-9.818877				-0.004987	-0.001512	-0.001385				179.256355	-0.534532	-18.465515
01021	15732862	0.097816	0.114806	-9.836038				-0.004334	0.001506	-0.000662				179.257300	-0.534627	-18.465917
01022	15732912	0.108482	0.114598	-9.814996				-0.003239	0.004272	-0.001965				179.256367	-0.535844	-18.465333
01023	15732962	0.105528	0.124893	-9.824810				-0.003113	0.002104	-0.003934				179.257654	-0.536098	-18.464783
01024	15733012	0.112316	0.119726	-9.831548				-0.005349	-0.005142	-0.001209				179.256119	-0.534621	-18.464453
01025	15733062	0.106041	0.123269	-9.830561				0.000113	0.001518	-0.001445				179.258337	-0.534716	-18.464632
01026	15733112	0.102071	0.119317	-9.836774				-0.003255	0.000584	-0.003011				179.257396	-0.534872	-18.463767
01027	15733162	0.108490	0.095625	-9.831767				-0.004069	0.000791	-0.003071				179.258413	-0.534753	-18.463496
01028	15733212	0.099210	0.144862	-9.815194				-0.002142	-0.000045	-0.002218				179.257793	-0.534732	-18.462860
01029	15733262	0.117557	0.109974	-9.820315				-0.000960	0.000209	0.000476				179.259710	-0.534460	-18.463611
01030	15733312	0.091367	0.129285	-9.822575				-0.004623	-0.000733	-0.002370				179.258379	-0.534241	-18.462934
01031	15733362	0.101873	0.124369	-9.820239				-0.005567	-0.000133	-0.001600				179.258970	-0.533863	-18.463069
01032	15733412	0.103511	0.119693	-9.829597				-0.003207	0.003039	-0.003224				179.258043	-0.534722	-18.462131
01033	15733462	0.116817	0.123015	-9.828938				-0.005499	0.004207	0.002723				179.258664	-0.535603	-18.463533
01034	15733512	0.109549	0.115462	-9.825070				-0.003964	0.004803	-0.002636				179.257521	-0.536969	-18.462759
01035	15733562	0.116898	0.125370	-9.820552				-0.000675	0.001378	0.000837				179.259520	-0.537033	-18.463610
01036	15733612	0.100189	0.119146	-9.839169				-0.003885	0.002352	-0.002614				179.258400	-0.537697	-18.462853
01037	15733662	0.103076	0.120119	-9.836542				-0.004721	0.002501	-0.001424				179.259233	-0.538074	-18.463050
01038	15733712	0.096667	0.129323	-9.825245				-0.002815	0.001081	0.000648				179.258428	-0.538386	-18.463229
01039	15733762	0.116446	0.122139	-9.818631				-0.004090	0.000729	-0.001209				179.259444	-0.538256	-18.463499
01040	15733812	0.113621	0.115711	-9.821247				-0.002073	-0.001003	0.002977				179.258858	-0.537980	-18.464357
01041	15733862	0.117016	0.112611	-9.804014				-0.002739	0.002497	-0.003007				179.260255	-0.538350	-18.464090
01042	15733912	0.097722	0.142062	-9.835557				-0.003335	0.000773	-0.005510				179.259285	-0.538551	-18.462507
01043	15733962	0.120923	0.118408	-9.815300				-0.007954	-0.001460	0.002315				179.259203	-0.537807	-18.463804
01044	15734012	0.111609	0.116817	-9.818124				-0.004417	0.003291	0.002713				179.257945	-0.538760	-18.464567
01045	15734062	0.098537	0.123048	-9.814468				-0.004707	0.000949	-0.000919				179.258784	-0.538694	-18.464912
01046	15734112	0.100631	0.123332	-9.817111				-0.002930	-0.001509	-0.000811				179.257943	-0.538259	-18.464684
01047	15734162	0.088516	0.138496	-9.812509				-0.001950	-0.001171	-0.001995				179.259569	-0.537582	-18.464717
01048	15734212	0.097387	0.131245	-9.827171				-0.003019	0.003237	-0.003317				179.258695	-0.538497	-18.463752
01049	15734262	0.122827	0.120612	-9.821058				-0.004500	-0.000703	-0.002471				179.259589	-0.537953	-18.463642
01050	15734312	0.114310	0.113761	-9.803284				-0.004009	0.002153	-0.002133				179.258435	-0.538562	-18.463024
01051	15734362	0.111455	0.124677	-9.820524				-0.004142	0.000313	-0.001762				179.259434	-0.538311	-18.463139
01052	15734412	0.103081	0.140182	-9.815216				-0.003487	0.000905	-0.000955				179.258432	-0.538567	-18.462863
01053	15734462	0.116732	0.115511	-9.822469				-0.002424	-0.000339	-0.001930				179.259923	-0.538128	-18.462929
01054	15734512	0.096529	0.141073	-9.805116				-0.001929	-0.001848	-0.001971				179.259365	-0.537592	-18.462371
01055	15734562	0.109397	0.133080	-9.826981				-0.003105	-0.001226	-0.002155				179.260659	-0.536898	-18.462349
01056	15734612	0.118703	0.117815	-9.811931				-0.004789	-0.003546	0.000273				179.259288	-0.535883	-18.462442
01057	15734662	0.108749	0.133330	-9.833216				-0.002777	0.000653	-0.002979				179.260675	-0.535725	-18.462200
01058	15734712	0.109180	0.116743	-9.814999				-0.003833	0.001840	-0.000501				179.259575	-0.536250	-18.462049
01059	15734762	0.103694	0.110958	-9.813537				-0.003266	0.001136	-0.000378				179.260829	-0.536240	-18.462573
01060	15734812	0.105285	0.129684	-9.836314				-0.007807	0.001766	-0.001262				179.258589	-0.536741	-18.462202
01061	15734862	0.087711	0.126978	-9.806024				-0.003676	-0.001134	-0.001095				179.259723	-0.536079	-18.462509
01062	15734912	0.110701	0.125936	-9.826509				-0.002401	0.000315	0.002087				179.259041	-0.536177	-18.463107
01063	15734962	0.098579	0.122492	-9.823095				-0.006256	0.000142	-0.003873				179.259428	-0.535869	-18.462609
01064	15735012	0.105432	0.128279	-9.815935				-0.001207	0.003016	0.001228				179.259086	-0.536737	-18.462947
01065	15735062	0.124361	0.092780	-9.812675				-0.004396	0.001375	-0.000373				179.260015	-0.536796	-18.463447
01066	15735112	0.111732	0.124852	-9.829635				-0.004022	0.001574	-0.001945				179.258858	-0.537240	-18.462886
01067	15735162	0.106638	0.106671	-9.827208				-0.003617	0.000899	-0.002655				179.260004	-0.537153	-18.462734
01068	15735212	0.105495	0.127342	-9.825290				-0.004631	0.000758	-0.000186				179.258677	-0.537370	-18.462677
01069	15735262	0.122078	0.125436	-9.831604				-0.003018	0.003301	-0.001779				179.259997	-0.537975	-18.462771
01070	15735312	0.126270	0.104644	-9.830667				-0.002600	0.000308	-0.000671				179.259251	-0.538061	-18.462578
01071	15735362	0.103467	0.104366	-9.825747				-0.006881	0.002979	0.000537				179.259471	-0.538582	-18.463329
01072	15735412	0.110036	0.113872	-9.819077				-0.000146	-0.001462	-0.000241				179.259429	-0.538162	-18.463265
01073	15735462	0.114055	0.108883	-9.822693				-0.004947	0.002363	-0.003320				179.260193	-0.538493	-18.462917
01074	15735512	0.099598	0.123704	-9.801290				-0.000856	-0.001308	-0.001102				179.259945	-0.538114	-18.462603
01075	15735562	0.099703	0.134364	-9.827418				-0.003263	0.001942	-0.000215				179.261199	-0.538335	-18.463133
01076	15735612	0.093900	0.125983	-9.808928				-0.004812	-0.000735	-0.001282				179.259817	-0.538120	-18.462773
01077	15735662	0.106840	0.111276	-9.815470				-0.003262	0.002013	0.000460				179.261074	-0.538364	-18.463506
01078	15735712	0.100776	0.140552	-9.821678				0.001225	0.000899	-0.000325				179.261424	-0.538620	-18.463410
01079	15735762	0.112233	0.103560	-9.829632				-0.006938	0.001749	-0.001071				179.261623	-0.538784	-18.463697
01080	15735812	0.101107	0.115914	-9.827423				-0.006544	0.000370	-0.000887				179.259746	-0.538886	-18.463442
01081	15735862	0.110140	0.101137	-9.820987				-0.001516	0.002493	-0.001211				179.261499	-0.539261	-18.463675
01082	15735912	0.122185	0.114114	-9.818899				-0.005819	-0.001599	-0.003435				179.259823	-0.538791	-18.462696
01083	15735962	0.104937	0.117430	-9.802754				-0.002085	-0.000073	-0.002570				179.261409	-0.538426	-18.462558
01084	15736012	0.109274	0.099645	-9.814751				-0.001746	-0.000452	-0.000680				179.260907	-0.538294	-18.462365
