// General information: 
//  MT Manager version: 2022.0.0 
//  XDA version: 2022.0.0 build 7085 rev 119802 built on 2022-11-08
// Device information: 
//  DeviceId: 037004D1
//  ProductCode: MTi-300-2A5G4
//  Firmware Version: 1.4.1
//  Hardware Version: 2.1.0
// Device settings: 
//  Filter Profile: general(39.16)
//  Option Flags: Orientation Smoother Disabled, Position/Velocity Smoother Disabled, Continuous Zero Rotation Update Disabled, AHS Disabled, ICC Disabled
// Coordinate system: ENU
PacketCounter	SampleTimeFine	Acc_X	Acc_Y	Acc_Z	AccHR_X	AccHR_Y	AccHR_Z	Gyr_X	Gyr_Y	Gyr_Z	GyrHR_X	GyrHR_Y	GyrHR_Z	Roll	Pitch	Yaw
00001	16212162	-0.231766	9.803013	0.316672				-0.000904	0.001852	-0.001537				87.869334	1.519891	-31.268451
00002	16212212	-0.214360	9.799292	0.325970				-0.003303	-0.001163	0.001336				87.868367	1.519495	-31.268761
00003	16212262	-0.220918	9.794436	0.312400				-0.004508	0.000203	-0.001571				87.869287	1.519300	-31.269001
00004	16212312	-0.240288	9.837237	0.320981				0.000055	0.000900	-0.000903				87.869305	1.519568	-31.268746
00005	16212362	-0.227878	9.801841	0.303198				0.000944	-0.001803	-0.000217				87.871810	1.518962	-31.269578
00006	16212412	-0.223588	9.817373	0.315195				-0.001439	-0.000682	-0.002289				87.871381	1.519608	-31.269798
00007	16212462	-0.241421	9.805852	0.324616				-0.008587	0.005719	-0.003164				87.871206	1.519933	-31.268482
00008	16212512	-0.247938	9.825236	0.324260				-0.003438	-0.000467	-0.006644				87.870222	1.521830	-31.268689
00009	16212562	-0.261432	9.812591	0.317842				-0.001747	-0.002179	-0.003932				87.871932	1.522286	-31.269600
00010	16212612	-0.241291	9.801270	0.330042				-0.006492	-0.001606	0.001857				87.870056	1.521736	-31.270039
00011	16212662	-0.256492	9.813372	0.317372				-0.004910	-0.000390	-0.003749				87.870868	1.522154	-31.270449
00012	16212712	-0.252676	9.816294	0.315411				-0.003757	-0.001309	-0.003408				87.869780	1.523115	-31.270858
00013	16212762	-0.232814	9.806777	0.318253				-0.004997	0.000384	-0.003174				87.870585	1.523386	-31.271070
00014	16212812	-0.252407	9.832840	0.319813				-0.006780	0.001229	-0.002358				87.868649	1.524075	-31.270741
00015	16212862	-0.241899	9.818164	0.310263				-0.002012	0.001442	-0.002149				87.870293	1.524052	-31.270608
00016	16212912	-0.244196	9.806480	0.312564				-0.006530	-0.000872	-0.004166				87.868422	1.525236	-31.270902
00017	16212962	-0.233511	9.810616	0.314183				-0.006381	0.001787	-0.000816				87.868837	1.524841	-31.270689
00018	16213012	-0.212801	9.802943	0.305319				-0.000580	0.000954	0.000922				87.868671	1.524585	-31.270406
00019	16213062	-0.222889	9.796426	0.320092				-0.005680	0.000992	-0.000507				87.869295	1.524096	-31.270403
00020	16213112	-0.219477	9.804117	0.331804				-0.003454	0.000414	-0.000319				87.868314	1.524190	-31.270293
00021	16213162	-0.217164	9.794601	0.335389				-0.004063	0.001832	0.002351				87.869385	1.522889	-31.270027
00022	16213212	-0.223804	9.810575	0.325082				-0.003113	0.001847	-0.000729				87.868508	1.523115	-31.269511
00023	16213262	-0.224203	9.818392	0.309710				-0.002564	0.000951	0.001606				87.870012	1.522025	-31.269495
00024	16213312	-0.221003	9.807108	0.305863				-0.001758	-0.001623	-0.000434				87.869493	1.522132	-31.269960
00025	16213362	-0.242846	9.808372	0.329534				-0.004274	0.001113	-0.000890				87.870513	1.521751	-31.269920
00026	16213412	-0.242844	9.832836	0.296715				-0.006393	0.000938	-0.004737				87.868682	1.523117	-31.269701
00027	16213462	-0.239784	9.825098	0.308825				-0.002239	0.004836	0.000922				87.870324	1.522257	-31.268616
00028	16213512	-0.237465	9.808894	0.330619				-0.002599	0.001457	-0.004197				87.869591	1.523475	-31.268246
00029	16213562	-0.236328	9.800249	0.322957				-0.004720	0.004011	-0.003026				87.870464	1.523729	-31.267396
00030	16213612	-0.236516	9.806021	0.333269				-0.001021	0.002460	-0.002722				87.870188	1.524535	-31.266722
00031	16213662	-0.256342	9.815271	0.317003				-0.000140	0.000154	0.000567				87.872391	1.523729	-31.266950
00032	16213712	-0.254315	9.822069	0.323833				-0.002943	-0.002319	0.002036				87.871520	1.523122	-31.267587
00033	16213762	-0.249440	9.803522	0.330935				-0.004036	0.002832	0.000400				87.872617	1.522390	-31.267027
00034	16213812	-0.242595	9.816316	0.306488				-0.004090	0.001246	-0.002142				87.871455	1.523015	-31.266694
00035	16213862	-0.251865	9.826194	0.320188				-0.003283	-0.000203	-0.003497				87.872746	1.523370	-31.267068
00036	16213912	-0.252515	9.815079	0.332649				-0.003853	0.000832	-0.001443				87.871643	1.523790	-31.266842
00037	16213962	-0.228145	9.794450	0.321074				-0.004133	0.000432	-0.002726				87.872693	1.523928	-31.267038
00038	16214012	-0.255705	9.809637	0.329223				-0.007808	0.000339	-0.000984				87.870465	1.524212	-31.266962
00039	16214062	-0.239303	9.824584	0.311220				-0.002114	0.001896	0.000519				87.872087	1.523433	-31.266696
00040	16214112	-0.220388	9.812429	0.314928				-0.001207	-0.001741	-0.000147				87.871726	1.523455	-31.267195
00041	16214162	-0.211855	9.791747	0.340438				-0.005114	0.000057	-0.003784				87.872490	1.523891	-31.267517
00042	16214212	-0.208691	9.815807	0.320695				-0.004800	0.002192	-0.003553				87.871123	1.524932	-31.266919
00043	16214262	-0.218011	9.803616	0.350610				-0.000794	-0.000902	-0.004828				87.873109	1.525652	-31.267499
00044	16214312	-0.209356	9.801641	0.315719				-0.003847	0.001539	-0.001406				87.872025	1.526072	-31.267076
00045	16214362	-0.224584	9.829157	0.335114				-0.003462	0.001839	-0.000378				87.873266	1.525548	-31.266811
00046	16214412	-0.225716	9.835279	0.321215				-0.000744	-0.005162	0.000829				87.873009	1.525259	-31.268273
00047	16214462	-0.225301	9.822073	0.316647				-0.001866	0.002028	-0.001183				87.874713	1.524970	-31.267968
00048	16214512	-0.236907	9.816895	0.320115				-0.004794	0.004437	0.000218				87.873381	1.524957	-31.266697
00049	16214562	-0.210016	9.815718	0.310039				-0.006680	-0.003140	-0.002999				87.873681	1.525127	-31.267903
00050	16214612	-0.248378	9.824093	0.321100				-0.002340	0.002266	-0.007047				87.873024	1.527164	-31.267332
00051	16214662	-0.262043	9.803982	0.321650				-0.002691	0.000523	-0.002081				87.874480	1.527122	-31.267471
00052	16214712	-0.248667	9.817335	0.328356				-0.004932	-0.002453	0.000250				87.873044	1.527024	-31.268170
00053	16214762	-0.238370	9.803930	0.344552				-0.003307	0.002873	-0.002389				87.874351	1.527092	-31.267656
00054	16214812	-0.237101	9.819080	0.316280				-0.002850	0.001021	0.004176				87.873547	1.525907	-31.267321
00055	16214862	-0.247922	9.818728	0.315371				-0.004122	0.001273	-0.001632				87.874600	1.525739	-31.267234
00056	16214912	-0.241868	9.810923	0.318694				-0.004004	-0.003505	-0.000243				87.873431	1.525771	-31.268240
00057	16214962	-0.243059	9.804220	0.306052				-0.005084	0.002719	0.001784				87.874225	1.524641	-31.267723
00058	16215012	-0.223263	9.798966	0.308952				0.000527	-0.000836	0.000364				87.874370	1.524527	-31.267960
00059	16215062	-0.233511	9.805120	0.317451				-0.002758	-0.001515	-0.002902				87.875791	1.524694	-31.268686
00060	16215112	-0.223939	9.803289	0.335677				-0.005673	0.000803	-0.000063				87.874163	1.524716	-31.268455
00061	16215162	-0.216489	9.804653	0.314229				-0.002245	0.000893	0.001374				87.875763	1.523686	-31.268439
00062	16215212	-0.237226	9.806904	0.305752				-0.003707	-0.000656	-0.001224				87.874695	1.524031	-31.268639
00063	16215262	-0.214516	9.815643	0.326655				-0.002494	0.003867	0.001681				87.876229	1.522935	-31.267758
00064	16215312	-0.205614	9.812694	0.309594				-0.000911	0.000172	0.000309				87.875975	1.522850	-31.267702
00065	16215362	-0.218137	9.803152	0.318558				-0.002771	-0.001836	0.000560				87.877395	1.522021	-31.268522
00066	16215412	-0.225822	9.824041	0.311430				-0.000963	0.000523	-0.002187				87.877117	1.522652	-31.268397
00067	16215462	-0.220493	9.818645	0.312061				-0.001054	0.001558	-0.000805				87.879070	1.522248	-31.268254
00068	16215512	-0.232464	9.812985	0.330965				-0.006512	-0.000286	-0.002113				87.877212	1.522854	-31.268358
00069	16215562	-0.234673	9.819489	0.322606				-0.007158	0.001962	-0.003897				87.877391	1.523331	-31.268113
00070	16215612	-0.234929	9.822197	0.331025				-0.005911	0.000215	-0.001279				87.875698	1.523700	-31.268066
00071	16215662	-0.236085	9.805511	0.320674				-0.005981	-0.001797	-0.001355				87.876200	1.523418	-31.268868
00072	16215712	-0.251328	9.843789	0.317801				-0.004598	0.000037	-0.001823				87.874883	1.523942	-31.268877
00073	16215762	-0.249581	9.807035	0.303149				-0.002453	-0.001992	-0.001749				87.876399	1.523771	-31.269757
00074	16215812	-0.235580	9.808835	0.304951				-0.001601	0.000740	-0.000645				87.875945	1.523963	-31.269556
00075	16215862	-0.261396	9.810342	0.309777				-0.007394	0.003381	-0.002795				87.876081	1.524149	-31.268895
00076	16215912	-0.248196	9.810102	0.305075				-0.003247	0.002938	-0.003290				87.875183	1.525125	-31.268092
00077	16215962	-0.241262	9.825898	0.317082				-0.004538	-0.000438	0.002630				87.876090	1.523710	-31.268447
00078	16216012	-0.252945	9.826179	0.320437				-0.003793	0.002451	0.001877				87.875023	1.523198	-31.267724
00079	16216062	-0.247563	9.820304	0.305531				-0.001735	-0.001298	-0.000243				87.876739	1.522603	-31.268379
00080	16216112	-0.238561	9.803085	0.337413				-0.005824	0.000407	-0.000534				87.875067	1.522759	-31.268268
00081	16216162	-0.213492	9.811374	0.312288				-0.002845	0.000459	-0.000294				87.876482	1.522199	-31.268438
00082	16216212	-0.223077	9.812442	0.312821				-0.001863	0.000535	-0.003501				87.875947	1.523207	-31.268320
00083	16216262	-0.234607	9.808055	0.310253				-0.002456	0.000405	0.000768				87.877484	1.522341	-31.268457
00084	16216312	-0.220187	9.820805	0.325788				-0.004326	0.000560	-0.001027				87.876241	1.522641	-31.268303
00085	16216362	-0.224443	9.813831	0.313313				-0.002839	-0.000831	-0.000234				87.877658	1.522046	-31.268842
00086	16216412	-0.216260	9.801244	0.305227				-0.006053	-0.001936	-0.004146				87.875894	1.523210	-31.269441
00087	16216462	-0.224976	9.830352	0.318475				-0.000808	-0.002389	-0.003070				87.877885	1.523415	-31.270440
00088	16216512	-0.214805	9.817698	0.316645				-0.003004	0.003493	-0.001654				87.877046	1.523926	-31.269455
00089	16216562	-0.231039	9.802154	0.311192				-0.002337	-0.000665	-0.002958				87.878599	1.524115	-31.269923
00090	16216612	-0.216828	9.814145	0.314204				-0.002708	0.002248	0.001641				87.877840	1.523668	-31.269263
00091	16216662	-0.235903	9.809032	0.322806				-0.005125	0.000614	-0.001214				87.878610	1.523373	-31.269391
00092	16216712	-0.247757	9.822044	0.330750				-0.004733	0.000559	0.001448				87.877265	1.522966	-31.269215
00093	16216762	-0.238953	9.818858	0.298320				-0.003363	0.001679	-0.000057				87.878531	1.522345	-31.268994
00094	16216812	-0.244832	9.812225	0.324130				-0.001378	0.002584	-0.002527				87.878142	1.523095	-31.268274
00095	16216862	-0.243043	9.808311	0.317942				-0.003973	0.000604	-0.001571				87.879263	1.522906	-31.268428
00096	16216912	-0.227859	9.815272	0.308871				-0.004750	0.000713	-0.003426				87.877905	1.523894	-31.268258
00097	16216962	-0.249341	9.819302	0.322869				-0.005862	-0.000177	0.000389				87.878455	1.523123	-31.268568
00098	16217012	-0.245437	9.802373	0.332075				-0.000404	-0.000826	-0.001554				87.878332	1.523558	-31.268822
00099	16217062	-0.243350	9.813541	0.316364				-0.006001	-0.000378	-0.004199				87.878813	1.524105	-31.269258
00100	16217112	-0.245402	9.808920	0.307445				-0.001313	0.001354	-0.004043				87.878442	1.525274	-31.268916
00101	16217162	-0.238114	9.816811	0.323963				-0.003126	-0.001583	0.001720				87.879796	1.524118	-31.269638
00102	16217212	-0.231922	9.800659	0.299933				-0.001443	-0.000522	-0.002580				87.879385	1.524850	-31.269817
00103	16217262	-0.239774	9.827018	0.307439				-0.003353	-0.000514	0.001573				87.880643	1.523742	-31.270193
00104	16217312	-0.223619	9.817819	0.316485				-0.004663	-0.002000	-0.002065				87.879299	1.524314	-31.270786
00105	16217362	-0.208090	9.816677	0.326876				0.000006	0.002646	0.000772				87.881546	1.523470	-31.270267
00106	16217412	-0.222724	9.823053	0.316334				-0.008678	0.001780	0.000981				87.879081	1.523210	-31.269748
00107	16217462	-0.221048	9.823225	0.322427				-0.003563	-0.001233	0.000376				87.880279	1.522440	-31.270333
00108	16217512	-0.226073	9.817882	0.326042				-0.003517	-0.002789	-0.003324				87.879239	1.523360	-31.271164
00109	16217562	-0.237991	9.823145	0.329221				-0.003695	0.000123	0.001763				87.880421	1.522204	-31.271403
00110	16217612	-0.230321	9.807704	0.305993				-0.005988	0.001632	-0.000919				87.878725	1.522485	-31.270950
00111	16217662	-0.220167	9.806052	0.313225				0.000781	0.002892	0.004395				87.881195	1.520609	-31.270351
00112	16217712	-0.227611	9.807032	0.336378				-0.002795	-0.000025	0.001150				87.880387	1.520280	-31.270341
00113	16217762	-0.236967	9.816677	0.318725				-0.005496	0.001154	-0.002108				87.881058	1.520244	-31.270352
00114	16217812	-0.250420	9.810715	0.309728				-0.005342	0.001187	-0.003453				87.879552	1.521248	-31.270052
00115	16217862	-0.249985	9.812896	0.322792				-0.002430	-0.000440	-0.001097				87.881068	1.520900	-31.270458
00116	16217912	-0.246624	9.826142	0.327810				-0.003027	0.000230	-0.000420				87.880196	1.521022	-31.270394
00117	16217962	-0.242814	9.806341	0.322577				-0.005165	0.000770	-0.001857				87.880970	1.520915	-31.270468
00118	16218012	-0.251052	9.838037	0.337470				-0.004657	-0.000861	0.001699				87.879630	1.520422	-31.270690
00119	16218062	-0.255306	9.822885	0.316590				-0.002655	0.001561	-0.000569				87.881101	1.519944	-31.270566
00120	16218112	-0.255593	9.820748	0.331774				-0.004420	0.001760	0.000972				87.879846	1.519684	-31.270049
00121	16218162	-0.239934	9.797367	0.322724				-0.002965	-0.001333	-0.005592				87.881229	1.520622	-31.270768
00122	16218212	-0.243743	9.782695	0.332221				-0.006015	0.000307	0.000328				87.879492	1.520529	-31.270671
00123	16218262	-0.220529	9.806890	0.335879				-0.003304	-0.002460	-0.001943				87.880758	1.520407	-31.271688
00124	16218312	-0.230072	9.798841	0.326787				-0.003245	0.002071	-0.000472				87.879851	1.520565	-31.271102
00125	16218362	-0.229572	9.816590	0.329883				-0.003919	0.000218	0.001925				87.880970	1.519370	-31.271287
00126	16218412	-0.238974	9.803480	0.327032				-0.001051	0.004625	-0.001136				87.880708	1.519747	-31.269971
00127	16218462	-0.220150	9.801090	0.327670				-0.001818	-0.000885	-0.002254				87.882410	1.519726	-31.270526
00128	16218512	-0.219721	9.805129	0.327740				-0.005493	0.002024	-0.002523				87.880861	1.520470	-31.269981
00129	16218562	-0.231395	9.809477	0.313143				-0.005580	-0.001407	-0.002281				87.881469	1.520458	-31.270672
00130	16218612	-0.240522	9.823069	0.316063				-0.001507	0.002880	0.000236				87.881049	1.520417	-31.269842
00131	16218662	-0.236259	9.809210	0.310898				0.000186	-0.000934	0.001971				87.883324	1.519193	-31.270372
00132	16218712	-0.207406	9.792252	0.341981				-0.000980	-0.002739	0.001159				87.883014	1.518832	-31.271136
00133	16218762	-0.236438	9.827868	0.331938				-0.006609	0.000811	-0.001752				87.883395	1.518692	-31.271233
00134	16218812	-0.235589	9.804855	0.317514				-0.005008	-0.000197	-0.001956				87.881957	1.519249	-31.271309
00135	16218862	-0.239087	9.813676	0.326853				-0.002968	0.001265	-0.001920				87.883333	1.519160	-31.271220
00136	16218912	-0.236999	9.826012	0.312965				-0.005150	-0.002591	0.000310				87.881840	1.519043	-31.271960
00137	16218962	-0.244264	9.812162	0.313166				-0.003327	-0.000652	-0.002478				87.883105	1.519093	-31.272442
00138	16219012	-0.244312	9.815824	0.322131				-0.005395	0.000126	0.000037				87.881561	1.519083	-31.272404
00139	16219062	-0.249399	9.819221	0.328054				-0.001976	0.000183	-0.001290				87.883222	1.518809	-31.272659
00140	16219112	-0.240877	9.808436	0.326614				-0.004620	-0.001122	0.000573				87.881894	1.518635	-31.272977
00141	16219162	-0.221245	9.805978	0.302093				-0.005766	0.000435	-0.002307				87.882494	1.518646	-31.273143
00142	16219212	-0.235964	9.826824	0.323475				-0.004825	0.001129	-0.003523				87.881113	1.519666	-31.272849
00143	16219262	-0.239116	9.801328	0.312515				-0.004217	0.000112	-0.001700				87.882142	1.519505	-31.273142
00144	16219312	-0.236085	9.815052	0.332600				-0.005772	0.002797	-0.002163				87.880516	1.520154	-31.272372
00145	16219362	-0.239543	9.804608	0.345813				-0.003866	0.001544	0.000776				87.881643	1.519295	-31.272197
00146	16219412	-0.235137	9.816698	0.303115				-0.004883	0.005370	0.000319				87.880294	1.519263	-31.270664
00147	16219462	-0.226831	9.804917	0.320286				-0.002053	0.000662	-0.002119				87.881942	1.519226	-31.270770
00148	16219512	-0.218840	9.784607	0.320854				-0.008049	0.002086	0.001366				87.879659	1.518855	-31.270162
00149	16219562	-0.209017	9.827068	0.329106				-0.004674	0.001460	-0.001498				87.880552	1.518646	-31.270035
00150	16219612	-0.217070	9.792235	0.319803				-0.004728	0.001396	0.000040				87.879206	1.518647	-31.269633
00151	16219662	-0.213751	9.808950	0.330613				-0.005867	-0.001107	0.002046				87.879763	1.517408	-31.270203
00152	16219712	-0.213841	9.806582	0.315205				-0.003126	0.001524	0.002346				87.878873	1.516752	-31.269739
00153	16219762	-0.198560	9.795514	0.321698				-0.006635	-0.000350	-0.000158				87.879206	1.516138	-31.270109
00154	16219812	-0.247232	9.818245	0.316416				-0.006647	0.000937	-0.003904				87.877307	1.517267	-31.269876
00155	16219862	-0.226427	9.789255	0.320581				-0.002199	0.003283	-0.002976				87.878931	1.517501	-31.269229
00156	16219912	-0.225129	9.800636	0.322234				-0.006063	-0.003386	-0.002558				87.877154	1.518198	-31.270217
00157	16219962	-0.232104	9.814152	0.316318				-0.004337	0.003275	0.000297				87.878191	1.517501	-31.269589
00158	16220012	-0.249682	9.811419	0.310810				-0.002050	0.001802	-0.000293				87.877613	1.517603	-31.269079
00159	16220062	-0.242967	9.808607	0.313935				-0.002877	0.003955	0.002191				87.879060	1.516364	-31.268221
00160	16220112	-0.261679	9.846432	0.323068				-0.002509	0.003113	-0.002401				87.878357	1.517085	-31.267353
00161	16220162	-0.249985	9.807673	0.322672				-0.005389	0.000829	-0.003434				87.879074	1.517425	-31.267421
00162	16220212	-0.244143	9.798992	0.320962				-0.004745	0.002950	-0.001211				87.877730	1.517801	-31.266584
00163	16220262	-0.255332	9.827842	0.318081				-0.004510	0.000727	0.001443				87.878685	1.516750	-31.266630
00164	16220312	-0.234472	9.812362	0.323439				-0.003189	-0.001741	0.000492				87.877757	1.516590	-31.267124
00165	16220362	-0.245325	9.819267	0.328516				-0.003195	-0.001515	0.000653				87.879054	1.515735	-31.267802
00166	16220412	-0.235972	9.817745	0.327078				-0.004885	0.000398	0.001211				87.877663	1.515397	-31.267675
00167	16220462	-0.225801	9.820374	0.318592				-0.001340	-0.001425	-0.000922				87.879498	1.514991	-31.268369
00168	16220512	-0.222483	9.805251	0.317661				-0.004544	-0.000444	-0.000555				87.878199	1.515150	-31.268501
00169	16220562	-0.234738	9.803915	0.301873				-0.003030	0.001299	0.000250				87.879564	1.514433	-31.268385
00170	16220612	-0.236068	9.809060	0.336219				-0.005191	-0.002366	-0.001786				87.878060	1.514919	-31.269084
00171	16220662	-0.232233	9.799077	0.325663				-0.005894	0.000665	-0.000257				87.878631	1.514350	-31.269160
00172	16220712	-0.224150	9.818245	0.319626				-0.006245	0.000621	-0.002505				87.876846	1.515074	-31.269007
00173	16220762	-0.242880	9.822677	0.309259				-0.001349	-0.001163	-0.000020				87.878680	1.514415	-31.269609
00174	16220812	-0.237685	9.799349	0.318539				-0.007530	0.002832	-0.000436				87.876537	1.514571	-31.268797
00175	16220862	-0.226682	9.794401	0.325556				-0.002354	0.000212	-0.000817				87.878114	1.514159	-31.269035
00176	16220912	-0.224656	9.802991	0.339004				-0.003903	0.002968	0.001354				87.877023	1.513804	-31.268171
00177	16220962	-0.250634	9.817902	0.336453				-0.002638	-0.000027	-0.002839				87.878498	1.513965	-31.268492
00178	16221012	-0.243570	9.812444	0.325992				-0.005008	-0.000968	-0.000272				87.877049	1.514033	-31.268773
00179	16221062	-0.258554	9.809250	0.321437				-0.003497	0.000901	-0.001060				87.878306	1.513696	-31.268812
00180	16221112	-0.243862	9.819157	0.321363				-0.003321	0.000452	-0.000327				87.877349	1.513791	-31.268683
00181	16221162	-0.250360	9.816575	0.314423				-0.004040	0.001254	0.003592				87.878425	1.512128	-31.268549
00182	16221212	-0.254700	9.824422	0.325235				-0.002967	-0.001778	-0.001784				87.877561	1.512619	-31.269078
00183	16221262	-0.243615	9.817966	0.322275				-0.003918	0.001152	-0.001283				87.878709	1.512353	-31.269050
00184	16221312	-0.241530	9.800351	0.312060				-0.006229	0.003110	-0.002651				87.876955	1.513146	-31.268194
00185	16221362	-0.231932	9.809850	0.319341				-0.001327	0.000802	-0.004342				87.878803	1.513741	-31.268274
00186	16221412	-0.244757	9.806267	0.341680				-0.000931	-0.000153	0.000657				87.878542	1.513550	-31.268313
00187	16221462	-0.246319	9.833683	0.300028				-0.001592	0.003712	0.000104				87.880339	1.512909	-31.267535
00188	16221512	-0.235518	9.804804	0.320360				-0.002009	0.000575	0.001782				87.879767	1.512404	-31.267356
00189	16221562	-0.232095	9.826503	0.331810				-0.002131	0.004646	-0.000183				87.881428	1.511855	-31.266297
00190	16221612	-0.217189	9.810220	0.322708				-0.005661	0.003344	-0.003646				87.879832	1.512935	-31.265381
00191	16221662	-0.234061	9.803216	0.332554				-0.003356	0.006619	-0.002417				87.881169	1.513050	-31.263779
00192	16221712	-0.224076	9.792433	0.332268				-0.001930	0.000055	0.000113				87.880622	1.513017	-31.263767
00193	16221762	-0.229582	9.816390	0.312270				-0.005455	0.001699	-0.004104				87.881304	1.513559	-31.263614
00194	16221812	-0.228744	9.814296	0.310165				-0.001878	-0.000785	-0.002361				87.880749	1.514225	-31.263856
00195	16221862	-0.228185	9.804484	0.316752				-0.004444	0.000562	0.000444				87.881725	1.513453	-31.263939
00196	16221912	-0.239774	9.827995	0.305116				-0.007246	0.001001	0.000932				87.879659	1.513198	-31.263642
00197	16221962	-0.228597	9.814074	0.340485				-0.005013	0.000494	0.002948				87.880477	1.511710	-31.263758
00198	16222012	-0.254266	9.823532	0.337315				-0.007544	0.000282	-0.000769				87.878325	1.511933	-31.263692
00199	16222062	-0.251748	9.825817	0.313997				-0.004564	0.003470	-0.000149				87.879271	1.511359	-31.262973
00200	16222112	-0.224993	9.789638	0.327956				-0.004456	-0.000120	-0.000879				87.878002	1.511610	-31.263021
00201	16222162	-0.239670	9.803848	0.317199				-0.003449	0.003422	-0.001693				87.879248	1.511477	-31.262326
00202	16222212	-0.231847	9.809559	0.323024				-0.004675	0.000654	-0.000834				87.877916	1.511725	-31.262146
00203	16222262	-0.238982	9.814574	0.314622				-0.002582	0.002602	0.001381				87.879439	1.510705	-31.261664
00204	16222312	-0.249791	9.814703	0.328419				-0.006896	0.000067	0.000512				87.877463	1.510556	-31.261639
00205	16222362	-0.260295	9.813542	0.318553				-0.004334	-0.001156	-0.003032				87.878449	1.510763	-31.262286
00206	16222412	-0.237162	9.809518	0.336623				-0.002737	-0.000997	-0.000694				87.877664	1.510950	-31.262581
00207	16222462	-0.233475	9.819309	0.335478				-0.003813	0.002997	0.001193				87.878832	1.509993	-31.261999
00208	16222512	-0.226257	9.819226	0.315494				-0.003354	0.002547	-0.002213				87.877894	1.510653	-31.261299
00209	16222562	-0.239916	9.812119	0.335094				-0.007556	0.000372	-0.003430				87.877955	1.510981	-31.261486
00210	16222612	-0.232050	9.810620	0.315118				-0.004593	0.000232	0.000538				87.876647	1.510830	-31.261415
00211	16222662	-0.229276	9.807187	0.340421				-0.001855	0.000739	0.001045				87.878372	1.509888	-31.261473
00212	16222712	-0.228013	9.809483	0.315281				-0.004808	-0.000254	-0.001198				87.876994	1.510226	-31.261560
00213	16222762	-0.231888	9.807854	0.325496				-0.007983	0.004087	-0.000877				87.876985	1.509872	-31.260688
00214	16222812	-0.233740	9.813732	0.311797				-0.006998	0.000061	-0.000673				87.874976	1.510065	-31.260678
00215	16222862	-0.231149	9.807738	0.318632				-0.003786	-0.000273	-0.002453				87.876101	1.510106	-31.261053
00216	16222912	-0.241390	9.816434	0.331234				-0.005872	-0.000554	0.003751				87.874407	1.509025	-31.261168
00217	16222962	-0.239558	9.821638	0.302218				-0.005744	0.001021	-0.001346				87.875016	1.508772	-31.261183
00218	16223012	-0.243510	9.807736	0.339717				0.000643	0.002319	-0.006299				87.875212	1.510598	-31.260586
00219	16223062	-0.248656	9.826410	0.324199				-0.002132	-0.001158	-0.006148				87.876843	1.511700	-31.261235
00220	16223112	-0.243966	9.804243	0.319078				-0.007420	0.000181	-0.002726				87.874718	1.512482	-31.261209
00221	16223162	-0.237640	9.818797	0.334957				-0.002398	-0.001174	0.002641				87.876267	1.511062	-31.261806
00222	16223212	-0.266136	9.835939	0.322902				-0.004352	0.000197	-0.004975				87.875007	1.512485	-31.261799
00223	16223262	-0.250810	9.816590	0.328306				-0.004184	0.002342	-0.001086				87.876096	1.512169	-31.261409
00224	16223312	-0.272153	9.816483	0.318383				-0.003701	0.003386	-0.000855				87.875061	1.512454	-31.260444
00225	16223362	-0.239923	9.800365	0.328052				-0.003809	0.000568	-0.001226				87.876203	1.512158	-31.260591
00226	16223412	-0.257950	9.845119	0.333666				-0.002804	0.005236	-0.004440				87.875439	1.513484	-31.259144
00227	16223462	-0.228625	9.808549	0.298729				-0.003146	0.002977	-0.000352				87.876803	1.512968	-31.258560
00228	16223512	-0.258233	9.810580	0.312302				-0.003351	-0.002784	-0.000219				87.875828	1.513002	-31.259362
00229	16223562	-0.237311	9.799833	0.318439				-0.003069	-0.000876	-0.004316				87.877176	1.513573	-31.259945
00230	16223612	-0.231684	9.803580	0.310455				-0.001691	0.001380	-0.001964				87.876693	1.514150	-31.259569
00231	16223662	-0.198120	9.776088	0.320637				-0.004193	-0.000571	-0.001495				87.877730	1.513922	-31.260026
00232	16223712	-0.241923	9.817375	0.315579				-0.002801	-0.001029	-0.001619				87.876924	1.514377	-31.260330
00233	16223762	-0.223601	9.818710	0.320768				-0.003950	0.002186	-0.000707				87.878033	1.513943	-31.260015
00234	16223812	-0.230956	9.796308	0.321108				-0.006190	0.000012	-0.000227				87.876262	1.514009	-31.260020
00235	16223862	-0.215210	9.813280	0.325773				-0.004165	-0.000145	0.000695				87.877316	1.513161	-31.260314
00236	16223912	-0.222811	9.801325	0.325862				-0.005485	0.002491	0.003215				87.875776	1.512269	-31.259567
00237	16223962	-0.232873	9.807771	0.330523				-0.000691	-0.001799	-0.000255				87.877805	1.511671	-31.260409
00238	16224012	-0.245106	9.838263	0.327537				-0.002902	0.002397	-0.001761				87.876987	1.512200	-31.259741
00239	16224062	-0.226372	9.795296	0.313817				-0.002602	0.001045	-0.000106				87.878503	1.511589	-31.259729
00240	16224112	-0.232346	9.816420	0.308172				-0.005610	0.000829	-0.000486				87.876902	1.511738	-31.259492
00241	16224162	-0.240745	9.819783	0.314090				-0.000317	-0.002699	-0.001512				87.879026	1.511486	-31.260557
00242	16224212	-0.235509	9.822842	0.319388				-0.003411	0.000487	0.003104				87.878063	1.510606	-31.260384
00243	16224262	-0.254667	9.805716	0.307546				-0.004070	0.001498	-0.004972				87.879135	1.511390	-31.260288
00244	16224312	-0.263616	9.815318	0.324017				-0.001986	0.000502	-0.002539				87.878569	1.512122	-31.260173
00245	16224362	-0.254771	9.832719	0.325410				-0.000372	-0.000401	0.001393				87.880713	1.511068	-31.260543
00246	16224412	-0.251448	9.832963	0.327440				-0.005274	0.000580	0.000867				87.879217	1.510826	-31.260371
00247	16224462	-0.235396	9.807003	0.347560				0.000408	-0.001266	-0.002982				87.881532	1.511013	-31.261013
00248	16224512	-0.236339	9.787333	0.330469				-0.006097	0.002148	-0.000472				87.879796	1.511170	-31.260406
00249	16224562	-0.250435	9.810314	0.320247				-0.004710	0.000720	-0.000613				87.880717	1.510707	-31.260503
00250	16224612	-0.243357	9.802239	0.311337				-0.003474	-0.000906	0.000116				87.879715	1.510666	-31.260756
00251	16224662	-0.251461	9.817882	0.305694				0.000897	0.002617	-0.002994				87.882231	1.510897	-31.260331
00252	16224712	-0.234701	9.822502	0.327094				-0.003413	-0.003982	-0.001573				87.881222	1.511304	-31.261491
00253	16224762	-0.234900	9.820616	0.326376				-0.003918	-0.003117	-0.000604				87.882292	1.510789	-31.262690
00254	16224812	-0.234988	9.813482	0.311735				-0.004328	0.002789	-0.002368				87.881068	1.511493	-31.261917
00255	16224862	-0.220365	9.808062	0.321727				-0.003652	0.002938	0.000035				87.882300	1.510867	-31.261343
00256	16224912	-0.223561	9.819690	0.318346				-0.002216	-0.000851	0.002712				87.881660	1.510081	-31.261558
00257	16224962	-0.237234	9.819188	0.324922				-0.002390	0.001405	-0.000586				87.883220	1.509606	-31.261438
00258	16225012	-0.226432	9.810359	0.337075				-0.002565	-0.001115	0.000717				87.882485	1.509391	-31.261755
00259	16225062	-0.242905	9.811772	0.324031				-0.003949	0.001893	-0.001699				87.883593	1.509244	-31.261494
00260	16225112	-0.217314	9.803651	0.317544				-0.002108	0.000236	-0.003733				87.882993	1.510317	-31.261468
00261	16225162	-0.239186	9.803562	0.321303				-0.001190	0.000747	-0.002034				87.884887	1.510250	-31.261530
00262	16225212	-0.225287	9.818229	0.319601				-0.004868	-0.000419	-0.001327				87.883484	1.510626	-31.261661
00263	16225262	-0.253159	9.821881	0.321689				-0.004407	0.001500	0.002021				87.884505	1.509413	-31.261491
00264	16225312	-0.238080	9.817217	0.328942				-0.002819	0.000177	0.003264				87.883684	1.508478	-31.261402
00265	16225362	-0.240719	9.828640	0.339969				-0.001830	0.002196	0.002147				87.885430	1.507237	-31.261035
00266	16225412	-0.251747	9.815964	0.322334				-0.003013	-0.000256	-0.001778				87.884554	1.507743	-31.261117
00267	16225462	-0.253026	9.837880	0.315439				-0.004847	0.000203	0.001501				87.885397	1.506665	-31.261354
00268	16225512	-0.231490	9.810148	0.331526				-0.001279	0.001489	-0.001520				87.885044	1.507115	-31.260943
00269	16225562	-0.236677	9.817046	0.325545				-0.000968	0.000239	0.001363				87.887036	1.506079	-31.261153
00270	16225612	-0.238750	9.820483	0.301122				-0.001249	-0.000354	-0.000627				87.886678	1.506254	-31.261263
00271	16225662	-0.247886	9.820893	0.328789				-0.003640	0.002216	-0.004038				87.887873	1.506784	-31.260932
00272	16225712	-0.236122	9.819885	0.311297				-0.006161	0.002652	-0.006374				87.886126	1.508632	-31.260245
00273	16225762	-0.213672	9.798886	0.321657				-0.002681	0.002299	-0.002825				87.887619	1.508812	-31.259881
00274	16225812	-0.242303	9.820077	0.340021				-0.004362	0.005351	0.002429				87.886414	1.508173	-31.258321
00275	16225862	-0.232976	9.814298	0.306243				-0.001939	0.002447	-0.000481				87.888117	1.507685	-31.257908
00276	16225912	-0.233074	9.804655	0.332515				-0.003003	0.001492	-0.000487				87.887263	1.507840	-31.257485
00277	16225962	-0.222920	9.803924	0.310894				-0.001223	-0.001199	-0.001404				87.889138	1.507573	-31.258143
00278	16226012	-0.217452	9.803355	0.321401				0.000273	0.001357	0.002138				87.889223	1.506977	-31.257728
00279	16226062	-0.212798	9.803590	0.325359				-0.005139	-0.000036	-0.002704				87.889992	1.507099	-31.258061
00280	16226112	-0.214733	9.802238	0.334640				-0.004221	0.000335	-0.003570				87.888784	1.508123	-31.258002
00281	16226162	-0.226337	9.789845	0.328702				-0.003219	0.002558	0.001282				87.890122	1.507125	-31.257542
00282	16226212	-0.229581	9.801628	0.315666				-0.000212	0.000343	-0.000915				87.890071	1.507390	-31.257458
00283	16226262	-0.263662	9.819982	0.313256				-0.001571	-0.002529	-0.004102				87.891831	1.507887	-31.258492
00284	16226312	-0.227805	9.795245	0.315508				-0.001461	-0.003748	0.000378				87.891387	1.507741	-31.259563
00285	16226362	-0.231292	9.805326	0.305208				-0.002851	0.000552	-0.002768				87.892817	1.507885	-31.259715
00286	16226412	-0.241436	9.798442	0.312961				-0.004032	-0.000694	-0.001842				87.891662	1.508407	-31.259932
00287	16226462	-0.234029	9.798763	0.313585				-0.002196	0.002380	-0.000645				87.893275	1.507961	-31.259536
00288	16226512	-0.242167	9.810589	0.324625				-0.001176	0.000424	-0.000752				87.892950	1.508181	-31.259423
00289	16226562	-0.243306	9.833633	0.321592				-0.003073	0.000846	0.001564				87.894313	1.507091	-31.259438
00290	16226612	-0.254904	9.795984	0.307116				-0.006588	-0.003967	-0.000598				87.892403	1.507222	-31.260579
00291	16226662	-0.244757	9.815475	0.313397				-0.002024	-0.001142	0.000494				87.894056	1.506412	-31.261187
00292	16226712	-0.229436	9.802073	0.317796				-0.001270	0.004332	-0.001602				87.893729	1.506919	-31.259960
00293	16226762	-0.265120	9.820446	0.328402				-0.003033	-0.000446	-0.000171				87.895081	1.506308	-31.260350
00294	16226812	-0.236670	9.809353	0.301410				-0.002852	0.003051	0.002120				87.894287	1.505735	-31.259453
00295	16226862	-0.234719	9.812442	0.318196				-0.003488	0.002715	-0.000831				87.895551	1.505345	-31.258952
00296	16226912	-0.222836	9.810129	0.323937				-0.006642	-0.000191	-0.001867				87.893651	1.505880	-31.259029
00297	16226962	-0.226620	9.815006	0.312148				-0.002862	0.001073	0.000439				87.895081	1.505109	-31.258988
00298	16227012	-0.240706	9.825158	0.334616				-0.006008	0.001439	-0.000060				87.893383	1.505143	-31.258579
00299	16227062	-0.257909	9.816154	0.289072				-0.000582	0.001958	-0.000037				87.895476	1.504521	-31.258291
00300	16227112	-0.230614	9.818650	0.318925				-0.005947	0.001141	-0.003141				87.893780	1.505433	-31.258000
00301	16227162	-0.240258	9.817628	0.315595				-0.002888	-0.001162	-0.000628				87.895168	1.504945	-31.258624
00302	16227212	-0.237511	9.807252	0.313715				-0.006297	0.000302	-0.000932				87.893361	1.505216	-31.258545
00303	16227262	-0.236488	9.801473	0.335807				0.000943	-0.001504	0.002345				87.895846	1.503869	-31.259235
00304	16227312	-0.230506	9.791299	0.323703				-0.004742	-0.001390	-0.002360				87.894477	1.504532	-31.259651
00305	16227362	-0.248217	9.816418	0.326813				-0.001197	-0.001131	-0.002909				87.896382	1.504701	-31.260300
00306	16227412	-0.229975	9.795436	0.317193				-0.001791	-0.001428	-0.000277				87.895862	1.504764	-31.260712
00307	16227462	-0.245185	9.805588	0.323524				-0.002681	-0.000607	-0.001365				87.897331	1.504499	-31.261159
00308	16227512	-0.236349	9.810764	0.318168				-0.000968	-0.000027	0.000172				87.897068	1.504449	-31.261175
00309	16227562	-0.239673	9.813152	0.329679				-0.003399	0.000737	-0.001898				87.898301	1.504343	-31.261230
00310	16227612	-0.240245	9.819077	0.329235				-0.003191	0.002789	0.003438				87.897417	1.503386	-31.260400
00311	16227662	-0.248203	9.801481	0.325926				-0.001504	-0.001524	-0.001117				87.899202	1.503040	-31.261127
00312	16227712	-0.246405	9.833017	0.312679				-0.000999	0.001038	-0.001419				87.898922	1.503457	-31.260839
00313	16227762	-0.231030	9.815173	0.328769				-0.005028	0.000484	-0.002409				87.899760	1.503498	-31.261002
00314	16227812	-0.237507	9.807777	0.326319				-0.003166	-0.001451	0.000749				87.898830	1.503265	-31.261407
00315	16227862	-0.246807	9.812691	0.307362				-0.006539	-0.000189	0.000250				87.899195	1.502542	-31.261736
00316	16227912	-0.227930	9.777006	0.313648				-0.004853	-0.000200	-0.004470				87.897794	1.503818	-31.261837
00317	16227962	-0.212444	9.800685	0.329246				-0.000197	-0.001108	0.000677				87.899974	1.502960	-31.262425
00318	16228012	-0.223241	9.790487	0.304972				-0.005412	-0.000595	-0.003189				87.898406	1.503866	-31.262625
00319	16228062	-0.222875	9.807646	0.300051				-0.008215	0.004142	-0.001934				87.898329	1.503808	-31.261725
00320	16228112	-0.228281	9.819390	0.303260				-0.002769	0.002173	-0.000963				87.897552	1.504104	-31.261112
00321	16228162	-0.223691	9.805361	0.325089				-0.004044	0.003155	-0.000636				87.898668	1.503671	-31.260502
00322	16228212	-0.231215	9.816986	0.318670				-0.005087	-0.000715	-0.001871				87.897204	1.504198	-31.260727
00323	16228262	-0.218194	9.805860	0.312174				-0.004730	0.001166	-0.002664				87.898087	1.504316	-31.260717
00324	16228312	-0.221622	9.806271	0.329143				-0.003289	-0.000713	-0.001878				87.897151	1.504846	-31.260948
00325	16228362	-0.219778	9.811029	0.329557				-0.000913	0.000235	-0.001365				87.899119	1.504586	-31.261156
00326	16228412	-0.240845	9.795187	0.309171				-0.004756	0.002170	0.000262				87.897765	1.504531	-31.260533
00327	16228462	-0.233424	9.804338	0.321926				-0.000393	0.002216	0.000152				87.899914	1.503861	-31.260166
00328	16228512	-0.248139	9.822659	0.321542				-0.000245	-0.002156	-0.005902				87.899822	1.505529	-31.260844
00329	16228562	-0.242903	9.825630	0.302386				-0.003402	0.001771	-0.003466				87.901113	1.505884	-31.260645
00330	16228612	-0.236994	9.811330	0.311353				-0.007841	-0.000300	0.003236				87.898882	1.504956	-31.260705
00331	16228662	-0.256212	9.819625	0.312046				-0.002436	0.000790	-0.000781				87.900416	1.504532	-31.260791
00332	16228712	-0.244105	9.815103	0.338059				-0.000328	0.001527	-0.006455				87.900320	1.506394	-31.260419
00333	16228762	-0.219593	9.805565	0.314577				-0.003676	0.002512	-0.000961				87.901527	1.506047	-31.259993
00334	16228812	-0.231086	9.784763	0.316031				-0.003228	0.003491	-0.001952				87.900630	1.506643	-31.259019
00335	16228862	-0.242763	9.807410	0.314880				-0.004300	0.002757	-0.002529				87.901644	1.506741	-31.258526
00336	16228912	-0.222050	9.799793	0.333523				-0.007287	0.001122	-0.001566				87.899564	1.507203	-31.258226
00337	16228962	-0.235547	9.837491	0.323803				0.000305	-0.002979	-0.001289				87.901873	1.506879	-31.259360
00338	16229012	-0.241940	9.823433	0.337707				-0.006695	0.002652	-0.002264				87.899964	1.507556	-31.258617
00339	16229062	-0.257080	9.812752	0.341796				-0.004186	0.002342	-0.002338				87.901059	1.507595	-31.258264
00340	16229112	-0.245159	9.809837	0.309594				-0.004182	0.001273	-0.001736				87.899865	1.508105	-31.257913
00341	16229162	-0.237733	9.834258	0.300719				-0.003381	-0.001877	0.000428				87.901123	1.507311	-31.258731
00342	16229212	-0.231916	9.817151	0.322741				-0.001813	-0.000557	0.000878				87.900584	1.507052	-31.258872
00343	16229262	-0.245828	9.814660	0.303596				-0.000834	0.001016	0.001270				87.902597	1.506041	-31.258850
00344	16229312	-0.228411	9.796254	0.326899				-0.006492	0.001269	-0.001535				87.900748	1.506492	-31.258500
00345	16229362	-0.240598	9.815792	0.311575				-0.005364	0.000661	-0.006994				87.901461	1.507854	-31.258666
00346	16229412	-0.227091	9.807466	0.323733				-0.004512	-0.002546	-0.000823				87.900148	1.508064	-31.259403
00347	16229462	-0.232500	9.807789	0.313905				-0.004430	0.003116	0.000104				87.901135	1.507409	-31.258793
00348	16229512	-0.240091	9.813927	0.325572				-0.002652	0.002427	-0.003880				87.900390	1.508544	-31.258138
00349	16229562	-0.238855	9.796764	0.316122				-0.005262	0.002899	-0.002715				87.901150	1.508707	-31.257617
00350	16229612	-0.244615	9.811583	0.320147				-0.005465	-0.001147	-0.005142				87.899570	1.510167	-31.257996
00351	16229662	-0.239153	9.816378	0.336527				-0.006974	0.002719	0.000333				87.899851	1.509444	-31.257499
00352	16229712	-0.227615	9.821100	0.331645				-0.005154	-0.000719	-0.003733				87.898378	1.510504	-31.257743
00353	16229762	-0.232783	9.793773	0.346231				-0.004118	0.003345	-0.001176				87.899474	1.510219	-31.257098
00354	16229812	-0.228117	9.800806	0.308834				-0.004132	-0.001641	-0.004063				87.898273	1.511363	-31.257610
00355	16229862	-0.244058	9.822318	0.315805				-0.001520	0.000552	0.003106				87.900075	1.509831	-31.257668
00356	16229912	-0.255125	9.822452	0.314567				0.000814	-0.005080	-0.002958				87.900260	1.510623	-31.259153
00357	16229962	-0.241848	9.804295	0.302165				-0.003278	0.000290	0.001540				87.901569	1.509535	-31.259308
00358	16230012	-0.231849	9.810690	0.311194				-0.001684	0.003351	-0.002012				87.901105	1.510145	-31.258365
00359	16230062	-0.236290	9.826458	0.315696				-0.000171	0.003378	-0.001049				87.903325	1.509825	-31.257696
00360	16230112	-0.220611	9.804539	0.287971				-0.005268	0.003390	0.001077				87.901838	1.509552	-31.256718
00361	16230162	-0.222807	9.823732	0.318659				-0.005580	-0.001380	-0.004401				87.902476	1.510145	-31.257436
00362	16230212	-0.223687	9.804941	0.321014				-0.004385	-0.000445	-0.000516				87.901223	1.510289	-31.257572
00363	16230262	-0.215802	9.789913	0.333046				-0.009026	0.001277	-0.002579				87.900893	1.510389	-31.257518
00364	16230312	-0.231153	9.813545	0.310881				0.001270	-0.004166	-0.000932				87.901228	1.510611	-31.258722
00365	16230362	-0.238591	9.798591	0.305706				-0.002908	0.001489	-0.002788				87.902660	1.510774	-31.258617
00366	16230412	-0.234287	9.803665	0.334230				-0.004692	0.001200	-0.001084				87.901332	1.511098	-31.258286
00367	16230462	-0.230703	9.821163	0.340142				-0.000242	0.001343	-0.000742				87.903503	1.510672	-31.258177
00368	16230512	-0.225200	9.821386	0.299013				-0.004570	0.000263	-0.000928				87.902201	1.510944	-31.258113
00369	16230562	-0.227463	9.819593	0.321963				-0.002667	0.000038	0.000349				87.903695	1.510185	-31.258389
00370	16230612	-0.247331	9.829064	0.306942				-0.002748	-0.001748	-0.003092				87.902885	1.511051	-31.258916
00371	16230662	-0.242107	9.784698	0.326842				-0.002222	0.003045	-0.003325				87.904523	1.511384	-31.258363
00372	16230712	-0.245599	9.809097	0.326318				0.000124	0.001566	-0.004718				87.904571	1.512751	-31.257960
00373	16230762	-0.237082	9.794465	0.297574				-0.002602	0.001646	-0.004809				87.906073	1.513491	-31.257827
00374	16230812	-0.254767	9.802408	0.306259				-0.000774	0.001077	0.000384				87.905861	1.513392	-31.257514
00375	16230862	-0.226497	9.826548	0.302110				-0.003773	0.003575	-0.000336				87.907052	1.512875	-31.256801
00376	16230912	-0.220073	9.828966	0.319907				-0.006121	0.002311	0.002905				87.905318	1.512069	-31.256108
00377	16230962	-0.226879	9.799002	0.319096				-0.003218	-0.001616	0.001432				87.906642	1.510988	-31.256817
00378	16231012	-0.228276	9.804895	0.335649				-0.004063	-0.002378	0.000113				87.905456	1.510931	-31.257493
00379	16231062	-0.227122	9.817363	0.312514				-0.007206	0.000505	-0.002109				87.905633	1.510878	-31.257668
00380	16231112	-0.221397	9.790943	0.322732				-0.007124	-0.002918	-0.000010				87.903585	1.510855	-31.258507
00381	16231162	-0.233104	9.812111	0.325697				-0.006513	0.002072	-0.001011				87.903977	1.510511	-31.258212
00382	16231212	-0.221554	9.805483	0.318555				-0.002976	0.001651	0.000321				87.903144	1.510439	-31.257739
00383	16231262	-0.211719	9.808231	0.302404				-0.000282	-0.000503	-0.001936				87.905292	1.510328	-31.258183
00384	16231312	-0.237404	9.814172	0.311654				-0.001301	0.000188	-0.003530				87.904919	1.511340	-31.258170
00385	16231362	-0.225354	9.813674	0.306973				-0.007173	0.002871	-0.000457				87.905125	1.510844	-31.257631
00386	16231412	-0.236064	9.818503	0.323834				-0.007344	-0.000013	-0.000825				87.903016	1.511077	-31.257647
00387	16231462	-0.225442	9.798307	0.334906				-0.003075	0.001611	-0.002848				87.904391	1.511258	-31.257501
00388	16231512	-0.236293	9.821950	0.315798				-0.003286	0.002483	-0.001048				87.903460	1.511581	-31.256799
00389	16231562	-0.254494	9.822617	0.319050				-0.006036	0.000571	0.003956				87.904009	1.509806	-31.256871
00390	16231612	-0.232787	9.806822	0.315037				-0.002910	0.002518	-0.001914				87.903188	1.510382	-31.256163
00391	16231662	-0.246024	9.809881	0.337098				-0.001168	-0.001106	-0.003187				87.905074	1.510625	-31.256795
00392	16231712	-0.248939	9.808881	0.322301				-0.002500	-0.000956	0.001790				87.904347	1.510101	-31.257048
00393	16231762	-0.231446	9.809938	0.329687				-0.002895	-0.003136	-0.001495				87.905760	1.509842	-31.258254
00394	16231812	-0.235279	9.804254	0.309740				-0.000868	0.001011	0.001440				87.905513	1.509436	-31.257949
00395	16231862	-0.241066	9.826103	0.319475				-0.004496	0.001337	-0.000022				87.906485	1.508806	-31.257868
00396	16231912	-0.236304	9.826052	0.326396				-0.006142	0.002825	0.001114				87.904742	1.508517	-31.257043
00397	16231962	-0.214468	9.796481	0.323335				-0.002550	0.001629	0.002120				87.906271	1.507273	-31.256818
00398	16232012	-0.248772	9.815415	0.314164				-0.005253	0.001801	-0.001589				87.904777	1.507749	-31.256313
00399	16232062	-0.227190	9.818671	0.289387				-0.003286	0.001517	0.001770				87.906088	1.506604	-31.256152
00400	16232112	-0.231971	9.798102	0.296221				-0.005119	0.000910	0.004115				87.904628	1.505434	-31.255849
00401	16232162	-0.213081	9.806761	0.304043				-0.008235	0.000975	0.001457				87.904544	1.504375	-31.255841
00402	16232212	-0.234301	9.802549	0.313867				-0.002928	0.003530	0.002165				87.903733	1.503791	-31.254808
00403	16232262	-0.227268	9.804762	0.330125				-0.003227	-0.001422	0.001978				87.905041	1.502553	-31.255482
00404	16232312	-0.208681	9.809402	0.320678				-0.000869	0.002210	0.002472				87.904818	1.501871	-31.254827
00405	16232362	-0.228629	9.818952	0.316407				-0.000978	-0.000778	-0.001649				87.906797	1.501683	-31.255336
00406	16232412	-0.239615	9.822721	0.324006				-0.004690	0.001331	0.000584				87.905463	1.501530	-31.254947
00407	16232462	-0.250583	9.816492	0.319819				-0.000232	0.004018	-0.003519				87.907680	1.501932	-31.254092
00408	16232512	-0.247157	9.837161	0.320224				-0.005647	0.001150	0.000298				87.906080	1.501860	-31.253764
00409	16232562	-0.245411	9.813947	0.319704				-0.004873	-0.000998	0.002211				87.906923	1.500566	-31.254279
00410	16232612	-0.239951	9.806689	0.318020				-0.003187	0.001159	-0.002468				87.906012	1.501285	-31.253967
00411	16232662	-0.239173	9.824733	0.317740				-0.003053	-0.000034	-0.001159				87.907365	1.500956	-31.254255
00412	16232712	-0.232562	9.818076	0.308103				-0.005007	0.000193	0.001157				87.905925	1.500626	-31.254183
00413	16232762	-0.232573	9.797647	0.309920				-0.007940	-0.005453	0.001071				87.905858	1.499606	-31.255997
00414	16232812	-0.247809	9.807132	0.313662				-0.002285	-0.001319	-0.003412				87.905196	1.500570	-31.256412
00415	16232862	-0.231235	9.816595	0.312871				-0.003462	-0.003310	-0.001365				87.906433	1.500272	-31.257665
00416	16232912	-0.232687	9.801733	0.322033				-0.002797	-0.000934	0.000761				87.905627	1.500043	-31.257926
00417	16232962	-0.231388	9.800172	0.316742				-0.004640	0.000819	0.002122				87.906542	1.498793	-31.257957
00418	16233012	-0.231138	9.806587	0.331762				-0.000714	-0.002936	-0.000057				87.906323	1.498781	-31.258798
00419	16233062	-0.238655	9.799457	0.326422				-0.005863	-0.005287	0.000842				87.906845	1.497828	-31.260584
00420	16233112	-0.236472	9.813684	0.328095				-0.005990	0.000888	0.001488				87.905134	1.497413	-31.260315
00421	16233162	-0.225610	9.800481	0.331849				-0.004289	-0.000311	-0.000228				87.906184	1.496822	-31.260685
00422	16233212	-0.221685	9.815976	0.314468				-0.000717	0.001107	-0.002151				87.905977	1.497450	-31.260387
00423	16233262	-0.223139	9.812089	0.319273				-0.000307	0.001240	-0.003181				87.908136	1.497722	-31.260323
00424	16233312	-0.225524	9.799004	0.320151				-0.005125	-0.000232	-0.000706				87.906661	1.497920	-31.260397
00425	16233362	-0.232911	9.811206	0.323016				-0.003883	0.001790	-0.002687				87.907820	1.498052	-31.260208
00426	16233412	-0.248373	9.833358	0.319652				-0.002289	0.002109	-0.003102				87.907187	1.498961	-31.259640
00427	16233462	-0.230260	9.824918	0.312500				-0.007477	-0.001792	0.000510				87.907274	1.498140	-31.260447
00428	16233512	-0.251236	9.823050	0.308989				-0.005072	0.001093	-0.000601				87.905827	1.498324	-31.260138
00429	16233562	-0.217527	9.806966	0.317881				-0.004843	-0.000032	-0.000995				87.906679	1.497952	-31.260440
00430	16233612	-0.234894	9.812820	0.339996				-0.004398	0.005079	-0.002798				87.905455	1.498807	-31.259012
00431	16233662	-0.246687	9.825230	0.341013				-0.004491	-0.000092	-0.001540				87.906441	1.498594	-31.259363
00432	16233712	-0.237389	9.805489	0.320839				-0.001962	0.001955	-0.002563				87.905894	1.499346	-31.258828
00433	16233762	-0.231476	9.816737	0.303843				-0.004271	-0.000825	0.002274				87.906912	1.498029	-31.259330
00434	16233812	-0.230773	9.819939	0.312155				-0.002872	-0.000873	-0.001611				87.906078	1.498480	-31.259598
00435	16233862	-0.241391	9.832851	0.327624				-0.005794	0.000958	0.002354				87.906675	1.497163	-31.259571
00436	16233912	-0.222840	9.815613	0.306208				-0.003879	0.000854	-0.001151				87.905567	1.497500	-31.259343
00437	16233962	-0.232533	9.813269	0.312167				-0.004006	-0.002312	-0.000975				87.906653	1.497105	-31.260271
00438	16234012	-0.240435	9.809557	0.331395				-0.003815	-0.002148	0.000858				87.905532	1.496835	-31.260871
00439	16234062	-0.226565	9.812465	0.307830				-0.003963	-0.000533	-0.000072				87.906643	1.496193	-31.261317
00440	16234112	-0.243739	9.807463	0.326079				-0.002316	0.000241	-0.000580				87.905981	1.496361	-31.261257
00441	16234162	-0.234861	9.799891	0.317164				-0.000608	0.001557	-0.003885				87.908079	1.496838	-31.261133
00442	16234212	-0.232836	9.814374	0.317550				-0.008056	0.001234	-0.001202				87.905767	1.497195	-31.260784
00443	16234262	-0.212519	9.805732	0.309872				-0.002325	0.001006	-0.004044				87.907368	1.497711	-31.260820
00444	16234312	-0.222058	9.813474	0.323451				-0.004575	-0.000811	-0.004916				87.906058	1.499108	-31.261111
00445	16234362	-0.222206	9.811962	0.328403				-0.004947	-0.003174	-0.002231				87.906862	1.499060	-31.262302
00446	16234412	-0.231748	9.820688	0.324130				-0.003009	-0.002520	-0.000723				87.905979	1.499240	-31.263029
00447	16234462	-0.226046	9.782029	0.328469				-0.004244	-0.001800	-0.000653				87.907006	1.498759	-31.263834
00448	16234512	-0.228239	9.786597	0.322688				-0.002605	0.000074	0.000540				87.906265	1.498605	-31.263807
00449	16234562	-0.225200	9.810884	0.319147				-0.005611	-0.001212	-0.000840				87.906893	1.498178	-31.264434
00450	16234612	-0.242120	9.821178	0.299208				-0.000283	0.000597	-0.001031				87.906823	1.498480	-31.264274
00451	16234662	-0.225787	9.805967	0.314079				-0.003210	0.000031	0.000412				87.908159	1.497706	-31.264544
00452	16234712	-0.240902	9.795388	0.311278				-0.003894	0.001343	-0.000826				87.907049	1.497959	-31.264161
00453	16234762	-0.234161	9.817818	0.324224				-0.006090	0.000749	-0.002558				87.907569	1.498045	-31.264249
00454	16234812	-0.228344	9.798268	0.319612				-0.005485	0.002928	-0.001650				87.906021	1.498545	-31.263430
00455	16234862	-0.229147	9.786758	0.311454				-0.002464	-0.000573	-0.001007				87.907571	1.498178	-31.263878
00456	16234912	-0.223864	9.796825	0.324356				-0.002372	-0.002382	-0.001045				87.906874	1.498450	-31.264576
00457	16234962	-0.237209	9.810071	0.331818				-0.002337	0.002690	-0.001564				87.908462	1.498270	-31.264104
00458	16235012	-0.245472	9.824642	0.303111				-0.002283	0.001180	-0.000158				87.907805	1.498328	-31.263760
00459	16235062	-0.238062	9.815719	0.302937				-0.007081	0.002802	-0.002062				87.908059	1.498295	-31.263257
00460	16235112	-0.240958	9.817945	0.309887				-0.003847	0.001826	-0.002107				87.906980	1.498915	-31.262761
00461	16235162	-0.219387	9.812320	0.307524				-0.003363	0.001901	0.000165				87.908277	1.498233	-31.262493
00462	16235212	-0.243706	9.822241	0.306492				-0.003736	-0.001154	-0.005041				87.907185	1.499662	-31.262869
00463	16235262	-0.229035	9.830700	0.323388				-0.002582	0.000292	-0.002733				87.908717	1.499800	-31.263094
00464	16235312	-0.236136	9.807741	0.314136				-0.003735	-0.000890	-0.001835				87.907647	1.500316	-31.263376
00465	16235362	-0.226192	9.817416	0.309715				-0.002689	-0.000354	-0.001996				87.909114	1.500228	-31.263757
00466	16235412	-0.233290	9.815517	0.319765				-0.001542	-0.001007	0.001048				87.908673	1.499916	-31.264040
00467	16235462	-0.228714	9.804625	0.322247				-0.003317	-0.002718	0.000625				87.909958	1.499053	-31.265070
00468	16235512	-0.217401	9.801231	0.320578				-0.005391	-0.006378	-0.000994				87.908371	1.499271	-31.266910
00469	16235562	-0.239957	9.807843	0.319980				-0.006583	0.000191	-0.001824				87.908726	1.499140	-31.267140
00470	16235612	-0.230924	9.800338	0.336985				0.000394	-0.000653	-0.001427				87.908832	1.499540	-31.267344
00471	16235662	-0.220841	9.800791	0.331292				-0.002074	-0.000598	-0.000876				87.910492	1.499131	-31.267807
00472	16235712	-0.245579	9.813801	0.329035				-0.005186	0.002640	-0.003128				87.909035	1.500058	-31.267081
00473	16235762	-0.229385	9.801288	0.322902				-0.001976	0.002473	-0.001085				87.910734	1.499735	-31.266692
00474	16235812	-0.224207	9.804905	0.323253				-0.005087	-0.000557	-0.001126				87.909267	1.500048	-31.266863
00475	16235862	-0.226790	9.801059	0.324103				-0.003272	-0.000037	0.000060				87.910577	1.499379	-31.267183
00476	16235912	-0.230843	9.823161	0.318429				-0.003092	0.000126	-0.002314				87.909693	1.500044	-31.267174
00477	16235962	-0.246124	9.805379	0.320953				-0.005898	-0.001248	-0.001476				87.910261	1.499793	-31.267833
00478	16236012	-0.237751	9.818825	0.301434				-0.004084	0.002377	0.000848				87.909108	1.499575	-31.267142
00479	16236062	-0.235054	9.808878	0.318129				0.000861	0.001612	-0.005265				87.911618	1.500447	-31.266987
00480	16236112	-0.237692	9.813673	0.328490				-0.002785	-0.000519	-0.002539				87.910814	1.501170	-31.267163
00481	16236162	-0.232669	9.796468	0.325149				-0.004692	-0.000776	0.000285				87.911712	1.500425	-31.267670
00482	16236212	-0.237523	9.805279	0.334788				-0.004414	-0.000375	0.001150				87.910438	1.500091	-31.267762
00483	16236262	-0.235053	9.812226	0.316500				-0.001546	0.000631	-0.005452				87.912271	1.501004	-31.267927
00484	16236312	-0.232999	9.803157	0.306003				-0.004239	-0.000890	0.001761				87.911055	1.500492	-31.268168
00485	16236362	-0.237752	9.813205	0.312459				-0.003274	0.001094	0.000326				87.912364	1.499755	-31.268118
00486	16236412	-0.228510	9.821596	0.329671				-0.004129	0.002629	-0.001591				87.911194	1.500239	-31.267374
00487	16236462	-0.229707	9.812922	0.321754				-0.003792	-0.002822	0.000530				87.912370	1.499400	-31.268481
00488	16236512	-0.246215	9.819665	0.301547				-0.004706	0.000513	-0.002656				87.911031	1.500167	-31.268365
00489	16236562	-0.223649	9.810236	0.332015				-0.004229	0.000584	-0.002886				87.912065	1.500344	-31.268475
00490	16236612	-0.245281	9.804196	0.305555				-0.000745	-0.001027	-0.001012				87.911840	1.500620	-31.268785
00491	16236662	-0.254844	9.815266	0.318486				-0.002749	0.003520	-0.004317				87.913323	1.501241	-31.268090
00492	16236712	-0.225749	9.797670	0.314286				-0.001150	0.001483	-0.002953				87.912997	1.502101	-31.267696
00493	16236762	-0.218941	9.804095	0.318058				-0.008933	0.002573	-0.001645				87.912711	1.501943	-31.267249
00494	16236812	-0.236112	9.812735	0.313422				-0.003417	0.001574	-0.000060				87.911747	1.501978	-31.266796
00495	16236862	-0.260892	9.828962	0.318019				-0.000883	-0.001737	-0.001299				87.913728	1.501677	-31.267575
00496	16236912	-0.244882	9.807621	0.314904				-0.003403	-0.001974	0.000694				87.912729	1.501455	-31.268128
00497	16236962	-0.238049	9.809582	0.316296				-0.003603	0.000148	-0.002120				87.913969	1.501407	-31.268392
00498	16237012	-0.248930	9.825402	0.312338				-0.006288	0.001104	-0.001783				87.912166	1.501929	-31.268093
00499	16237062	-0.239788	9.820851	0.306872				-0.000634	0.000329	-0.002573				87.914251	1.502019	-31.268309
00500	16237112	-0.245867	9.795208	0.318894				-0.001555	0.001448	0.001318				87.913814	1.501658	-31.267882
00501	16237162	-0.224383	9.804266	0.318198				-0.004611	0.001717	-0.000538				87.914758	1.501173	-31.267686
00502	16237212	-0.243342	9.814980	0.315561				-0.001673	0.001928	-0.001278				87.914297	1.501559	-31.267156
00503	16237262	-0.222824	9.809575	0.329182				-0.003012	0.000841	-0.001154				87.915685	1.501241	-31.267214
00504	16237312	-0.256788	9.831073	0.338382				-0.002896	0.004297	-0.002224				87.914883	1.501924	-31.266006
00505	16237362	-0.230962	9.798428	0.337614				-0.002170	0.002496	-0.002751				87.916536	1.502081	-31.265607
00506	16237412	-0.250799	9.826890	0.306243				-0.001240	0.001547	-0.001184				87.916186	1.502435	-31.265173
00507	16237462	-0.227853	9.807224	0.323951				-0.004680	-0.001295	-0.002896				87.917095	1.502601	-31.265879
00508	16237512	-0.246054	9.830567	0.302366				-0.003682	-0.001144	0.000381				87.916025	1.502480	-31.266200
00509	16237562	-0.235677	9.818127	0.348991				-0.006782	0.001549	-0.000401				87.916359	1.501954	-31.266049
00510	16237612	-0.245028	9.826734	0.321574				-0.003215	-0.000609	0.003044				87.915432	1.501077	-31.266190
00511	16237662	-0.234255	9.804073	0.322675				-0.000045	-0.002953	-0.001533				87.917638	1.500829	-31.267346
00512	16237712	-0.241892	9.814643	0.308143				-0.003292	-0.000755	-0.003472				87.916684	1.501813	-31.267597
00513	16237762	-0.233190	9.815351	0.315788				-0.003454	0.002345	-0.004385				87.917969	1.502437	-31.267259
00514	16237812	-0.229909	9.795943	0.330678				-0.003889	0.001048	-0.002787				87.916867	1.503247	-31.266989
00515	16237862	-0.231504	9.791812	0.304736				-0.003136	-0.003426	0.000270				87.918197	1.502479	-31.268282
00516	16237912	-0.230523	9.808277	0.314584				-0.004491	-0.001992	0.001432				87.916902	1.502046	-31.268845
00517	16237962	-0.249099	9.839926	0.308855				-0.000300	0.000180	-0.000972				87.919062	1.501670	-31.269068
00518	16238012	-0.241319	9.810040	0.314614				-0.002049	0.003026	-0.000022				87.918490	1.501707	-31.268194
00519	16238062	-0.245764	9.810190	0.331962				-0.006382	0.000907	-0.002109				87.918929	1.501666	-31.268232
00520	16238112	-0.242740	9.819951	0.332629				-0.004375	-0.002868	-0.000914				87.917653	1.501894	-31.269069
00521	16238162	-0.229265	9.799527	0.344780				-0.003506	0.002151	-0.002268				87.918904	1.501907	-31.268754
00522	16238212	-0.247126	9.820825	0.333549				-0.003103	-0.000621	-0.003374				87.918001	1.502864	-31.268960
00523	16238262	-0.221912	9.800433	0.338254				-0.002997	-0.003077	-0.002972				87.919394	1.503035	-31.270185
00524	16238312	-0.251913	9.800926	0.312304				0.003853	0.000577	0.000692				87.920501	1.502841	-31.270012
00525	16238362	-0.240904	9.827850	0.313908				-0.005649	0.000015	-0.001632				87.921132	1.502654	-31.270292
00526	16238412	-0.233320	9.812979	0.315012				-0.000365	0.000142	-0.001936				87.921027	1.503209	-31.270274
00527	16238462	-0.235738	9.821417	0.304317				-0.005645	-0.001341	-0.001865				87.921659	1.503074	-31.270938
00528	16238512	-0.235758	9.834107	0.327511				-0.001954	-0.001336	-0.000656				87.921084	1.503247	-31.271328
00529	16238562	-0.231492	9.834785	0.317829				-0.007174	0.000700	-0.000659				87.921302	1.502790	-31.271420
00530	16238612	-0.243972	9.824192	0.317880				-0.007164	0.000212	-0.002942				87.919252	1.503634	-31.271391
00531	16238662	-0.233391	9.813750	0.326790				-0.002882	-0.000421	-0.002543				87.920648	1.503704	-31.271816
00532	16238712	-0.237268	9.806958	0.317912				-0.001547	-0.002044	-0.000436				87.920194	1.503810	-31.272407
00533	16238762	-0.224771	9.815105	0.322484				-0.007998	-0.001475	0.000544				87.920152	1.502973	-31.273090
00534	16238812	-0.225291	9.795882	0.322857				0.000621	0.002389	-0.001412				87.920341	1.503401	-31.272418
00535	16238862	-0.220950	9.791204	0.321782				-0.006718	0.003457	-0.001837				87.920696	1.503312	-31.271735
00536	16238912	-0.246469	9.812134	0.297677				-0.005256	-0.001140	0.000735				87.919188	1.503090	-31.272058
00537	16238962	-0.218831	9.800262	0.305390				-0.004415	0.000420	-0.003079				87.920194	1.503322	-31.272245
00538	16239012	-0.248704	9.807207	0.307984				-0.004130	-0.001772	-0.003600				87.918990	1.504334	-31.272790
00539	16239062	-0.220528	9.794046	0.306998				0.000441	0.000096	0.000820				87.921368	1.503442	-31.273059
00540	16239112	-0.229978	9.816042	0.303675				-0.006297	-0.000903	-0.002246				87.919560	1.504075	-31.273346
00541	16239162	-0.238084	9.817846	0.303601				-0.005810	-0.000119	-0.002916				87.920152	1.504257	-31.273701
00542	16239212	-0.231658	9.816468	0.321286				-0.003056	0.001263	0.001060				87.919281	1.503966	-31.273327
00543	16239262	-0.223494	9.812704	0.310110				-0.000689	0.001331	-0.000998				87.921350	1.503609	-31.273258
00544	16239312	-0.239350	9.804355	0.331600				-0.002355	0.002171	-0.003299				87.920694	1.504576	-31.272677
00545	16239362	-0.222750	9.824159	0.321882				-0.001368	0.001615	-0.000831				87.922571	1.504175	-31.272516
00546	16239412	-0.231313	9.819839	0.318194				-0.004675	0.000516	-0.002691				87.921239	1.504954	-31.272398
00547	16239462	-0.230926	9.787973	0.338786				-0.004610	-0.001087	0.002369				87.922143	1.503607	-31.272924
00548	16239512	-0.235933	9.800426	0.311662				-0.001958	-0.003242	0.000457				87.921547	1.503441	-31.273838
00549	16239562	-0.235366	9.817549	0.325185				-0.004043	-0.002351	-0.003161				87.922648	1.503664	-31.274844
00550	16239612	-0.247836	9.828310	0.309101				-0.000700	0.001296	-0.003399				87.922451	1.504650	-31.274507
00551	16239662	-0.232159	9.809377	0.318874				-0.003470	-0.002242	-0.003061				87.923683	1.504845	-31.275457
00552	16239712	-0.236212	9.798754	0.312207				-0.004185	0.001399	-0.000731				87.922485	1.505070	-31.275058
00553	16239762	-0.235888	9.823443	0.310999				-0.004314	-0.002006	-0.004594				87.923517	1.505712	-31.275980
00554	16239812	-0.227964	9.821990	0.320088				-0.003468	0.004195	-0.001612				87.922556	1.506217	-31.274797
00555	16239862	-0.231428	9.805976	0.309546				-0.002886	-0.002256	0.000881				87.923959	1.505288	-31.275698
00556	16239912	-0.223900	9.810150	0.321711				-0.002223	-0.000555	0.002749				87.923316	1.504495	-31.275830
00557	16239962	-0.233502	9.813868	0.303528				-0.001711	0.000094	-0.001679				87.925076	1.504315	-31.276116
00558	16240012	-0.244806	9.806167	0.316833				-0.004294	0.003000	0.001138				87.923877	1.504023	-31.275242
00559	16240062	-0.263434	9.821868	0.314722				-0.002814	0.000332	-0.003145				87.925308	1.504269	-31.275451
00560	16240112	-0.241380	9.813502	0.305339				-0.003579	0.001158	-0.003721				87.924297	1.505348	-31.275161
00561	16240162	-0.231761	9.800000	0.327222				0.000415	0.001716	-0.000420				87.926689	1.504831	-31.274958
00562	16240212	-0.236309	9.812466	0.315252				-0.001393	0.000236	0.000088				87.926298	1.504810	-31.274892
00563	16240262	-0.236236	9.809090	0.334721				-0.003481	0.001489	-0.000605				87.927567	1.504342	-31.274749
00564	16240312	-0.235986	9.805311	0.318008				-0.005615	0.000032	0.001317				87.925954	1.503966	-31.274724
00565	16240362	-0.235742	9.814925	0.310362				-0.005973	-0.001180	-0.003760				87.926477	1.504371	-31.275396
00566	16240412	-0.227310	9.804669	0.320818				-0.003735	-0.003949	-0.001761				87.925374	1.504835	-31.276541
00567	16240462	-0.234190	9.806365	0.312488				-0.005307	-0.003009	-0.002710				87.926080	1.504926	-31.277721
00568	16240512	-0.238298	9.822323	0.304845				-0.003923	-0.000873	0.000631				87.924934	1.504734	-31.277958
00569	16240562	-0.212392	9.810868	0.330512				-0.002823	0.003958	-0.000212				87.926430	1.504175	-31.277158
00570	16240612	-0.225110	9.802767	0.322567				-0.007350	0.000967	-0.001401				87.924333	1.504589	-31.276891
00571	16240662	-0.234873	9.810352	0.314664				-0.005540	-0.001326	0.000858				87.924981	1.503669	-31.277522
00572	16240712	-0.235270	9.810392	0.327798				-0.006568	0.002594	-0.002645				87.923107	1.504452	-31.276800
00573	16240762	-0.249409	9.828034	0.310282				-0.000951	0.003537	-0.000792				87.925146	1.504065	-31.276090
00574	16240812	-0.241040	9.807285	0.308793				0.000176	0.000359	0.000793				87.925195	1.503840	-31.275978
00575	16240862	-0.241874	9.808994	0.320732				-0.007753	-0.001468	-0.002665				87.925203	1.503928	-31.276706
00576	16240912	-0.225260	9.821445	0.311054				-0.006009	0.001249	-0.001562				87.923492	1.504388	-31.276364
00577	16240962	-0.254278	9.830865	0.322892				-0.005769	-0.001237	-0.000932				87.924096	1.503989	-31.277012
00578	16241012	-0.250941	9.817227	0.302212				-0.002631	-0.001378	-0.002577				87.923329	1.504712	-31.277435
00579	16241062	-0.214897	9.817997	0.327622				-0.003334	0.001582	-0.003172				87.924652	1.504981	-31.277278
00580	16241112	-0.233059	9.804605	0.319867				-0.003303	0.000486	-0.002700				87.923705	1.505761	-31.277165
00581	16241162	-0.230764	9.807263	0.334249				-0.004827	0.000200	-0.002921				87.924565	1.505938	-31.277412
00582	16241212	-0.240636	9.820548	0.326806				-0.000680	0.001826	-0.003079				87.924397	1.506843	-31.276927
00583	16241262	-0.258380	9.808579	0.334186				-0.006526	0.002471	-0.001393				87.924763	1.506604	-31.276510
00584	16241312	-0.236794	9.803544	0.324059				-0.006930	0.003241	-0.000814				87.922796	1.506869	-31.275589
00585	16241362	-0.249328	9.815114	0.317611				-0.006041	0.002085	-0.002998				87.923352	1.507094	-31.275287
00586	16241412	-0.237774	9.798536	0.325587				-0.001533	0.000253	-0.004212				87.922915	1.508304	-31.275259
00587	16241462	-0.239499	9.802155	0.335462				-0.003217	-0.002066	-0.002295				87.924224	1.508288	-31.276158
00588	16241512	-0.241107	9.825913	0.316314				-0.004046	-0.001210	-0.001484				87.923058	1.508697	-31.276527
00589	16241562	-0.232218	9.829203	0.325471				-0.008757	-0.000294	-0.005673				87.922817	1.509664	-31.276961
00590	16241612	-0.234215	9.797699	0.305486				-0.003354	0.002526	0.000103				87.921877	1.509662	-31.276234
00591	16241662	-0.233604	9.810051	0.319870				-0.004505	0.003342	-0.002805				87.922873	1.509838	-31.275602
00592	16241712	-0.224706	9.794771	0.318183				-0.003317	-0.000642	0.000729				87.921917	1.509620	-31.275778
00593	16241762	-0.238006	9.810619	0.325875				-0.005654	0.001195	-0.000442				87.922539	1.509107	-31.275725
00594	16241812	-0.226346	9.830927	0.326158				-0.006140	-0.000560	0.000960				87.920774	1.508826	-31.275875
00595	16241862	-0.218943	9.808885	0.315289				-0.004566	0.002209	-0.001051				87.921747	1.508491	-31.275577
00596	16241912	-0.246371	9.822214	0.320969				-0.007118	0.001708	-0.002807				87.919721	1.509314	-31.275121
00597	16241962	-0.251969	9.831328	0.325637				-0.000688	0.002115	-0.003050				87.921787	1.509551	-31.274823
00598	16242012	-0.227753	9.821433	0.309962				-0.001488	0.002971	-0.004164				87.921379	1.510774	-31.274012
00599	16242062	-0.241113	9.811311	0.309291				0.000530	-0.002131	-0.002496				87.923768	1.510808	-31.274935
00600	16242112	-0.229138	9.825338	0.316490				-0.003793	0.001290	-0.000031				87.922684	1.510828	-31.274560
00601	16242162	-0.245009	9.791403	0.320445				-0.004176	0.001992	-0.002877				87.923748	1.511018	-31.274320
00602	16242212	-0.237935	9.822925	0.312681				-0.003711	-0.001688	-0.001425				87.922669	1.511407	-31.274820
00603	16242262	-0.246964	9.815885	0.331418				-0.003438	0.002137	-0.001917				87.923977	1.511323	-31.274519
00604	16242312	-0.236397	9.801999	0.301674				-0.003335	0.002012	0.000069				87.923042	1.511322	-31.273943
00605	16242362	-0.235097	9.828958	0.308090				-0.001923	0.001970	-0.000064				87.924734	1.510704	-31.273687
00606	16242412	-0.260592	9.814786	0.329872				-0.004081	0.001923	-0.002558				87.923574	1.511456	-31.273162
00607	16242462	-0.239507	9.810604	0.310319				-0.003323	0.005268	-0.005044				87.924924	1.512300	-31.271991
00608	16242512	-0.237491	9.811845	0.323964				-0.003897	0.001118	-0.004423				87.923818	1.513579	-31.271720
00609	16242562	-0.245281	9.802456	0.326504				-0.007152	0.000234	0.002606				87.924010	1.512170	-31.271905
00610	16242612	-0.226725	9.808393	0.341640				-0.001508	0.001813	-0.001446				87.923588	1.512602	-31.271402
00611	16242662	-0.232304	9.823382	0.318114				-0.001031	0.000043	-0.000428				87.925554	1.512070	-31.271677
00612	16242712	-0.224576	9.818822	0.328019				-0.003533	-0.000030	0.000382				87.924556	1.511961	-31.271689
00613	16242762	-0.227527	9.812504	0.319871				-0.005127	0.000980	0.001895				87.925343	1.510770	-31.271654
00614	16242812	-0.239488	9.819715	0.334885				-0.001385	-0.001294	-0.001942				87.924933	1.511313	-31.272043
00615	16242862	-0.244752	9.812439	0.325623				-0.001001	-0.001150	-0.001106				87.926882	1.510960	-31.272670
00616	16242912	-0.251147	9.814568	0.321184				-0.005764	-0.000229	0.001575				87.925238	1.510508	-31.272720
00617	16242962	-0.221234	9.806049	0.313109				-0.004272	-0.000819	0.000727				87.926248	1.509630	-31.273258
00618	16243012	-0.237544	9.833544	0.301219				-0.005077	0.004368	-0.000232				87.924821	1.509743	-31.272007
00619	16243062	-0.238389	9.808794	0.321167				-0.005016	-0.000067	-0.004621				87.925636	1.510403	-31.272348
00620	16243112	-0.252412	9.811152	0.326484				-0.005278	0.003555	-0.002578				87.924160	1.511181	-31.271358
00621	16243162	-0.248100	9.824824	0.319912				-0.003828	-0.000417	0.003108				87.925305	1.509626	-31.271737
00622	16243212	-0.256348	9.821283	0.327221				-0.003705	-0.000685	-0.002220				87.924240	1.510254	-31.271957
00623	16243262	-0.234869	9.815851	0.328099				-0.007734	-0.000207	-0.004166				87.924261	1.510787	-31.272311
00624	16243312	-0.226199	9.799355	0.312369				-0.001583	-0.004136	-0.000900				87.923758	1.510999	-31.273497
00625	16243362	-0.238405	9.811771	0.327760				-0.002111	0.000377	-0.003374				87.925420	1.511311	-31.273698
00626	16243412	-0.239707	9.814157	0.325703				-0.004484	0.000925	0.002027				87.924137	1.510737	-31.273412
00627	16243462	-0.221392	9.818086	0.316617				-0.002474	-0.002851	0.003022				87.925658	1.509187	-31.274489
00628	16243512	-0.230906	9.810846	0.317043				-0.005921	0.001509	-0.000276				87.923988	1.509283	-31.274062
00629	16243562	-0.233812	9.820524	0.333343				-0.005451	-0.000330	-0.003242				87.924667	1.509552	-31.274487
00630	16243612	-0.244379	9.809240	0.302421				-0.003469	0.000001	-0.001256				87.923681	1.509911	-31.274507
00631	16243662	-0.225978	9.813426	0.323171				-0.003099	0.001397	-0.001091				87.925052	1.509579	-31.274401
00632	16243712	-0.223108	9.794191	0.311583				-0.000058	0.001318	-0.003216				87.925045	1.510517	-31.274056
00633	16243762	-0.229182	9.804416	0.319901				-0.005529	0.001258	-0.002401				87.925722	1.510555	-31.274004
00634	16243812	-0.236280	9.799371	0.318377				-0.000811	-0.001084	-0.000819				87.925479	1.510776	-31.274327
00635	16243862	-0.237442	9.795758	0.320812				-0.000013	-0.000002	-0.002453				87.927743	1.510827	-31.274631
00636	16243912	-0.219845	9.805634	0.310228				-0.004072	0.003836	-0.002070				87.926601	1.511461	-31.273552
00637	16243962	-0.231255	9.804930	0.315626				-0.006158	0.001024	0.001064				87.927088	1.510499	-31.273544
00638	16244012	-0.237761	9.816621	0.337158				-0.003842	0.000640	-0.000575				87.925991	1.510671	-31.273366
00639	16244062	-0.221903	9.806331	0.340057				-0.007267	-0.000352	0.000644				87.926159	1.509825	-31.273770
00640	16244112	-0.224024	9.797618	0.303492				-0.003805	-0.002754	-0.000820				87.925043	1.510030	-31.274568
00641	16244162	-0.231669	9.800395	0.301660				-0.004511	-0.000761	-0.001931				87.926006	1.509919	-31.275092
00642	16244212	-0.243980	9.813628	0.310478				-0.009675	-0.003500	-0.000552				87.923202	1.510038	-31.276103
00643	16244262	-0.235580	9.798073	0.325977				-0.009003	0.000744	-0.000854				87.922887	1.509637	-31.276152
00644	16244312	-0.243938	9.819832	0.323839				-0.005923	0.001475	-0.002137				87.921197	1.510262	-31.275753
00645	16244362	-0.224537	9.798403	0.313833				-0.003438	-0.002128	0.000015				87.922460	1.509576	-31.276650
00646	16244412	-0.239056	9.803138	0.302690				-0.005649	-0.002138	-0.001327				87.920823	1.509935	-31.277271
00647	16244462	-0.242211	9.820597	0.305806				-0.003258	0.002298	-0.002396				87.922150	1.509986	-31.276940
00648	16244512	-0.253160	9.817132	0.322347				-0.002439	-0.002404	-0.001176				87.921430	1.510298	-31.277635
00649	16244562	-0.243774	9.827950	0.336104				-0.006636	0.001048	0.001134				87.921808	1.509330	-31.277631
00650	16244612	-0.245868	9.806158	0.316858				-0.004874	0.002788	-0.000788				87.920426	1.509583	-31.276837
00651	16244662	-0.207331	9.788914	0.327926				-0.005265	-0.001127	-0.000841				87.921162	1.509153	-31.277443
00652	16244712	-0.237966	9.825708	0.316511				-0.002586	0.002408	-0.001276				87.920438	1.509545	-31.276763
00653	16244762	-0.229770	9.815151	0.315577				-0.004878	0.000980	-0.000795				87.921282	1.509117	-31.276778
00654	16244812	-0.227051	9.795856	0.307454				-0.006370	0.000468	-0.000732				87.919465	1.509332	-31.276655
00655	16244862	-0.229315	9.817690	0.320765				-0.001901	0.000125	-0.000135				87.921189	1.508720	-31.276932
00656	16244912	-0.234535	9.808883	0.333992				-0.003389	0.001752	0.000648				87.920231	1.508554	-31.276420
00657	16244962	-0.219826	9.802684	0.316921				-0.004078	-0.000106	-0.000197				87.921298	1.507946	-31.276743
00658	16245012	-0.241663	9.830485	0.311691				-0.001400	0.000161	-0.002638				87.920890	1.508699	-31.276727
00659	16245062	-0.220945	9.816936	0.315028				-0.004172	0.001059	-0.000675				87.921981	1.508250	-31.276719
00660	16245112	-0.244779	9.815335	0.321760				-0.000314	-0.000525	-0.001234				87.921891	1.508597	-31.276885
00661	16245162	-0.249509	9.823168	0.318328				-0.006677	-0.001097	-0.003371				87.922214	1.508889	-31.277525
00662	16245212	-0.235735	9.811633	0.323703				-0.002609	-0.002284	-0.003901				87.921450	1.509983	-31.278217
00663	16245262	-0.237438	9.797245	0.316768				-0.002980	-0.000282	-0.001194				87.922835	1.509660	-31.278590
00664	16245312	-0.235281	9.813812	0.321085				-0.003066	0.001301	-0.002113				87.921966	1.510279	-31.278240
00665	16245362	-0.219017	9.787149	0.324850				-0.004365	-0.003413	-0.002687				87.922943	1.510354	-31.279551
00666	16245412	-0.243248	9.808162	0.311934				-0.000037	0.003941	-0.002237				87.922957	1.511034	-31.278443
00667	16245462	-0.231337	9.805364	0.318390				-0.002412	-0.003312	-0.001949				87.924483	1.510893	-31.279693
00668	16245512	-0.225127	9.790668	0.307340				-0.003041	0.000425	-0.002444				87.923613	1.511599	-31.279597
00669	16245562	-0.239171	9.819814	0.313147				-0.003546	0.001289	-0.003109				87.924872	1.511840	-31.279547
00670	16245612	-0.240209	9.807329	0.322316				-0.005912	0.003187	-0.002609				87.923211	1.512621	-31.278663
00671	16245662	-0.250986	9.831148	0.322591				-0.003602	0.003230	-0.001591				87.924433	1.512453	-31.278046
00672	16245712	-0.256005	9.814398	0.327944				-0.006435	0.001498	-0.001140				87.922606	1.512797	-31.277631
00673	16245762	-0.227520	9.815678	0.329683				-0.006157	-0.000341	-0.003468				87.923097	1.513125	-31.278047
00674	16245812	-0.254407	9.820828	0.327587				-0.002994	0.004311	-0.000015				87.922266	1.513173	-31.276813
00675	16245862	-0.219855	9.798733	0.326921				-0.001577	0.003105	-0.000060				87.924095	1.512566	-31.276192
00676	16245912	-0.222250	9.812026	0.308612				-0.006950	0.001784	0.001327				87.922120	1.512205	-31.275668
00677	16245962	-0.213294	9.804808	0.322962				-0.006922	-0.001584	-0.002892				87.922385	1.512357	-31.276427
00678	16246012	-0.238077	9.803705	0.328185				-0.001120	0.002593	-0.003429				87.922098	1.513367	-31.275725
00679	16246062	-0.228623	9.803946	0.304716				-0.003501	-0.000003	-0.000451				87.923335	1.512836	-31.276020
00680	16246112	-0.224328	9.808101	0.300242				-0.007536	0.002901	-0.002289				87.921200	1.513519	-31.275219
00681	16246162	-0.223197	9.821784	0.306179				-0.004838	0.003722	-0.003543				87.922095	1.513912	-31.274468
00682	16246212	-0.211591	9.798710	0.319546				-0.004692	0.001848	-0.005061				87.920771	1.515383	-31.273993
00683	16246262	-0.219478	9.805015	0.335160				-0.003549	0.000191	-0.002409				87.921997	1.515411	-31.274254
00684	16246312	-0.218437	9.790016	0.308541				-0.002749	0.001536	0.000578				87.921228	1.515264	-31.273807
00685	16246362	-0.232749	9.811776	0.316735				-0.003170	0.001886	0.000612				87.922573	1.514444	-31.273515
00686	16246412	-0.250166	9.818422	0.333316				-0.002261	0.000181	-0.002220				87.921936	1.515080	-31.273497
00687	16246462	-0.222830	9.802223	0.328865				-0.001457	0.002036	-0.004043				87.923775	1.515603	-31.273230
00688	16246512	-0.251165	9.827531	0.310606				-0.003157	0.002035	-0.003229				87.922891	1.516550	-31.272679
00689	16246562	-0.223571	9.801058	0.311690				-0.004862	0.000562	0.001124				87.923752	1.515572	-31.272797
00690	16246612	-0.254914	9.821890	0.319961				-0.002778	0.000232	-0.003567				87.922962	1.516596	-31.272770
00691	16246662	-0.218419	9.813828	0.318548				-0.000504	-0.002118	-0.004774				87.925046	1.517277	-31.273703
00692	16246712	-0.216675	9.794909	0.315961				-0.003280	-0.000063	-0.002287				87.924109	1.517932	-31.273747
00693	16246762	-0.216449	9.802574	0.311240				-0.006252	-0.001244	-0.000325				87.924556	1.517350	-31.274414
00694	16246812	-0.244556	9.829160	0.318257				-0.003919	0.002931	-0.003162				87.923439	1.518283	-31.273601
00695	16246862	-0.231574	9.810130	0.332137				-0.004990	0.000793	0.003659				87.924279	1.516587	-31.273612
00696	16246912	-0.231530	9.801894	0.327838				-0.006653	-0.000539	0.001027				87.922369	1.516286	-31.273756
00697	16246962	-0.234785	9.810557	0.332799				-0.002924	0.000950	-0.000963				87.923805	1.515913	-31.273783
00698	16247012	-0.232868	9.810957	0.323698				-0.001641	0.001842	-0.002566				87.923349	1.516667	-31.273280
00699	16247062	-0.214519	9.796938	0.324561				-0.004044	-0.000069	0.000317				87.924426	1.515915	-31.273572
00700	16247112	-0.229081	9.796985	0.324952				-0.005506	0.001878	0.001518				87.922871	1.515502	-31.273024
00701	16247162	-0.223608	9.798198	0.312333				-0.002627	0.001660	-0.001699				87.924384	1.515343	-31.272855
00702	16247212	-0.224783	9.816079	0.320879				0.001962	-0.001653	0.000098				87.924927	1.515297	-31.273325
00703	16247262	-0.225323	9.807842	0.300920				-0.004321	0.003607	-0.001748				87.925977	1.515176	-31.272592
00704	16247312	-0.226069	9.813177	0.308280				-0.003581	0.002652	-0.000536				87.924973	1.515357	-31.271835
00705	16247362	-0.218727	9.805651	0.325680				-0.001011	0.001267	-0.002605				87.926943	1.515453	-31.271828
00706	16247412	-0.242297	9.802780	0.323052				-0.003211	-0.000122	-0.000709				87.926017	1.515653	-31.271869
00707	16247462	-0.246860	9.830166	0.327772				-0.000934	0.001051	0.001249				87.928021	1.514657	-31.271824
00708	16247512	-0.242798	9.813308	0.317101				-0.006232	0.000245	0.000712				87.926241	1.514455	-31.271746
00709	16247562	-0.235353	9.801250	0.305234				-0.003378	-0.002238	-0.004219				87.927495	1.514983	-31.272708
00710	16247612	-0.247491	9.807063	0.302646				-0.002162	0.002025	-0.003494				87.926874	1.516001	-31.272161
00711	16247662	-0.210720	9.813571	0.325967				-0.005357	0.000872	-0.000829				87.927629	1.515591	-31.272220
00712	16247712	-0.235812	9.813110	0.335525				-0.006718	0.003434	-0.002607				87.925734	1.516373	-31.271271
00713	16247762	-0.230697	9.800221	0.313908				-0.004265	-0.000139	0.001055				87.926750	1.515412	-31.271593
00714	16247812	-0.241210	9.810551	0.312747				-0.005895	0.000205	-0.006572				87.925056	1.517295	-31.271600
00715	16247862	-0.238872	9.810575	0.297343				-0.002948	0.001822	-0.001150				87.926479	1.516983	-31.271371
00716	16247912	-0.236143	9.798472	0.315128				-0.004105	0.002228	0.001100				87.925326	1.516691	-31.270719
00717	16247962	-0.235274	9.816079	0.328448				-0.001954	-0.002237	-0.000145				87.927004	1.516046	-31.271654
00718	16248012	-0.231340	9.803851	0.323910				-0.001454	-0.000969	-0.001264				87.926590	1.516400	-31.271944
00719	16248062	-0.238569	9.817468	0.312182				-0.003166	-0.000510	-0.000649				87.927917	1.515919	-31.272393
00720	16248112	-0.233437	9.823812	0.319886				-0.002944	0.000626	-0.000324				87.927075	1.516018	-31.272220
00721	16248162	-0.225256	9.798114	0.316736				-0.004082	0.001123	-0.000191				87.928153	1.515420	-31.272195
00722	16248212	-0.224327	9.817671	0.310460				-0.004338	-0.002152	-0.003032				87.926896	1.516262	-31.272847
00723	16248262	-0.240031	9.800118	0.313180				-0.002610	-0.002021	-0.000690				87.928382	1.515780	-31.273718
00724	16248312	-0.241451	9.813519	0.320035				-0.001063	-0.000254	-0.001613				87.928078	1.516238	-31.273809
00725	16248362	-0.218014	9.816063	0.311905				-0.003302	-0.003193	0.001259				87.929359	1.515191	-31.274993
00726	16248412	-0.229121	9.825258	0.306894				-0.003362	0.001715	-0.001567				87.928399	1.515656	-31.274518
00727	16248462	-0.253325	9.799921	0.299361				-0.003142	-0.000384	-0.002029				87.929761	1.515571	-31.274944
00728	16248512	-0.247565	9.815448	0.313120				-0.001656	0.000517	0.000157				87.929279	1.515530	-31.274792
00729	16248562	-0.241737	9.806438	0.332897				-0.005807	-0.000273	-0.003819				87.929876	1.515961	-31.275199
00730	16248612	-0.246746	9.807844	0.345422				0.000630	0.001075	-0.000235				87.930067	1.516040	-31.274892
00731	16248662	-0.256769	9.837231	0.338629				-0.000801	0.001085	0.001186				87.932109	1.515053	-31.274854
00732	16248712	-0.231295	9.810859	0.331107				-0.001872	-0.002141	-0.002811				87.931554	1.515835	-31.275496
00733	16248762	-0.240549	9.812682	0.328483				-0.001074	0.000076	-0.002257				87.933489	1.515819	-31.275777
00734	16248812	-0.258829	9.826025	0.325745				-0.003497	0.000609	-0.004038				87.932487	1.516982	-31.275639
00735	16248862	-0.220482	9.816185	0.301887				-0.004253	-0.006031	-0.003342				87.933478	1.517219	-31.277688
00736	16248912	-0.232200	9.817306	0.311942				-0.002516	0.002179	-0.003467				87.932778	1.518234	-31.277105
00737	16248962	-0.241477	9.796505	0.331205				-0.005658	0.003588	-0.000041				87.933441	1.517615	-31.276357
00738	16249012	-0.231254	9.807586	0.312380				-0.001210	0.000568	0.001885				87.933102	1.517081	-31.276174
00739	16249062	-0.237266	9.813748	0.308141				-0.003768	0.002488	0.000237				87.934284	1.516383	-31.275731
00740	16249112	-0.213668	9.791739	0.308514				-0.004574	-0.001667	-0.000653				87.932950	1.516550	-31.276208
00741	16249162	-0.236780	9.790724	0.309341				-0.003287	0.003434	0.000363				87.934310	1.515828	-31.275511
00742	16249212	-0.231997	9.805548	0.305783				-0.007278	-0.001395	-0.002985				87.932214	1.516670	-31.275940
00743	16249262	-0.242771	9.824675	0.318275				-0.004149	0.003186	-0.002807				87.933288	1.516845	-31.275344
00744	16249312	-0.243304	9.835084	0.319614				-0.002626	0.004226	0.002486				87.932565	1.516176	-31.274106
00745	16249362	-0.222292	9.807424	0.314841				-0.006790	0.001623	0.000010				87.932898	1.515533	-31.273934
00746	16249412	-0.239809	9.819846	0.310996				-0.002325	-0.001924	-0.002807				87.932220	1.516316	-31.274511
00747	16249462	-0.246794	9.806657	0.314463				-0.004066	0.000506	-0.001698				87.933296	1.516144	-31.274684
00748	16249512	-0.242576	9.821168	0.299981				-0.003134	0.002462	-0.001530				87.932423	1.516606	-31.273996
00749	16249562	-0.250750	9.837409	0.301417				-0.001624	0.000024	-0.005749				87.934201	1.517590	-31.274334
00750	16249612	-0.247305	9.821337	0.300292				-0.003278	-0.002098	-0.000753				87.933247	1.517784	-31.274944
00751	16249662	-0.254662	9.818075	0.321144				-0.001434	0.002357	-0.004453				87.935115	1.518420	-31.274584
00752	16249712	-0.220088	9.821115	0.305913				-0.002799	0.003918	-0.004444				87.934343	1.519734	-31.273510
00753	16249762	-0.236515	9.798897	0.318235				-0.004145	-0.000340	-0.003403				87.935392	1.520046	-31.273909
00754	16249812	-0.250063	9.802951	0.305635				-0.005498	0.000221	-0.002114				87.933822	1.520655	-31.273867
00755	16249862	-0.245487	9.813723	0.318906				-0.001317	-0.000461	-0.003218				87.935678	1.520907	-31.274316
00756	16249912	-0.223361	9.810225	0.301443				-0.005781	0.002269	-0.000981				87.934033	1.521214	-31.273666
00757	16249962	-0.246686	9.820090	0.320616				-0.003542	0.001310	0.000615				87.935300	1.520389	-31.273581
00758	16250012	-0.244467	9.815736	0.312012				-0.003492	0.000925	-0.000315				87.934302	1.520490	-31.273314
00759	16250062	-0.223727	9.801179	0.318873				-0.003830	0.003108	-0.003450				87.935484	1.520851	-31.272756
00760	16250112	-0.245373	9.826303	0.318206				-0.001343	0.000634	-0.000703				87.935100	1.521058	-31.272582
00761	16250162	-0.235131	9.811698	0.335514				-0.005686	0.004174	-0.003345				87.935773	1.521398	-31.271712
00762	16250212	-0.242777	9.819976	0.330738				-0.007439	0.000814	-0.003032				87.933635	1.522275	-31.271502
00763	16250262	-0.222969	9.802087	0.337862				-0.006922	-0.002078	0.001405				87.933892	1.521188	-31.272347
00764	16250312	-0.211851	9.805698	0.327826				-0.001173	0.001416	0.000157				87.933565	1.521158	-31.271940
00765	16250362	-0.257328	9.817810	0.337001				-0.002602	-0.002334	-0.002904				87.935067	1.521307	-31.272926
00766	16250412	-0.240823	9.803958	0.324706				-0.003345	0.001314	0.001317				87.934121	1.520943	-31.272538
00767	16250462	-0.230689	9.804731	0.298555				-0.005125	0.002765	-0.001041				87.934911	1.520607	-31.272064
00768	16250512	-0.222456	9.790661	0.294410				-0.003891	-0.001126	-0.002157				87.933776	1.521212	-31.272398
00769	16250562	-0.240154	9.801695	0.287550				-0.003532	0.000822	-0.001954				87.935030	1.521121	-31.272481
00770	16250612	-0.218077	9.818851	0.284463				-0.007825	-0.000427	-0.005000				87.932778	1.522548	-31.272655
00771	16250662	-0.219781	9.815145	0.292940				-0.003339	0.000859	-0.000064				87.934103	1.521911	-31.272735
00772	16250712	-0.232705	9.822881	0.304052				-0.002891	0.004967	-0.002157				87.933303	1.522578	-31.271333
00773	16250762	-0.240290	9.814887	0.324228				-0.003837	0.001499	-0.001405				87.934478	1.522340	-31.271212
00774	16250812	-0.250809	9.809379	0.335081				-0.005046	-0.000017	-0.004327				87.933032	1.523579	-31.271262
00775	16250862	-0.268953	9.813385	0.337157				-0.007754	-0.001520	-0.004232				87.933045	1.524113	-31.272047
00776	16250912	-0.236574	9.812469	0.345736				-0.004452	0.002842	-0.001074				87.931803	1.524453	-31.271249
00777	16250962	-0.247869	9.818691	0.333665				-0.004932	0.003539	-0.004403				87.932659	1.525086	-31.270564
00778	16251012	-0.241289	9.811909	0.347487				-0.003721	0.001049	0.000582				87.931596	1.524929	-31.270259
00779	16251062	-0.255197	9.832547	0.351868				-0.004487	-0.000037	-0.000416				87.932585	1.524390	-31.270542
00780	16251112	-0.245575	9.836540	0.331100				-0.001064	-0.001076	-0.001872				87.932272	1.524915	-31.270868
00781	16251162	-0.242256	9.818092	0.330210				-0.003405	0.000984	-0.000864				87.933543	1.524509	-31.270894
00782	16251212	-0.234290	9.814655	0.313317				-0.001965	-0.001355	-0.003124				87.932966	1.525389	-31.271312
00783	16251262	-0.232870	9.821870	0.307806				-0.000258	0.002818	-0.000957				87.935163	1.525032	-31.270821
00784	16251312	-0.222597	9.814524	0.284607				-0.003465	-0.001082	0.000571				87.934165	1.524857	-31.271127
00785	16251362	-0.210955	9.815428	0.297450				-0.004121	-0.000168	-0.005553				87.935252	1.525789	-31.271512
00786	16251412	-0.224325	9.811236	0.281477				-0.003459	0.001565	-0.002334				87.934275	1.526471	-31.271089
00787	16251462	-0.236126	9.818462	0.279606				-0.004184	-0.000673	0.001117				87.935310	1.525483	-31.271542
00788	16251512	-0.234341	9.829379	0.296435				-0.005835	0.001752	-0.001783				87.933653	1.526012	-31.271058
00789	16251562	-0.241109	9.810678	0.304339				-0.004493	-0.000101	-0.002501				87.934622	1.526068	-31.271401
00790	16251612	-0.241550	9.818913	0.324020				-0.004858	-0.000822	-0.001800				87.933227	1.526576	-31.271653
00791	16251662	-0.251590	9.820363	0.329093				-0.004481	0.003650	-0.002290				87.934219	1.526608	-31.270927
00792	16251712	-0.235276	9.790121	0.334534				-0.004537	0.000320	-0.000766				87.932928	1.526829	-31.270845
00793	16251762	-0.239414	9.793490	0.359084				-0.006627	-0.002229	0.002690				87.933264	1.525379	-31.271743
00794	16251812	-0.259386	9.823932	0.353489				-0.003505	-0.000794	-0.000004				87.932261	1.525371	-31.271975
00795	16251862	-0.231143	9.793070	0.347173				-0.002483	0.001132	-0.002471				87.933820	1.525429	-31.271945
00796	16251912	-0.234317	9.792767	0.333541				-0.004706	0.001545	-0.001755				87.932483	1.525947	-31.271521
00797	16251962	-0.237614	9.802711	0.300707				-0.004976	-0.000076	-0.001475				87.933325	1.525710	-31.271830
00798	16252012	-0.245031	9.833443	0.286254				0.000284	-0.001115	0.000210				87.933394	1.525637	-31.272145
00799	16252062	-0.219817	9.797769	0.281456				-0.003904	0.000459	-0.002435				87.934529	1.525680	-31.272320
00800	16252112	-0.215777	9.803553	0.278539				-0.002340	-0.000354	-0.000009				87.933857	1.525681	-31.272422
00801	16252162	-0.227062	9.813589	0.296254				0.000142	0.000039	-0.003577				87.936144	1.526044	-31.272718
00802	16252212	-0.230475	9.816588	0.267415				-0.005607	0.000587	-0.001755				87.934544	1.526551	-31.272571
00803	16252262	-0.233024	9.827604	0.289679				-0.005014	-0.000753	-0.000226				87.935360	1.525950	-31.273078
00804	16252312	-0.233538	9.821321	0.297140				-0.005148	0.000307	-0.002111				87.933889	1.526559	-31.273011
00805	16252362	-0.230209	9.805642	0.316979				-0.003929	0.000131	-0.004075				87.934995	1.527056	-31.273317
00806	16252412	-0.230654	9.816660	0.325097				-0.002670	-0.001368	-0.004371				87.934216	1.528293	-31.273754
00807	16252462	-0.238428	9.831964	0.341424				-0.001527	0.001534	-0.001281				87.936076	1.528020	-31.273595
00808	16252512	-0.246829	9.817545	0.377350				-0.008401	0.002933	-0.001354				87.933689	1.528438	-31.272768
00809	16252562	-0.234949	9.808159	0.334032				-0.005840	0.004242	0.000058				87.934284	1.527802	-31.271815
00810	16252612	-0.234600	9.819157	0.359903				-0.003420	-0.000534	-0.000358				87.933302	1.527898	-31.271969
00811	16252662	-0.236529	9.821718	0.330394				-0.001641	0.002322	0.002315				87.935145	1.526598	-31.271591
00812	16252712	-0.239597	9.805447	0.337245				-0.005612	-0.000417	-0.003622				87.933533	1.527629	-31.271751
00813	16252762	-0.229776	9.817850	0.309661				0.000788	-0.000075	-0.001971				87.935994	1.527534	-31.272047
00814	16252812	-0.239308	9.819438	0.306604				0.001315	0.003750	-0.002526				87.936394	1.528295	-31.270993
00815	16252862	-0.246045	9.814555	0.294576				0.003564	-0.001507	-0.000701				87.939663	1.527821	-31.271714
00816	16252912	-0.222103	9.811856	0.304631				-0.001220	0.002696	-0.004168				87.939343	1.529043	-31.270986
00817	16252962	-0.240963	9.807909	0.299207				-0.001600	-0.000407	-0.001355				87.941137	1.528767	-31.271410
00818	16253012	-0.250192	9.821437	0.291463				-0.005702	-0.000449	-0.002245				87.939500	1.529406	-31.271561
00819	16253062	-0.238333	9.823188	0.295052				-0.006304	0.000384	-0.001368				87.939937	1.529139	-31.271750
00820	16253112	-0.214071	9.801470	0.308495				-0.004005	-0.000317	-0.000132				87.938780	1.529173	-31.271841
00821	16253162	-0.218444	9.807865	0.320457				-0.010694	0.001668	0.000858				87.938004	1.528278	-31.271644
00822	16253212	-0.245526	9.825641	0.330441				-0.003223	0.001375	-0.001724				87.937094	1.528783	-31.271274
00823	16253262	-0.219645	9.795272	0.336366				-0.004551	0.003775	-0.002003				87.938087	1.528740	-31.270517
00824	16253312	-0.217816	9.799844	0.333519				-0.004410	0.000256	-0.001540				87.936835	1.529187	-31.270456
00825	16253362	-0.234498	9.815153	0.343018				-0.001938	0.003072	-0.005218				87.938561	1.530049	-31.269910
00826	16253412	-0.256765	9.830419	0.350209				-0.003564	0.001181	0.000709				87.937541	1.529857	-31.269559
00827	16253462	-0.232721	9.807323	0.344465				-0.001653	0.003406	-0.002206				87.939357	1.529858	-31.268909
00828	16253512	-0.235028	9.806614	0.341929				-0.001463	0.003638	-0.001300				87.938977	1.530269	-31.267883
00829	16253562	-0.235533	9.802580	0.295194				-0.004354	0.003046	0.003801				87.939979	1.528552	-31.267230
00830	16253612	-0.230920	9.803314	0.313296				-0.001144	0.003844	0.001712				87.939695	1.528103	-31.266115
00831	16253662	-0.223829	9.792196	0.285952				-0.001168	-0.002082	-0.002078				87.941584	1.528015	-31.266987
00832	16253712	-0.224170	9.817500	0.290503				-0.000787	0.002262	-0.000704				87.941376	1.528241	-31.266344
00833	16253762	-0.218249	9.799287	0.291990				-0.003593	0.002887	-0.001466				87.942630	1.528027	-31.265837
00834	16253812	-0.232302	9.806702	0.292186				-0.008332	-0.000037	0.001325				87.940239	1.527649	-31.265830
00835	16253862	-0.212820	9.796456	0.295050				-0.001144	-0.000821	-0.003353				87.942177	1.527939	-31.266415
00836	16253912	-0.257090	9.818909	0.295931				-0.001706	-0.000215	-0.002697				87.941691	1.528709	-31.266508
00837	16253962	-0.227911	9.826723	0.304818				-0.006677	-0.001822	0.000253				87.942028	1.527953	-31.267338
00838	16254012	-0.232932	9.816944	0.335228				-0.005218	0.002963	0.001362				87.940552	1.527594	-31.266473
00839	16254062	-0.228721	9.800167	0.334820				-0.007208	0.001727	-0.000882				87.940762	1.527209	-31.266246
00840	16254112	-0.260769	9.807197	0.344760				-0.005037	0.000054	-0.000637				87.939308	1.527389	-31.266234
00841	16254162	-0.226385	9.801136	0.334995				-0.007391	0.002498	-0.002001				87.939489	1.527328	-31.265835
00842	16254212	-0.228541	9.830958	0.353072				-0.010119	-0.000431	-0.001947				87.936578	1.527878	-31.265976
00843	16254262	-0.223146	9.783711	0.345213				-0.005229	-0.000083	-0.001413				87.937341	1.527622	-31.266290
00844	16254312	-0.221542	9.813176	0.342853				-0.003148	0.001961	-0.002431				87.936449	1.528339	-31.265751
00845	16254362	-0.219837	9.796271	0.332711				-0.002754	0.000806	0.000127				87.937922	1.527646	-31.265827
00846	16254412	-0.224474	9.809255	0.317643				-0.003930	0.000165	-0.003400				87.936796	1.528621	-31.265813
00847	16254462	-0.231125	9.813570	0.309299				-0.001893	0.001881	-0.001472				87.938516	1.528398	-31.265590
00848	16254512	-0.239486	9.815729	0.300942				-0.002420	-0.000007	-0.003570				87.937820	1.529421	-31.265624
00849	16254562	-0.241295	9.811317	0.277627				-0.001595	0.001701	0.001802				87.939651	1.528259	-31.265441
00850	16254612	-0.228615	9.802672	0.294689				-0.004692	0.000989	-0.003877				87.938317	1.529382	-31.265198
00851	16254662	-0.219890	9.798450	0.298973				-0.005358	-0.001119	-0.000226				87.939007	1.528770	-31.265791
00852	16254712	-0.228149	9.818066	0.312531				-0.008313	0.001995	-0.002833				87.936638	1.529602	-31.265246
00853	16254762	-0.241553	9.828488	0.302842				-0.002217	0.002879	-0.002719				87.938301	1.529746	-31.264727
00854	16254812	-0.242955	9.827069	0.331810				-0.007691	-0.000650	-0.005638				87.936097	1.531355	-31.264976
00855	16254862	-0.246804	9.817691	0.321625				-0.005332	0.000816	-0.004575				87.936835	1.532011	-31.265095
00856	16254912	-0.259938	9.826616	0.348038				-0.003717	0.000488	-0.004749				87.935781	1.533375	-31.265010
00857	16254962	-0.243324	9.815162	0.350479				-0.006717	-0.002598	-0.000843				87.936090	1.532931	-31.266032
00858	16255012	-0.248874	9.814381	0.334991				-0.001872	0.002505	0.002127				87.935568	1.532347	-31.265293
00859	16255062	-0.237887	9.803176	0.347643				-0.002124	0.000104	-0.000966				87.937226	1.531964	-31.265532
00860	16255112	-0.238061	9.805628	0.342151				-0.003354	-0.000590	0.000221				87.936251	1.531891	-31.265695
00861	16255162	-0.234712	9.804193	0.330213				-0.005943	0.002264	-0.001331				87.936828	1.531638	-31.265348
00862	16255212	-0.227411	9.803718	0.320482				-0.002102	-0.004446	0.004107				87.936193	1.530417	-31.266573
00863	16255262	-0.227724	9.820431	0.329115				-0.000889	0.000640	0.000122				87.938197	1.529726	-31.266672
00864	16255312	-0.226868	9.814101	0.309245				-0.003384	0.000074	-0.003336				87.937232	1.530681	-31.266684
00865	16255362	-0.233780	9.827242	0.296874				-0.002542	0.000326	0.002435				87.938777	1.529323	-31.266868
00866	16255412	-0.239100	9.810504	0.301677				-0.003772	-0.002539	0.000789				87.937667	1.529070	-31.267584
00867	16255462	-0.245970	9.820795	0.305486				-0.001540	0.002827	-0.000793				87.939507	1.528667	-31.267067
00868	16255512	-0.249331	9.812581	0.297035				-0.006458	-0.001750	0.000127				87.937642	1.528613	-31.267567
00869	16255562	-0.242190	9.807579	0.304148				-0.006568	-0.000198	-0.000026				87.938014	1.527958	-31.267875
00870	16255612	-0.226617	9.797365	0.302625				-0.004470	0.001062	-0.002719				87.936765	1.528748	-31.267611
00871	16255662	-0.224474	9.815467	0.315042				-0.004687	-0.000943	0.000384				87.937668	1.527962	-31.268178
00872	16255712	-0.213026	9.801937	0.324604				-0.004359	0.000416	-0.002693				87.936421	1.528736	-31.268088
00873	16255762	-0.233577	9.809002	0.326533				-0.009129	0.001559	-0.003444				87.936071	1.529080	-31.267968
00874	16255812	-0.225930	9.807118	0.332358				-0.008260	0.001545	-0.001235				87.933712	1.529448	-31.267536
00875	16255862	-0.244963	9.808757	0.318281				-0.003977	-0.002294	-0.002193				87.934816	1.529386	-31.268527
00876	16255912	-0.256102	9.809620	0.330040				-0.003454	0.003769	-0.000428				87.933861	1.529549	-31.267456
00877	16255962	-0.247215	9.808900	0.338064				-0.000206	0.002275	-0.000510				87.936070	1.529057	-31.267116
00878	16256012	-0.231120	9.808428	0.319662				-0.004372	0.000227	0.000740				87.934811	1.528845	-31.267042
00879	16256062	-0.228918	9.794186	0.306880				-0.002227	0.001295	-0.000960				87.936457	1.528467	-31.266985
00880	16256112	-0.222725	9.805683	0.319848				-0.005394	-0.001986	0.000956				87.934897	1.528173	-31.267548
00881	16256162	-0.229524	9.814871	0.303123				-0.005674	0.000519	-0.003424				87.935536	1.528497	-31.267748
00882	16256212	-0.221350	9.819983	0.301118				-0.004543	-0.003785	-0.000662				87.934206	1.528648	-31.268837
00883	16256262	-0.232512	9.831200	0.318712				-0.005834	0.002110	0.001298				87.934789	1.527633	-31.268491
00884	16256312	-0.232336	9.831184	0.319904				-0.004500	0.001293	0.000652				87.933507	1.527459	-31.268119
00885	16256362	-0.231889	9.816247	0.303970				-0.001731	-0.000316	-0.001486				87.935274	1.527218	-31.268500
00886	16256412	-0.237057	9.801259	0.318764				-0.004364	-0.000262	-0.002825				87.934018	1.528022	-31.268611
00887	16256462	-0.242606	9.813195	0.324378				-0.008412	0.000516	0.000593				87.933876	1.527196	-31.268734
00888	16256512	-0.249284	9.808992	0.330454				-0.002840	0.001451	-0.001347				87.933067	1.527594	-31.268334
00889	16256562	-0.236181	9.816631	0.321805				-0.003365	0.003192	0.002198				87.934415	1.526339	-31.267719
00890	16256612	-0.219890	9.789574	0.351878				-0.003994	0.001329	-0.002051				87.933288	1.526941	-31.267363
00891	16256662	-0.246494	9.817342	0.314178				-0.004523	0.003839	-0.003248				87.934270	1.527246	-31.266576
00892	16256712	-0.225742	9.818940	0.334795				0.001564	0.000681	-0.003766				87.934723	1.528328	-31.266424
00893	16256762	-0.238039	9.806976	0.316262				-0.003868	-0.001869	-0.002965				87.935845	1.528494	-31.267262
00894	16256812	-0.207787	9.807292	0.319943				-0.002889	0.002835	-0.002299				87.935038	1.529180	-31.266476
00895	16256862	-0.236108	9.812107	0.307917				-0.004919	0.000148	-0.001407				87.935888	1.528923	-31.266737
00896	16256912	-0.236747	9.800088	0.317919				-0.001140	-0.000849	-0.002287				87.935547	1.529569	-31.267001
00897	16256962	-0.237054	9.805409	0.325869				-0.001756	-0.001438	-0.000752				87.937302	1.529098	-31.267720
00898	16257012	-0.254869	9.815379	0.311413				-0.004886	-0.000216	-0.006865				87.935904	1.531063	-31.267853
00899	16257062	-0.237489	9.821010	0.314271				-0.002040	-0.002938	-0.003038				87.937536	1.531234	-31.269016
00900	16257112	-0.248313	9.817180	0.307416				-0.001934	0.000171	-0.000710				87.936991	1.531439	-31.268973
00901	16257162	-0.239862	9.815586	0.294510				-0.005671	-0.002480	-0.000617				87.937587	1.530929	-31.269982
00902	16257212	-0.256892	9.808202	0.313797				-0.006230	-0.000137	-0.003746				87.935804	1.531999	-31.270063
00903	16257262	-0.240858	9.836464	0.308880				-0.004110	-0.003063	0.000464				87.936867	1.531172	-31.271223
00904	16257312	-0.233202	9.807666	0.305784				-0.005291	-0.000212	-0.001571				87.935358	1.531619	-31.271306
00905	16257362	-0.249573	9.819948	0.311567				-0.004166	-0.001420	-0.001835				87.936401	1.531467	-31.272004
00906	16257412	-0.232543	9.810975	0.322740				-0.002578	-0.001845	0.000688				87.935655	1.531249	-31.272529
00907	16257462	-0.232624	9.795984	0.326044				-0.000006	0.000015	0.000793				87.937908	1.530359	-31.272807
00908	16257512	-0.231792	9.793448	0.337177				-0.005703	0.002755	-0.002422				87.936290	1.531080	-31.272038
00909	16257562	-0.225068	9.817181	0.326551				-0.004793	0.002320	-0.000662				87.937210	1.530628	-31.271660
00910	16257612	-0.229851	9.823274	0.327212				-0.002303	-0.000320	-0.000007				87.936542	1.530625	-31.271750
00911	16257662	-0.232532	9.806402	0.326968				-0.000386	-0.000019	0.002169				87.938699	1.529344	-31.272047
00912	16257712	-0.240913	9.812405	0.315527				-0.002192	0.001205	-0.000288				87.938083	1.529439	-31.271702
00913	16257762	-0.241488	9.827103	0.315637				-0.006137	-0.002649	0.001276				87.938562	1.528377	-31.272729
00914	16257812	-0.240087	9.819592	0.311761				-0.003883	0.000584	-0.004649				87.937464	1.529714	-31.272614
00915	16257862	-0.229495	9.821244	0.304980				-0.003617	0.000660	-0.000959				87.938679	1.529332	-31.272733
00916	16257912	-0.227677	9.811303	0.305231				-0.003868	0.000427	-0.000833				87.937573	1.529578	-31.272618
00917	16257962	-0.219167	9.821698	0.330397				-0.007974	0.004885	0.000676				87.937588	1.528764	-31.271506
00918	16258012	-0.216029	9.798379	0.322382				-0.003457	0.005671	-0.002221				87.936647	1.529460	-31.269906
00919	16258062	-0.240704	9.816481	0.312630				0.000045	-0.002128	-0.004644				87.938902	1.530103	-31.270879
00920	16258112	-0.233134	9.811016	0.304128				-0.007185	-0.000887	0.001831				87.936831	1.529571	-31.271106
00921	16258162	-0.234773	9.815424	0.324471				-0.004762	-0.001753	0.000571				87.937709	1.528724	-31.271916
00922	16258212	-0.231656	9.811189	0.309571				-0.004213	0.001962	-0.005416				87.936526	1.530298	-31.271415
00923	16258262	-0.253395	9.823260	0.309156				-0.005355	0.001789	-0.003000				87.937271	1.530508	-31.271202
00924	16258312	-0.243154	9.825173	0.301122				-0.007692	-0.000323	-0.002556				87.935069	1.531238	-31.271316
00925	16258362	-0.255771	9.816834	0.323864				-0.004753	0.000187	0.000132				87.935954	1.530538	-31.271555
00926	16258412	-0.223700	9.799686	0.323320				-0.001018	0.003421	-0.002556				87.935683	1.531303	-31.270601
00927	16258462	-0.238833	9.791209	0.322336				-0.006381	0.000708	-0.002398				87.936141	1.531329	-31.270718
00928	16258512	-0.217951	9.804031	0.323289				-0.000795	-0.000551	-0.000336				87.935912	1.531421	-31.270880
00929	16258562	-0.239211	9.818912	0.310048				-0.000647	0.001135	0.000834				87.937990	1.530529	-31.270826
00930	16258612	-0.243005	9.831754	0.304820				-0.002606	-0.003267	-0.002041				87.937215	1.531081	-31.271778
00931	16258662	-0.233607	9.823816	0.303994				-0.002452	0.002330	-0.000475				87.938796	1.530578	-31.271409
00932	16258712	-0.247982	9.823262	0.312947				-0.002402	0.001615	-0.003108				87.938122	1.531482	-31.270983
00933	16258762	-0.227038	9.819069	0.309779				-0.003168	-0.000074	0.002015				87.939473	1.530241	-31.271281
00934	16258812	-0.223906	9.805514	0.314763				-0.001381	0.002896	-0.000734				87.939092	1.530482	-31.270457
00935	16258862	-0.226540	9.806042	0.324558				-0.001845	0.001473	0.000706				87.940841	1.529628	-31.270349
00936	16258912	-0.229682	9.807658	0.309336				-0.004563	0.000896	-0.003301				87.939550	1.530583	-31.270131
00937	16258962	-0.245206	9.819019	0.298504				0.000008	-0.000704	-0.002646				87.941791	1.530662	-31.270647
00938	16259012	-0.224254	9.813972	0.304483				-0.004422	0.002676	-0.002235				87.940538	1.531329	-31.269901
00939	16259062	-0.218673	9.810291	0.316647				-0.002680	0.000454	0.000867				87.942020	1.530424	-31.270047
00940	16259112	-0.229532	9.814352	0.321571				-0.004324	0.000806	0.000454				87.940784	1.530300	-31.269811
00941	16259162	-0.229069	9.815742	0.323918				-0.003944	-0.002190	-0.001264				87.941924	1.529975	-31.270767
00942	16259212	-0.243685	9.811491	0.326644				-0.005769	0.002748	-0.002483				87.940280	1.530713	-31.270001
00943	16259262	-0.250155	9.810572	0.319476				-0.003646	0.000726	0.000901				87.941512	1.529793	-31.270087
00944	16259312	-0.224625	9.798696	0.325562				-0.002811	-0.000652	-0.001483				87.940707	1.530213	-31.270291
00945	16259362	-0.225731	9.797150	0.332720				-0.002878	0.001711	0.000678				87.942160	1.529368	-31.270080
00946	16259412	-0.222331	9.814138	0.310207				-0.001860	0.002891	-0.001018				87.941643	1.529687	-31.269260
00947	16259462	-0.226320	9.804847	0.309792				-0.004724	-0.000142	-0.002952				87.942551	1.529866	-31.269613
00948	16259512	-0.235296	9.812237	0.330817				-0.002617	0.004558	-0.001070				87.941832	1.530221	-31.268313
00949	16259562	-0.233099	9.813002	0.313152				-0.000767	0.000478	-0.002185				87.943869	1.530189	-31.268508
00950	16259612	-0.241028	9.817867	0.315154				-0.006724	0.001603	-0.002903				87.941959	1.531036	-31.268081
00951	16259662	-0.243050	9.813771	0.317794				-0.004808	-0.002270	0.000282				87.942818	1.530267	-31.269006
00952	16259712	-0.227238	9.837222	0.317106				-0.002339	-0.000453	-0.002222				87.942140	1.530897	-31.269160
00953	16259762	-0.234106	9.805493	0.307761				-0.007470	-0.004390	-0.001556				87.942233	1.530631	-31.270725
00954	16259812	-0.265692	9.815597	0.319446				-0.002591	-0.003324	0.001423				87.941459	1.530188	-31.271656
00955	16259862	-0.247971	9.825160	0.313187				-0.002524	0.001460	-0.001340				87.943029	1.529925	-31.271575
00956	16259912	-0.238496	9.815585	0.326424				-0.006077	-0.000891	-0.003590				87.941278	1.530944	-31.271870
00957	16259962	-0.244726	9.814106	0.310001				-0.002328	0.001383	-0.001438				87.942882	1.530707	-31.271770
00958	16260012	-0.253158	9.813525	0.325437				-0.002747	0.000366	-0.002176				87.942084	1.531330	-31.271686
00959	16260062	-0.243591	9.810209	0.332597				-0.003467	0.001841	-0.002234				87.943398	1.531325	-31.271491
00960	16260112	-0.240134	9.820271	0.329007				-0.005109	-0.004099	-0.001557				87.941893	1.531725	-31.272680
00961	16260162	-0.232751	9.817164	0.321087				-0.004457	-0.000408	-0.003270				87.942878	1.531997	-31.273127
00962	16260212	-0.204354	9.822956	0.322299				-0.001214	-0.001474	0.000052				87.942525	1.531967	-31.273553
00963	16260262	-0.232275	9.804836	0.320888				-0.006089	-0.002469	-0.001545				87.943013	1.531716	-31.274568
00964	16260312	-0.247624	9.799984	0.300263				-0.002941	0.000233	-0.002915				87.942168	1.532554	-31.274530
00965	16260362	-0.230111	9.814377	0.303972				-0.000308	0.000224	-0.000934				87.944343	1.532155	-31.274794
00966	16260412	-0.235782	9.814707	0.323925				-0.003098	0.000200	-0.002535				87.943467	1.532883	-31.274768
00967	16260462	-0.255352	9.805784	0.318116				-0.005645	-0.000196	-0.000694				87.944115	1.532416	-31.275129
00968	16260512	-0.246626	9.827371	0.325134				-0.002012	-0.000556	-0.001641				87.943539	1.532881	-31.275308
00969	16260562	-0.252406	9.831711	0.315681				-0.006103	0.006387	-0.001238				87.944094	1.532635	-31.273775
00970	16260612	-0.241380	9.825836	0.305253				-0.003242	0.000113	0.001832				87.943173	1.532112	-31.273728
00971	16260662	-0.231106	9.815296	0.320109				-0.003476	-0.001668	0.003519				87.944424	1.530416	-31.274464
00972	16260712	-0.235520	9.824671	0.309046				-0.003467	-0.000062	-0.000864				87.943437	1.530666	-31.274491
00973	16260762	-0.231840	9.809147	0.318949				-0.005972	0.003155	-0.001932				87.943983	1.530580	-31.273875
00974	16260812	-0.224825	9.828695	0.333707				-0.002360	0.001213	-0.003235				87.943316	1.531516	-31.273560
00975	16260862	-0.231013	9.791412	0.331105				-0.002930	0.001210	-0.000539				87.944749	1.531017	-31.273512
00976	16260912	-0.222435	9.802514	0.325337				-0.002457	0.001673	0.001390				87.944045	1.530634	-31.273010
00977	16260962	-0.237552	9.782657	0.293530				-0.003818	-0.000199	-0.000768				87.945213	1.530187	-31.273382
00978	16261012	-0.229413	9.811299	0.335360				-0.000860	-0.000631	-0.002570				87.944967	1.530915	-31.273595
00979	16261062	-0.240112	9.817919	0.327955				-0.007185	-0.001161	-0.001437				87.945164	1.530652	-31.274207
00980	16261112	-0.222047	9.826935	0.311575				0.000142	0.003335	-0.001659				87.945226	1.531160	-31.273274
00981	16261162	-0.239292	9.824099	0.328006				-0.001901	-0.000265	-0.004014				87.946949	1.531646	-31.273702
00982	16261212	-0.225184	9.814691	0.318627				-0.005533	-0.000420	0.000904				87.945353	1.531386	-31.273809
00983	16261262	-0.216855	9.814861	0.283112				-0.003218	0.003404	0.000466				87.946748	1.530619	-31.273144
00984	16261312	-0.243484	9.808398	0.358379				-0.007537	0.000966	-0.000719				87.944598	1.530833	-31.272880
00985	16261362	-0.229901	9.798260	0.287751				-0.003904	0.001413	-0.003328				87.945732	1.531134	-31.272769
00986	16261412	-0.235546	9.818705	0.326353				-0.004054	0.002418	-0.000147				87.944589	1.531199	-31.272078
00987	16261462	-0.220561	9.786284	0.318386				-0.005201	0.000104	0.001418				87.945373	1.530129	-31.272342
00988	16261512	-0.220958	9.792878	0.321200				-0.003178	-0.000223	-0.001701				87.944454	1.530612	-31.272423
00989	16261562	-0.239506	9.815920	0.335301				-0.005425	0.001804	-0.005372				87.945178	1.531503	-31.272227
00990	16261612	-0.223740	9.820981	0.327083				-0.006942	-0.000837	-0.002591				87.943183	1.532238	-31.272495
00991	16261662	-0.242455	9.811342	0.337419				-0.004269	-0.003178	-0.000457				87.944206	1.531672	-31.273698
00992	16261712	-0.242319	9.835977	0.292762				0.000247	-0.000126	-0.002863				87.944273	1.532489	-31.273765
00993	16261762	-0.241695	9.784963	0.341147				-0.000245	-0.000783	-0.001229				87.946467	1.532166	-31.274259
00994	16261812	-0.233373	9.819093	0.272149				-0.002612	-0.002992	-0.002521				87.945693	1.532856	-31.275142
00995	16261862	-0.247012	9.793900	0.326082				0.000161	0.000518	-0.003272				87.947988	1.533129	-31.275295
00996	16261912	-0.218691	9.807470	0.315115				-0.006274	0.001633	-0.000367				87.946191	1.533250	-31.274824
00997	16261962	-0.226089	9.794421	0.324204				-0.004148	0.000419	0.002892				87.947296	1.531763	-31.274972
00998	16262012	-0.226383	9.807843	0.330726				-0.005941	0.000221	-0.000278				87.945582	1.531843	-31.274906
00999	16262062	-0.198508	9.821853	0.290753				-0.006981	-0.000582	-0.002433				87.945829	1.531866	-31.275376
01000	16262112	-0.236472	9.819210	0.323981				-0.005828	-0.000391	0.000328				87.944146	1.531768	-31.275478
01001	16262162	-0.230619	9.824482	0.293654				-0.006959	-0.002057	0.001056				87.944414	1.530776	-31.276369
01002	16262212	-0.231180	9.832355	0.306399				-0.003906	0.000344	-0.004359				87.943300	1.532027	-31.276316
01003	16262262	-0.249596	9.787441	0.312554				-0.006024	-0.000365	-0.000376				87.943828	1.531465	-31.276733
01004	16262312	-0.230791	9.802176	0.310082				-0.004452	0.000696	-0.001341				87.942557	1.531858	-31.276549
01005	16262362	-0.248519	9.808174	0.291457				-0.006275	-0.000336	0.001167				87.943018	1.530847	-31.276880
01006	16262412	-0.241902	9.784784	0.336754				-0.006130	-0.000983	-0.000831				87.941246	1.531070	-31.277168
01007	16262462	-0.214606	9.791464	0.310190				-0.002243	0.000773	0.000449				87.942882	1.530287	-31.277231
01008	16262512	-0.236491	9.815121	0.296599				-0.002689	-0.002243	0.001529				87.942103	1.529827	-31.277863
01009	16262562	-0.241510	9.822553	0.349576				-0.005257	-0.000193	-0.001308				87.942861	1.529535	-31.278229
01010	16262612	-0.255235	9.831964	0.312286				-0.002102	0.002156	-0.003161				87.942279	1.530460	-31.277646
01011	16262662	-0.222411	9.801982	0.298764				-0.004801	0.001461	-0.002939				87.943170	1.530655	-31.277537
01012	16262712	-0.238408	9.812689	0.314765				-0.001382	0.001182	0.002573				87.942789	1.529933	-31.277175
01013	16262762	-0.237144	9.825347	0.294390				-0.008738	0.001393	-0.001226				87.942566	1.529630	-31.277094
01014	16262812	-0.232480	9.822031	0.297712				-0.001228	0.002243	0.000942				87.942236	1.529380	-31.276443
01015	16262862	-0.245614	9.776519	0.347514				-0.002942	0.001732	0.001038				87.943646	1.528437	-31.276223
01016	16262912	-0.222799	9.798053	0.306916				-0.005057	0.000494	0.000073				87.942189	1.528415	-31.276081
01017	16262962	-0.231705	9.793751	0.317216				-0.003397	0.002652	-0.004474				87.943509	1.529060	-31.275670
01018	16263012	-0.235361	9.812364	0.338567				-0.005196	-0.000030	-0.000986				87.942026	1.529343	-31.275693
01019	16263062	-0.224667	9.839457	0.296800				-0.003932	0.004648	-0.000519				87.943176	1.528869	-31.274633
01020	16263112	-0.222934	9.802509	0.325818				-0.003745	0.000744	0.000522				87.942104	1.528725	-31.274413
01021	16263162	-0.229279	9.821181	0.340296				-0.006620	0.002307	-0.001676				87.942515	1.528566	-31.274087
01022	16263212	-0.214916	9.832371	0.303451				-0.003960	0.003354	-0.003027				87.941403	1.529469	-31.273151
01023	16263262	-0.258149	9.814957	0.336768				-0.004514	0.000699	0.000780				87.942367	1.528576	-31.273215
01024	16263312	-0.254501	9.821445	0.302761				-0.005171	0.001364	0.000499				87.940896	1.528447	-31.272819
01025	16263362	-0.207438	9.774475	0.325709				-0.004642	0.002502	-0.002486				87.941857	1.528520	-31.272398
01026	16263412	-0.242343	9.805759	0.283707				-0.002931	-0.002028	-0.001645				87.941005	1.528969	-31.272998
01027	16263462	-0.226025	9.805427	0.334190				-0.003761	-0.000139	-0.003976				87.942191	1.529439	-31.273402
01028	16263512	-0.230860	9.813024	0.314377				-0.004483	-0.000370	-0.000606				87.940906	1.529608	-31.273515
01029	16263562	-0.242084	9.814305	0.298679				0.001211	-0.001146	-0.002323				87.943504	1.529596	-31.274156
01030	16263612	-0.234521	9.804584	0.366810				-0.003523	0.000576	-0.003492				87.942495	1.530603	-31.274026
01031	16263662	-0.251737	9.840075	0.281634				-0.004435	0.000183	-0.000218				87.943500	1.529997	-31.274288
01032	16263712	-0.234350	9.797020	0.318619				-0.003077	0.004890	-0.003115				87.942652	1.530938	-31.272916
01033	16263762	-0.240681	9.819618	0.293922				-0.008468	0.000848	-0.002737				87.942489	1.531061	-31.272999
01034	16263812	-0.241963	9.799273	0.320096				-0.002544	0.001187	-0.000764				87.941769	1.531290	-31.272669
01035	16263862	-0.236790	9.813116	0.319231				-0.005455	0.001737	-0.006111				87.942486	1.532392	-31.272530
01036	16263912	-0.235799	9.810484	0.305839				-0.007471	-0.000163	-0.000405				87.940350	1.532507	-31.272584
01037	16263962	-0.227006	9.775346	0.314587				-0.004316	0.000479	0.001258				87.941373	1.531482	-31.272716
01038	16264012	-0.235647	9.830183	0.320667				-0.004555	0.003351	0.001019				87.940094	1.531228	-31.271736
01039	16264062	-0.231182	9.812791	0.314093				-0.004051	-0.002274	-0.003025				87.941195	1.531398	-31.272749
01040	16264112	-0.245891	9.806438	0.313666				-0.002868	0.002111	-0.004060				87.940397	1.532584	-31.272191
01041	16264162	-0.243848	9.830882	0.330429				-0.003777	0.002680	-0.001685				87.941598	1.532425	-31.271736
01042	16264212	-0.241262	9.816133	0.319664				-0.003785	-0.000136	-0.001726				87.940511	1.532918	-31.271789
01043	16264262	-0.238837	9.812895	0.362561				-0.004535	0.001343	-0.001719				87.941474	1.532759	-31.271718
01044	16264312	-0.252246	9.825252	0.303781				-0.007406	0.005040	-0.001723				87.939375	1.533304	-31.270284
01045	16264362	-0.218831	9.789681	0.299224				-0.004759	-0.002961	-0.000429				87.940266	1.532724	-31.271439
01046	16264412	-0.224995	9.821590	0.332707				-0.003587	-0.001689	-0.003435				87.939226	1.533690	-31.271959
01047	16264462	-0.235588	9.807937	0.317199				-0.002071	0.002487	-0.000212				87.940918	1.533109	-31.271538
01048	16264512	-0.219066	9.814102	0.315252				-0.003469	0.002974	-0.002293				87.939958	1.533799	-31.270716
01049	16264562	-0.243132	9.803437	0.341873				-0.001130	0.003048	-0.002009				87.941899	1.533736	-31.270142
01050	16264612	-0.220373	9.814341	0.329842				-0.001911	0.001024	-0.004583				87.941353	1.535057	-31.269892
01051	16264662	-0.229324	9.820095	0.303021				-0.002760	-0.002445	-0.002933				87.942825	1.535203	-31.270945
01052	16264712	-0.248916	9.772289	0.341972				-0.004575	-0.001603	-0.000965				87.941507	1.535462	-31.271420
01053	16264762	-0.251808	9.810623	0.298979				0.000402	-0.002360	-0.004893				87.943853	1.536174	-31.272424
01054	16264812	-0.237248	9.809452	0.340937				-0.002921	-0.001215	-0.001966				87.943010	1.536724	-31.272797
01055	16264862	-0.222018	9.808624	0.314689				-0.000287	0.000805	0.000447				87.945211	1.535937	-31.272844
01056	16264912	-0.219893	9.807656	0.317470				-0.005605	-0.000458	-0.000634				87.943601	1.536116	-31.272979
01057	16264962	-0.249792	9.822073	0.327949				0.001241	-0.001312	-0.004955				87.946209	1.536854	-31.273701
01058	16265012	-0.237030	9.820839	0.310060				-0.001036	-0.001450	-0.005016				87.945906	1.538276	-31.274170
01059	16265062	-0.228684	9.813519	0.330606				-0.005637	0.002445	-0.004500				87.946569	1.538920	-31.273809
01060	16265112	-0.223170	9.816755	0.309245				-0.002004	-0.001078	-0.005142				87.945990	1.540382	-31.274177
01061	16265162	-0.244773	9.793784	0.319943				-0.003316	0.003304	-0.000621				87.947343	1.539927	-31.273509
01062	16265212	-0.240990	9.822748	0.306573				-0.006025	0.003901	-0.001349				87.945639	1.540353	-31.272402
01063	16265262	-0.228225	9.811806	0.334115				0.001358	0.000117	-0.002676				87.948305	1.540452	-31.272680
01064	16265312	-0.239651	9.791984	0.333311				-0.002304	-0.000598	-0.003436				87.947642	1.541429	-31.272885
01065	16265362	-0.221193	9.809688	0.322722				-0.005659	0.000154	-0.002624				87.948269	1.541512	-31.273148
01066	16265412	-0.217199	9.822158	0.333234				-0.004251	-0.000992	-0.005522				87.947044	1.543085	-31.273489
01067	16265462	-0.218542	9.804015	0.324065				-0.001658	0.002357	-0.003424				87.948867	1.543422	-31.273166
01068	16265512	-0.240120	9.835133	0.319174				-0.004091	0.000113	-0.005028				87.947697	1.544864	-31.273181
01069	16265562	-0.249752	9.820745	0.305767				0.000516	0.000853	0.000703				87.950098	1.544002	-31.273238
01070	16265612	-0.247968	9.807210	0.324035				-0.005492	0.004530	0.000741				87.948575	1.543840	-31.271935
01071	16265662	-0.227362	9.822414	0.292660				-0.000190	0.002515	-0.002754				87.950821	1.543984	-31.271545
01072	16265712	-0.236703	9.778050	0.316257				-0.002607	-0.000080	-0.001316				87.950060	1.544359	-31.271577
01073	16265762	-0.241728	9.789198	0.312435				-0.001790	0.000749	0.001639				87.951818	1.543227	-31.271635
01074	16265812	-0.214951	9.819625	0.298783				-0.006045	-0.000560	0.000484				87.950082	1.543084	-31.271793
01075	16265862	-0.240148	9.807986	0.325625				-0.002519	-0.001494	0.001466				87.951608	1.541976	-31.272494
01076	16265912	-0.232740	9.829575	0.300843				-0.000104	0.002935	-0.004160				87.951593	1.543198	-31.271694
01077	16265962	-0.221338	9.803634	0.315959				-0.002228	-0.004153	-0.003808				87.953193	1.543575	-31.273243
01078	16266012	-0.251519	9.818412	0.317317				-0.004058	0.000311	-0.002912				87.952030	1.544411	-31.273182
01079	16266062	-0.242397	9.816936	0.312698				-0.003216	0.003140	-0.002001				87.953408	1.544345	-31.272631
01080	16266112	-0.244177	9.800871	0.322567				-0.003581	0.001582	-0.002107				87.952390	1.544965	-31.272197
01081	16266162	-0.237659	9.801194	0.322001				-0.002358	0.001410	-0.001660				87.954004	1.544785	-31.272121
01082	16266212	-0.233372	9.827181	0.332727				0.000504	-0.000123	-0.001642				87.954146	1.545254	-31.272175
01083	16266262	-0.227909	9.813036	0.331580				-0.003153	0.003339	-0.000429				87.955522	1.544738	-31.271519
01084	16266312	-0.218278	9.801962	0.303028				-0.004871	0.000724	-0.000727				87.954135	1.544955	-31.271318
01085	16266362	-0.229092	9.809134	0.337061				-0.004233	0.000896	0.000205				87.955199	1.544237	-31.271358
01086	16266412	-0.222909	9.796897	0.289328				-0.002665	-0.000048	-0.000257				87.954430	1.544312	-31.271369
01087	16266462	-0.230603	9.805982	0.325119				-0.005066	0.000881	-0.000629				87.955249	1.543831	-31.271412
01088	16266512	-0.227436	9.841838	0.309976				-0.001856	0.001745	0.000201				87.954731	1.543789	-31.270915
01089	16266562	-0.226326	9.805521	0.327395				-0.001473	-0.000152	0.000637				87.956568	1.542938	-31.271252
01090	16266612	-0.240186	9.810525	0.315114				-0.002843	0.000335	-0.002242				87.955759	1.543581	-31.271186
01091	16266662	-0.241470	9.787585	0.309365				-0.002574	-0.001208	-0.001413				87.957295	1.543309	-31.271855
01092	16266712	-0.242602	9.809626	0.325192				-0.003855	0.000188	0.000391				87.956176	1.543195	-31.271788
01093	16266762	-0.239604	9.809443	0.293083				-0.004520	0.001630	-0.002904				87.957178	1.543380	-31.271665
01094	16266812	-0.231668	9.806761	0.319914				-0.004162	-0.000659	-0.003371				87.955976	1.544339	-31.271881
01095	16266862	-0.225830	9.827138	0.310722				-0.003282	0.002399	-0.001045				87.957309	1.543993	-31.271509
01096	16266912	-0.239198	9.813373	0.315851				-0.004035	0.000674	-0.001341				87.956150	1.544383	-31.271332
01097	16266962	-0.251593	9.832890	0.301441				-0.002767	-0.003289	-0.003640				87.957610	1.544720	-31.272606
01098	16267012	-0.232807	9.822512	0.312738				-0.004598	-0.002088	-0.003503				87.956267	1.545703	-31.273232
01099	16267062	-0.229544	9.818944	0.315792				-0.003040	-0.000672	-0.002185				87.957666	1.545650	-31.273778
01100	16267112	-0.235994	9.800566	0.318086				-0.006562	0.001468	-0.001650				87.955804	1.546139	-31.273372
01101	16267162	-0.229822	9.822769	0.313865				-0.003907	-0.000296	-0.000607				87.956938	1.545640	-31.273771
01102	16267212	-0.220765	9.791701	0.320963				-0.002501	-0.001635	-0.003859				87.956203	1.546724	-31.274273
01103	16267262	-0.233305	9.808103	0.323286				-0.004318	-0.002600	-0.000717				87.957210	1.546237	-31.275351
01104	16267312	-0.223323	9.801356	0.323437				-0.003288	0.001132	-0.003716				87.956281	1.547313	-31.275062
