// General information: 
//  MT Manager version: 2022.0.0 
//  XDA version: 2022.0.0 build 7085 rev 119802 built on 2022-11-08
// Device information: 
//  DeviceId: 037004D1
//  ProductCode: MTi-300-2A5G4
//  Firmware Version: 1.4.1
//  Hardware Version: 2.1.0
// Device settings: 
//  Filter Profile: general(39.16)
//  Option Flags: Orientation Smoother Disabled, Position/Velocity Smoother Disabled, Continuous Zero Rotation Update Disabled, AHS Disabled, ICC Disabled
// Coordinate system: ENU
PacketCounter	SampleTimeFine	Acc_X	Acc_Y	Acc_Z	AccHR_X	AccHR_Y	AccHR_Z	Gyr_X	Gyr_Y	Gyr_Z	GyrHR_X	GyrHR_Y	GyrHR_Z	Roll	Pitch	Yaw
00001	1160198	-9.806977	-0.157411	-0.237605				-0.005837	-0.002441	-0.001351				-148.252563	88.330477	-101.202291
00002	1160248	-9.802315	-0.178001	-0.256898				-0.002372	0.003305	-0.004441				-148.233018	88.329005	-101.182057
00003	1160298	-9.810820	-0.178054	-0.227892				-0.001996	0.003573	-0.004373				-148.229163	88.328548	-101.179663
00004	1160348	-9.812630	-0.180220	-0.239539				-0.003924	0.000925	-0.001238				-148.224267	88.328371	-101.173537
00005	1160398	-9.810268	-0.156116	-0.246527				-0.005221	0.000416	-0.000377				-148.238303	88.328624	-101.188410
00006	1160448	-9.816316	-0.154242	-0.235033				-0.000400	0.002956	-0.002139				-148.235804	88.327820	-101.185689
00007	1160498	-9.801624	-0.162970	-0.243434				-0.006279	0.000298	-0.002939				-148.228223	88.327948	-101.178523
00008	1160548	-9.811643	-0.161828	-0.242906				-0.003410	0.001097	0.001744				-148.249323	88.328115	-101.198579
00009	1160598	-9.810759	-0.152562	-0.251341				-0.004008	0.001469	-0.002776				-148.248394	88.327782	-101.198812
00010	1160648	-9.821061	-0.150838	-0.245123				-0.001547	0.004973	-0.001708				-148.260516	88.326025	-101.210625
00011	1160698	-9.798795	-0.162712	-0.240150				-0.005106	0.001970	-0.000142				-148.284389	88.326528	-101.235073
00012	1160748	-9.814091	-0.143175	-0.231905				-0.002684	0.002170	-0.003131				-148.270406	88.325471	-101.220339
00013	1160798	-9.810630	-0.152826	-0.232875				-0.005442	0.003351	-0.002986				-148.276944	88.325345	-101.227320
00014	1160848	-9.829070	-0.140568	-0.241606				-0.007359	-0.000980	-0.003265				-148.246774	88.325252	-101.194957
00015	1160898	-9.805017	-0.154849	-0.251271				-0.002060	-0.000335	-0.002182				-148.241036	88.325778	-101.190780
00016	1160948	-9.783306	-0.160571	-0.246147				-0.003525	-0.000685	-0.001542				-148.225554	88.325865	-101.174215
00017	1160998	-9.808314	-0.161423	-0.243867				-0.004543	0.000035	-0.003716				-148.209417	88.326002	-101.158976
00018	1161048	-9.817102	-0.168768	-0.233207				-0.006692	-0.001744	-0.001635				-148.188746	88.326360	-101.136292
00019	1161098	-9.804844	-0.170770	-0.247476				-0.004833	0.000165	-0.002398				-148.184170	88.326726	-101.132503
00020	1161148	-9.795691	-0.177796	-0.249453				-0.003136	0.002127	-0.003163				-148.169615	88.325724	-101.117043
00021	1161198	-9.785279	-0.175349	-0.243993				-0.003142	0.000287	-0.002468				-148.164993	88.326020	-101.113699
00022	1161248	-9.792523	-0.164486	-0.249441				-0.003736	0.000956	-0.003231				-148.143951	88.325296	-101.091583
00023	1161298	-9.814813	-0.164551	-0.226355				-0.007693	0.001732	-0.000778				-148.162443	88.325428	-101.110081
00024	1161348	-9.799404	-0.162423	-0.258595				-0.004276	0.000986	0.000396				-148.171845	88.325340	-101.118219
00025	1161398	-9.779494	-0.166874	-0.234235				-0.002281	0.003765	-0.001876				-148.189657	88.324756	-101.137621
00026	1161448	-9.802350	-0.161768	-0.245297				-0.003193	-0.002265	-0.002930				-148.154634	88.324668	-101.101752
00027	1161498	-9.829664	-0.154152	-0.232962				-0.003697	0.002097	0.001400				-148.191106	88.325730	-101.139097
00028	1161548	-9.820910	-0.170066	-0.231126				0.000213	-0.000266	-0.002317				-148.170487	88.325415	-101.118539
00029	1161598	-9.814481	-0.163843	-0.242188				-0.005867	0.001503	-0.002512				-148.172539	88.325200	-101.121199
00030	1161648	-9.797166	-0.159107	-0.241548				-0.002176	0.002506	-0.000337				-148.183299	88.324527	-101.131349
00031	1161698	-9.805820	-0.162024	-0.261412				-0.002569	0.002725	-0.000497				-148.207208	88.325057	-101.156466
00032	1161748	-9.825673	-0.145279	-0.240753				-0.002152	0.002861	-0.001040				-148.214016	88.324367	-101.162586
00033	1161798	-9.800934	-0.145944	-0.236566				-0.003336	0.004782	-0.000134				-148.251980	88.323479	-101.201970
00034	1161848	-9.809567	-0.138171	-0.242706				-0.004935	0.002520	-0.002255				-148.247631	88.322313	-101.196299
00035	1161898	-9.801805	-0.161312	-0.257084				-0.004052	-0.000143	-0.001472				-148.248960	88.323388	-101.198440
00036	1161948	-9.803302	-0.164524	-0.239811				-0.003481	0.000928	-0.002429				-148.234677	88.322626	-101.183224
00037	1161998	-9.837741	-0.145709	-0.214929				-0.003329	0.000812	0.002804				-148.276324	88.324007	-101.225926
00038	1162048	-9.823776	-0.142012	-0.247705				-0.005735	0.001603	-0.001167				-148.276384	88.323514	-101.224311
00039	1162098	-9.791140	-0.162784	-0.245176				-0.002804	0.001977	-0.000498				-148.296732	88.323768	-101.246016
00040	1162148	-9.806340	-0.153760	-0.232104				-0.003825	-0.002378	-0.003153				-148.259168	88.323864	-101.207339
00041	1162198	-9.804317	-0.174085	-0.248841				-0.007305	-0.000984	-0.004320				-148.233436	88.324238	-101.181658
00042	1162248	-9.812483	-0.172651	-0.240777				-0.003992	0.002954	-0.002836				-148.225971	88.323218	-101.172994
00043	1162298	-9.789837	-0.169390	-0.250409				-0.001779	-0.002272	-0.002100				-148.211125	88.323990	-101.159902
00044	1162348	-9.787246	-0.171161	-0.242554				-0.001126	0.000285	-0.004497				-148.175575	88.323194	-101.124039
00045	1162398	-9.819128	-0.149807	-0.250599				-0.004164	0.002500	-0.001905				-148.187116	88.323526	-101.136354
00046	1162448	-9.840827	-0.169778	-0.244440				-0.004383	0.001374	0.000338				-148.198094	88.323446	-101.145991
00047	1162498	-9.820712	-0.177451	-0.246830				-0.005270	-0.001400	-0.004425				-148.168538	88.323764	-101.117130
00048	1162548	-9.828743	-0.150124	-0.234905				-0.005229	0.001872	0.000501				-148.183590	88.323455	-101.130659
00049	1162598	-9.798045	-0.161609	-0.248514				-0.002130	0.001021	0.000259				-148.205503	88.323634	-101.154267
00050	1162648	-9.815470	-0.134761	-0.257278				-0.003892	-0.000343	-0.004585				-148.166918	88.323050	-101.114539
00051	1162698	-9.805766	-0.171710	-0.250847				-0.003935	0.002348	-0.001907				-148.177510	88.322887	-101.126212
00052	1162748	-9.799594	-0.156062	-0.240080				-0.004721	-0.000091	0.000456				-148.182308	88.322731	-101.129769
00053	1162798	-9.795273	-0.158179	-0.241869				-0.007850	0.003370	-0.004073				-148.180909	88.322756	-101.127980
00054	1162848	-9.807058	-0.157522	-0.262545				-0.003609	-0.000172	-0.002404				-148.161201	88.322441	-101.107226
00055	1162898	-9.805015	-0.158027	-0.244818				-0.002126	-0.001340	-0.002770				-148.145057	88.322778	-101.092797
00056	1162948	-9.818997	-0.168090	-0.236831				-0.002560	-0.001804	-0.003471				-148.107688	88.322740	-101.054655
00057	1162998	-9.832139	-0.144690	-0.237079				-0.000155	0.001243	-0.002335				-148.108153	88.323091	-101.057142
00058	1163048	-9.814417	-0.143581	-0.255190				-0.003645	0.003055	-0.004434				-148.088009	88.321724	-101.035920
00059	1163098	-9.795843	-0.164812	-0.250764				-0.003305	-0.003425	0.000722				-148.090310	88.323511	-101.039406
00060	1163148	-9.822926	-0.141708	-0.230174				-0.004936	0.002015	0.003453				-148.130575	88.323734	-101.078191
00061	1163198	-9.819798	-0.153118	-0.252661				-0.000013	-0.000301	-0.003985				-148.109627	88.323850	-101.059446
00062	1163248	-9.796857	-0.151637	-0.268165				-0.004029	0.002015	-0.003832				-148.089272	88.322944	-101.037856
00063	1163298	-9.807781	-0.166739	-0.242193				-0.005916	0.000688	-0.004733				-148.069053	88.322511	-101.018237
00064	1163348	-9.814566	-0.161852	-0.233562				-0.004857	0.001971	-0.003348				-148.052888	88.321586	-101.000644
00065	1163398	-9.821945	-0.164083	-0.229289				-0.005308	0.003128	-0.001031				-148.075097	88.321620	-101.023393
00066	1163448	-9.821669	-0.164045	-0.234759				-0.005651	0.001992	-0.000141				-148.085698	88.321219	-101.032338
00067	1163498	-9.815021	-0.152755	-0.255751				-0.003318	-0.001169	-0.001960				-148.077777	88.321717	-101.025751
00068	1163548	-9.788547	-0.181987	-0.241556				-0.004962	0.000290	-0.000699				-148.075093	88.321560	-101.021635
00069	1163598	-9.816999	-0.155436	-0.238781				-0.004686	0.000618	-0.003228				-148.065161	88.322108	-101.012345
00070	1163648	-9.787217	-0.178335	-0.232584				-0.002088	0.004836	-0.001646				-148.077395	88.320689	-101.023983
00071	1163698	-9.809195	-0.167397	-0.243851				-0.002056	-0.000730	-0.004110				-148.053087	88.321018	-101.001245
00072	1163748	-9.796998	-0.154613	-0.239007				-0.005032	0.002652	0.000696				-148.073720	88.320595	-101.020395
00073	1163798	-9.808639	-0.170226	-0.250344				-0.003020	0.000782	0.000905				-148.099217	88.321140	-101.047289
00074	1163848	-9.803493	-0.165823	-0.244416				-0.003844	0.001477	-0.000274				-148.105871	88.320720	-101.052851
00075	1163898	-9.830976	-0.137983	-0.245583				-0.005513	-0.001530	-0.001855				-148.097412	88.321950	-101.044821
00076	1163948	-9.816132	-0.149686	-0.235241				-0.003441	0.001968	-0.000657				-148.103014	88.321505	-101.049380
00077	1163998	-9.786953	-0.154215	-0.247092				-0.006057	0.000364	-0.003040				-148.094388	88.321450	-101.041290
00078	1164048	-9.814581	-0.137588	-0.240926				-0.003356	-0.000007	-0.002818				-148.071859	88.321070	-101.017772
00079	1164098	-9.825039	-0.144771	-0.230795				-0.005852	-0.001118	-0.003973				-148.048132	88.321626	-100.994475
00080	1164148	-9.810436	-0.141535	-0.247900				-0.006869	-0.000934	0.002222				-148.063282	88.322489	-101.007529
00081	1164198	-9.808255	-0.163533	-0.249815				-0.007086	-0.000919	-0.005569				-148.027966	88.322052	-100.972596
00082	1164248	-9.808161	-0.164082	-0.263777				-0.002427	0.001344	0.000619				-148.040709	88.322126	-100.984510
00083	1164298	-9.802925	-0.168731	-0.253230				-0.000744	-0.000376	-0.001708				-148.037968	88.322725	-100.983721
00084	1164348	-9.814623	-0.175607	-0.234242				-0.001372	0.000288	-0.000637				-148.034430	88.322474	-100.979824
00085	1164398	-9.822652	-0.159241	-0.239259				-0.001834	0.002639	-0.003220				-148.034931	88.322394	-100.981835
00086	1164448	-9.801340	-0.183490	-0.248933				-0.001474	0.000457	0.001350				-148.048601	88.322568	-100.995050
00087	1164498	-9.806933	-0.174613	-0.247873				-0.002068	-0.001246	-0.003085				-148.030424	88.323053	-100.978487
00088	1164548	-9.814163	-0.155101	-0.234711				-0.002579	-0.000516	-0.006193				-147.977200	88.322142	-100.924540
00089	1164598	-9.808931	-0.165868	-0.250869				0.000515	0.002224	-0.004198				-147.967389	88.321560	-100.917115
00090	1164648	-9.807651	-0.176677	-0.243715				-0.002097	0.002191	0.001357				-147.990472	88.321358	-100.939550
00091	1164698	-9.812493	-0.152713	-0.240228				-0.004494	0.000748	-0.001016				-148.000478	88.321926	-100.950415
00092	1164748	-9.812801	-0.165439	-0.241944				-0.003301	0.001681	0.000242				-148.012149	88.321663	-100.961098
00093	1164798	-9.822000	-0.164669	-0.257641				-0.004510	-0.002030	-0.001285				-148.005244	88.322529	-100.955131
00094	1164848	-9.841922	-0.142415	-0.237704				-0.003637	-0.001077	-0.001828				-147.985268	88.322500	-100.934112
00095	1164898	-9.798096	-0.167458	-0.228337				-0.001933	0.000665	-0.001924				-147.986799	88.323038	-100.937168
00096	1164948	-9.808859	-0.154333	-0.246557				-0.003594	0.000805	0.001545				-148.005060	88.323037	-100.954416
00097	1164998	-9.795982	-0.156208	-0.246019				-0.002706	-0.002320	-0.001358				-147.995212	88.324632	-100.945753
00098	1165048	-9.824782	-0.116842	-0.251224				-0.001933	-0.000205	-0.001156				-147.985022	88.324105	-100.935185
00099	1165098	-9.825950	-0.134575	-0.257403				-0.004597	0.000715	-0.002456				-147.982574	88.324701	-100.933418
00100	1165148	-9.801692	-0.135798	-0.249574				-0.001687	-0.000711	0.001694				-147.993539	88.324975	-100.943976
00101	1165198	-9.798479	-0.146214	-0.246754				-0.004870	-0.003449	0.002490				-148.011254	88.327170	-100.962371
00102	1165248	-9.802760	-0.147752	-0.244451				-0.003365	0.001611	-0.000694				-148.014952	88.326567	-100.965149
00103	1165298	-9.818990	-0.155032	-0.263703				-0.005399	0.000961	-0.001299				-148.023573	88.327044	-100.974336
00104	1165348	-9.825897	-0.164900	-0.243315				-0.004759	0.000975	-0.001363				-148.018480	88.326970	-100.967712
00105	1165398	-9.805316	-0.172143	-0.245293				-0.005212	-0.000805	0.001607				-148.042591	88.327978	-100.992594
00106	1165448	-9.817715	-0.167487	-0.250995				-0.003621	-0.000294	0.001542				-148.054765	88.328482	-101.003649
00107	1165498	-9.797316	-0.160638	-0.252596				-0.001661	0.002055	-0.004548				-148.041594	88.327803	-100.992286
00108	1165548	-9.809425	-0.172925	-0.233109				-0.002695	0.001528	-0.001110				-148.040819	88.327317	-100.990717
00109	1165598	-9.808232	-0.173582	-0.231839				-0.002272	-0.001660	0.000411				-148.049675	88.328611	-101.001070
00110	1165648	-9.798780	-0.160221	-0.249246				-0.000753	0.002949	-0.002199				-148.046874	88.327391	-100.998128
00111	1165698	-9.816188	-0.170331	-0.222530				-0.003757	0.001705	-0.001651				-148.056498	88.327604	-101.008800
00112	1165748	-9.825494	-0.146538	-0.229989				-0.002871	0.004470	0.001246				-148.090714	88.326729	-101.042203
00113	1165798	-9.817593	-0.166102	-0.235404				-0.004590	0.000655	-0.000951				-148.100729	88.327492	-101.052935
00114	1165848	-9.827682	-0.155965	-0.241837				-0.002669	-0.000317	-0.000934				-148.091892	88.327549	-101.043278
00115	1165898	-9.807108	-0.160337	-0.248846				-0.002815	-0.002000	-0.002320				-148.076409	88.328343	-101.029185
00116	1165948	-9.797613	-0.167218	-0.229607				-0.005112	0.000866	-0.003775				-148.051102	88.327533	-101.002419
00117	1165998	-9.810518	-0.140236	-0.237843				-0.006535	0.000691	0.001655				-148.083477	88.328636	-101.034983
00118	1166048	-9.801644	-0.156051	-0.254424				-0.008748	-0.001224	0.003380				-148.107714	88.329344	-101.056764
00119	1166098	-9.799341	-0.147942	-0.258401				-0.005894	-0.004799	-0.001010				-148.089527	88.330959	-101.039125
00120	1166148	-9.812539	-0.152511	-0.233358				-0.003464	0.001774	0.000013				-148.099666	88.330658	-101.048223
00121	1166198	-9.827415	-0.135704	-0.248917				-0.002492	0.003275	-0.002706				-148.108599	88.330019	-101.058698
00122	1166248	-9.814813	-0.163964	-0.267033				-0.004610	-0.003001	-0.003310				-148.066647	88.330135	-101.015453
00123	1166298	-9.807671	-0.164028	-0.226694				-0.003730	0.003831	-0.003312				-148.072905	88.329958	-101.022566
00124	1166348	-9.811993	-0.162949	-0.223971				-0.001548	-0.001527	-0.003503				-148.036346	88.329859	-100.985521
00125	1166398	-9.810268	-0.159862	-0.238707				-0.006264	0.005051	-0.003426				-148.049292	88.328591	-100.998977
00126	1166448	-9.788801	-0.178457	-0.246427				-0.003269	0.001255	-0.002942				-148.032130	88.327836	-100.980877
00127	1166498	-9.810157	-0.185116	-0.244579				-0.005834	0.001438	-0.002292				-148.035543	88.328063	-100.984723
00128	1166548	-9.808730	-0.167838	-0.241285				-0.003840	0.002214	-0.003702				-148.017530	88.326786	-100.965677
00129	1166598	-9.792699	-0.172603	-0.242283				-0.005328	0.000770	-0.000759				-148.029628	88.327766	-100.978189
00130	1166648	-9.800643	-0.163792	-0.246257				-0.002607	-0.002118	0.001305				-148.030077	88.328650	-100.977812
00131	1166698	-9.813766	-0.179336	-0.249308				-0.003295	0.000519	0.001100				-148.056170	88.329389	-101.005172
00132	1166748	-9.820095	-0.168170	-0.250222				-0.005791	-0.001524	0.002441				-148.070366	88.330235	-101.017667
00133	1166798	-9.795543	-0.172819	-0.244993				-0.000456	0.003798	-0.000849				-148.096413	88.329608	-101.045898
00134	1166848	-9.806536	-0.167443	-0.249858				-0.003785	0.000504	-0.000858				-148.092952	88.329467	-101.041298
00135	1166898	-9.814655	-0.165785	-0.248458				-0.001109	0.001242	0.002155				-148.130837	88.330150	-101.081115
00136	1166948	-9.814932	-0.164756	-0.245037				-0.003818	0.000572	-0.001051				-148.125774	88.329900	-101.074936
00137	1166998	-9.791837	-0.151124	-0.233919				-0.002474	0.000691	-0.001986				-148.127034	88.330204	-101.077655
00138	1167048	-9.803532	-0.164224	-0.241559				-0.002676	0.002048	-0.001206				-148.128141	88.329549	-101.077988
00139	1167098	-9.803137	-0.152843	-0.251152				-0.006526	0.002337	0.000444				-148.159086	88.330044	-101.109143
00140	1167148	-9.816570	-0.147665	-0.245081				-0.004027	0.001183	0.000464				-148.170070	88.330072	-101.118868
00141	1167198	-9.808624	-0.158221	-0.239122				-0.004161	0.003178	-0.004083				-148.166768	88.329157	-101.116686
00142	1167248	-9.829654	-0.153996	-0.235238				-0.004177	0.005758	-0.005702				-148.150091	88.327021	-101.098746
00143	1167298	-9.805367	-0.134140	-0.235596				-0.001940	0.002220	-0.000501				-148.171472	88.327130	-101.121767
00144	1167348	-9.795929	-0.165558	-0.235046				-0.004856	0.000376	-0.008330				-148.105570	88.325767	-101.054455
00145	1167398	-9.794140	-0.151374	-0.245636				-0.005089	-0.000580	0.001834				-148.131945	88.327314	-101.081386
00146	1167448	-9.802306	-0.152454	-0.231709				-0.007670	0.002056	-0.000134				-148.143555	88.326768	-101.090815
00147	1167498	-9.797929	-0.172066	-0.246135				-0.003767	0.002357	0.001718				-148.184615	88.327173	-101.133004
00148	1167548	-9.788658	-0.186497	-0.252338				-0.000240	0.001387	0.003786				-148.223576	88.327376	-101.171924
00149	1167598	-9.810126	-0.166854	-0.248165				-0.002505	0.000332	-0.003719				-148.207925	88.327257	-101.157826
00150	1167648	-9.814731	-0.163428	-0.241687				-0.001807	-0.000370	-0.003498				-148.177236	88.326818	-101.126610
00151	1167698	-9.816826	-0.177862	-0.258263				-0.004255	0.001377	0.000561				-148.203702	88.327795	-101.153845
00152	1167748	-9.811421	-0.178634	-0.245361				-0.000361	0.002965	0.001392				-148.230502	88.327331	-101.180530
00153	1167798	-9.814546	-0.160450	-0.238902				-0.001734	-0.004137	0.004053				-148.256766	88.329863	-101.208410
00154	1167848	-9.813825	-0.154743	-0.251763				-0.002453	0.000849	-0.001826				-148.246592	88.329421	-101.197517
00155	1167898	-9.800653	-0.170403	-0.232483				-0.005142	0.003136	-0.000390				-148.273686	88.329768	-101.225176
00156	1167948	-9.801854	-0.154005	-0.224910				-0.003631	-0.001337	-0.002217				-148.249099	88.329896	-101.199481
00157	1167998	-9.808252	-0.159480	-0.257228				-0.002857	-0.001386	-0.000521				-148.252288	88.330367	-101.204275
00158	1168048	-9.798592	-0.159928	-0.240290				-0.006394	-0.002293	-0.003243				-148.215346	88.330640	-101.165396
00159	1168098	-9.824969	-0.148163	-0.233247				-0.006656	0.001328	-0.000232				-148.235297	88.331018	-101.185653
00160	1168148	-9.817769	-0.164668	-0.247918				-0.002170	0.000472	0.001735				-148.252833	88.331201	-101.202561
00161	1168198	-9.824143	-0.148167	-0.253188				-0.005586	0.001699	-0.002643				-148.254484	88.331197	-101.204745
00162	1168248	-9.826991	-0.145599	-0.258710				-0.004028	0.002646	0.003424				-148.297676	88.331289	-101.246700
00163	1168298	-9.812391	-0.141028	-0.241724				-0.003334	0.001710	-0.000244				-148.318751	88.331417	-101.269120
00164	1168348	-9.812875	-0.160791	-0.239318				-0.004750	0.001650	-0.001555				-148.315578	88.330844	-101.264556
00165	1168398	-9.803070	-0.153568	-0.222429				-0.003707	0.004321	-0.002026				-148.335847	88.329957	-101.286073
00166	1168448	-9.805731	-0.163677	-0.233543				-0.002418	-0.000443	-0.003849				-148.301846	88.329706	-101.251271
00167	1168498	-9.811207	-0.150483	-0.260148				-0.001635	-0.000652	-0.000999				-148.304009	88.330545	-101.255092
00168	1168548	-9.804455	-0.179663	-0.253496				-0.004838	0.002428	-0.001132				-148.308598	88.329900	-101.258240
00169	1168598	-9.812788	-0.170695	-0.233779				-0.001914	-0.000113	-0.004361				-148.284975	88.330103	-101.236202
00170	1168648	-9.823327	-0.147297	-0.231870				-0.001497	0.001094	-0.001821				-148.275887	88.329298	-101.226798
00171	1168698	-9.816496	-0.163205	-0.225340				-0.006371	0.000103	-0.002840				-148.267680	88.329622	-101.218935
00172	1168748	-9.803148	-0.175724	-0.241405				-0.003333	-0.002356	0.002913				-148.281009	88.330586	-101.231335
00173	1168798	-9.783481	-0.178692	-0.259237				-0.003208	-0.001818	-0.004085				-148.251508	88.331805	-101.202781
00174	1168848	-9.818572	-0.148933	-0.227849				0.001393	0.003114	-0.002237				-148.248380	88.330875	-101.199979
00175	1168898	-9.791919	-0.164188	-0.232412				-0.002956	-0.000387	-0.001989				-148.243771	88.331338	-101.196709
00176	1168948	-9.815343	-0.154888	-0.236128				-0.003296	-0.001810	-0.000391				-148.232247	88.331613	-101.184281
00177	1168998	-9.807523	-0.149279	-0.241976				-0.003975	0.000474	-0.001243				-148.238594	88.332058	-101.191644
00178	1169048	-9.805285	-0.149821	-0.256084				-0.002570	-0.001547	-0.002447				-148.211092	88.332028	-101.163406
00179	1169098	-9.817813	-0.157166	-0.256520				-0.005081	0.000197	0.001360				-148.238157	88.333337	-101.191038
00180	1169148	-9.806167	-0.167180	-0.232307				-0.002446	-0.002251	-0.000971				-148.218874	88.333810	-101.171017
00181	1169198	-9.807087	-0.137804	-0.219952				-0.004625	0.001913	-0.001168				-148.233208	88.334155	-101.186091
00182	1169248	-9.795297	-0.151826	-0.250182				-0.004296	0.000565	0.000039				-148.237711	88.334188	-101.189291
00183	1169298	-9.784269	-0.154670	-0.256428				-0.011047	0.000117	-0.001772				-148.240461	88.333905	-101.191400
00184	1169348	-9.818747	-0.154084	-0.226995				-0.004179	-0.000919	0.000867				-148.244251	88.334307	-101.193968
00185	1169398	-9.799040	-0.173129	-0.257317				-0.002132	-0.001153	-0.002346				-148.232226	88.335430	-101.183324
00186	1169448	-9.807771	-0.150512	-0.238855				-0.003246	0.000971	-0.000345				-148.235271	88.335411	-101.185317
00187	1169498	-9.805613	-0.146543	-0.248949				0.000036	0.001320	-0.000799				-148.249252	88.335091	-101.201763
00188	1169548	-9.806974	-0.156437	-0.240178				-0.004520	-0.002547	-0.001485				-148.224731	88.335501	-101.175926
00189	1169598	-9.812061	-0.167369	-0.242702				-0.003665	0.001867	-0.001750				-148.233910	88.336109	-101.185998
00190	1169648	-9.804319	-0.143727	-0.232958				-0.001901	0.002763	-0.002427				-148.228278	88.334921	-101.179884
00191	1169698	-9.807763	-0.170024	-0.239139				-0.004459	0.003529	-0.003535				-148.231915	88.334064	-101.184524
00192	1169748	-9.808655	-0.167642	-0.253711				-0.002090	0.001664	-0.001787				-148.225826	88.333638	-101.177724
00193	1169798	-9.805560	-0.167119	-0.254013				-0.001473	0.002484	-0.001918				-148.236444	88.333839	-101.189938
00194	1169848	-9.813848	-0.180555	-0.233940				-0.002252	-0.003407	-0.000434				-148.215642	88.334927	-101.168337
00195	1169898	-9.807230	-0.168062	-0.213683				-0.004489	0.000332	-0.003363				-148.204021	88.334594	-101.157808
00196	1169948	-9.812462	-0.152572	-0.245530				-0.003123	-0.000251	-0.000451				-148.199758	88.334589	-101.152647
00197	1169998	-9.799278	-0.165935	-0.232872				-0.001288	-0.000513	-0.001998				-148.194081	88.335137	-101.148790
00198	1170048	-9.816092	-0.151272	-0.238936				-0.001726	-0.002711	0.000465				-148.184600	88.335705	-101.138883
00199	1170098	-9.820097	-0.144101	-0.221817				-0.002281	0.001534	-0.003585				-148.176743	88.335853	-101.132390
00200	1170148	-9.831808	-0.126184	-0.250070				-0.004566	0.001048	-0.000758				-148.177159	88.335356	-101.131554
00201	1170198	-9.804381	-0.129627	-0.249907				-0.003228	0.001201	0.000107				-148.198457	88.336082	-101.154016
00202	1170248	-9.805286	-0.154794	-0.246812				-0.002142	0.001645	0.001419				-148.219448	88.335999	-101.174357
00203	1170298	-9.817383	-0.135762	-0.254385				-0.002865	0.000685	-0.002305				-148.218168	88.336196	-101.174432
00204	1170348	-9.806377	-0.143294	-0.247891				-0.004634	-0.001091	-0.002179				-148.195392	88.336249	-101.150266
00205	1170398	-9.783965	-0.141983	-0.254733				-0.002673	-0.002415	-0.003032				-148.171091	88.337337	-101.127281
00206	1170448	-9.812651	-0.136888	-0.247429				-0.004755	0.000015	-0.000022				-148.172454	88.337072	-101.127396
00207	1170498	-9.805686	-0.165529	-0.237358				-0.001251	0.000199	-0.002793				-148.163820	88.337743	-101.120397
00208	1170548	-9.812602	-0.158904	-0.248411				-0.001293	0.000916	0.000674				-148.174237	88.337875	-101.130337
00209	1170598	-9.790425	-0.167920	-0.234934				-0.003218	0.001881	-0.000922				-148.191066	88.337542	-101.148644
00210	1170648	-9.803476	-0.169957	-0.237815				-0.002754	-0.002737	-0.000689				-148.171945	88.338000	-101.128772
00211	1170698	-9.773912	-0.169656	-0.245749				-0.003073	0.001466	0.000969				-148.201253	88.338790	-101.159283
00212	1170748	-9.803123	-0.157782	-0.242961				-0.004591	0.001661	-0.002165				-148.192883	88.338142	-101.149562
00213	1170798	-9.815797	-0.167575	-0.254215				-0.000530	0.003799	-0.004666				-148.187429	88.336883	-101.146290
00214	1170848	-9.797082	-0.178664	-0.253896				-0.006768	-0.001807	-0.003302				-148.152367	88.336743	-101.109313
00215	1170898	-9.801442	-0.161102	-0.239537				-0.006273	-0.000987	-0.002272				-148.142942	88.338039	-101.099956
00216	1170948	-9.791428	-0.159281	-0.244854				-0.004611	-0.000959	-0.002437				-148.118848	88.338105	-101.074439
00217	1170998	-9.825247	-0.151747	-0.220294				-0.003342	-0.000126	0.000259				-148.134278	88.338774	-101.091197
00218	1171048	-9.815942	-0.149016	-0.228753				-0.002482	0.001629	-0.005541				-148.096806	88.337614	-101.052971
00219	1171098	-9.815073	-0.156801	-0.238769				-0.001725	0.000091	-0.002246				-148.092551	88.337876	-101.050450
00220	1171148	-9.800743	-0.164868	-0.228788				-0.002868	-0.001481	-0.003860				-148.053236	88.337642	-101.010300
00221	1171198	-9.805618	-0.149748	-0.241252				-0.005782	0.000894	-0.002010				-148.056101	88.337893	-101.013673
00222	1171248	-9.824094	-0.141089	-0.237127				-0.002944	0.003137	-0.004311				-148.037090	88.336370	-100.993859
00223	1171298	-9.819324	-0.138946	-0.241486				-0.006882	0.002566	0.000669				-148.071164	88.336963	-101.027984
00224	1171348	-9.804230	-0.153919	-0.264531				0.000974	0.001885	-0.003047				-148.054999	88.336071	-101.012080
00225	1171398	-9.793013	-0.166389	-0.243933				-0.004211	-0.000270	-0.001539				-148.055217	88.336647	-101.013246
00226	1171448	-9.812479	-0.134691	-0.240746				-0.004370	-0.000111	-0.001407				-148.044323	88.336337	-101.001149
00227	1171498	-9.813365	-0.158939	-0.241215				-0.006343	0.002140	-0.004338				-148.034278	88.336488	-100.991201
00228	1171548	-9.824137	-0.150403	-0.249285				-0.002733	0.000298	-0.004742				-147.996910	88.335744	-100.953010
00229	1171598	-9.790674	-0.160614	-0.247630				-0.003155	0.003078	0.000209				-148.029312	88.335358	-100.986883
00230	1171648	-9.784867	-0.156211	-0.233617				-0.007491	-0.003011	-0.001384				-148.004206	88.335807	-100.959653
00231	1171698	-9.806461	-0.163181	-0.230726				-0.004019	0.000896	-0.000314				-148.020212	88.336418	-100.976657
00232	1171748	-9.800439	-0.166687	-0.236208				0.000102	-0.001038	-0.003960				-147.981882	88.335890	-100.938417
00233	1171798	-9.809969	-0.170927	-0.226393				-0.002107	0.002219	-0.002300				-147.988107	88.335989	-100.946128
00234	1171848	-9.803102	-0.176234	-0.248856				-0.003979	-0.001923	-0.004595				-147.941030	88.335649	-100.897939
00235	1171898	-9.827248	-0.167683	-0.250183				-0.005293	-0.002749	-0.003312				-147.912985	88.336975	-100.870363
00236	1171948	-9.819033	-0.152245	-0.262735				-0.002741	-0.001186	-0.002318				-147.887906	88.337205	-100.844358
00237	1171998	-9.822633	-0.157156	-0.247126				-0.001472	-0.000640	0.000510				-147.902843	88.337790	-100.861229
00238	1172048	-9.801090	-0.166158	-0.247718				-0.002138	0.000353	0.000899				-147.912717	88.337855	-100.870487
00239	1172098	-9.822527	-0.150071	-0.240317				-0.003589	0.004289	-0.004019				-147.915809	88.337340	-100.874565
00240	1172148	-9.806338	-0.162110	-0.253909				-0.003675	0.000159	0.000326				-147.920667	88.337200	-100.878435
00241	1172198	-9.819071	-0.144092	-0.233581				0.000715	0.001179	-0.000130				-147.938740	88.337584	-100.898918
00242	1172248	-9.806468	-0.138217	-0.243203				-0.004020	0.001631	-0.005248				-147.904681	88.336338	-100.863715
00243	1172298	-9.814743	-0.159057	-0.249268				-0.006482	-0.003678	-0.003987				-147.867074	88.337701	-100.826275
00244	1172348	-9.815200	-0.143179	-0.245293				-0.000775	0.000633	-0.000674				-147.865093	88.337465	-100.824064
00245	1172398	-9.807528	-0.153565	-0.233119				-0.004883	0.001647	-0.003834				-147.855979	88.336867	-100.815844
00246	1172448	-9.830709	-0.150272	-0.226338				-0.004935	0.002728	-0.000299				-147.869104	88.336242	-100.827524
00247	1172498	-9.825204	-0.144971	-0.240166				-0.002177	-0.000487	0.001059				-147.889450	88.337388	-100.849376
00248	1172548	-9.804743	-0.140072	-0.248174				-0.003169	-0.000734	-0.000226				-147.884660	88.337689	-100.843602
00249	1172598	-9.806074	-0.151594	-0.240990				-0.005800	-0.000226	0.003055				-147.923953	88.339010	-100.883407
00250	1172648	-9.795385	-0.155242	-0.228847				-0.002713	0.002149	-0.001110				-147.926583	88.338322	-100.885258
00251	1172698	-9.814169	-0.156976	-0.231150				-0.001042	0.000718	-0.004234				-147.908652	88.337971	-100.869312
00252	1172748	-9.800115	-0.169339	-0.244605				-0.003630	0.000512	-0.002725				-147.889608	88.337674	-100.849106
00253	1172798	-9.801746	-0.169037	-0.250834				-0.005318	0.000094	-0.002815				-147.880820	88.338169	-100.840883
00254	1172848	-9.797976	-0.189204	-0.242222				-0.005153	0.000168	0.000039				-147.883274	88.338100	-100.841880
00255	1172898	-9.817192	-0.169839	-0.254615				-0.004156	0.000148	-0.000446				-147.895250	88.339003	-100.854723
00256	1172948	-9.809291	-0.159710	-0.243105				0.001626	-0.002398	0.000041				-147.882357	88.339777	-100.842211
00257	1172998	-9.809409	-0.151325	-0.240719				-0.003176	-0.000778	-0.003499				-147.862568	88.340369	-100.823603
00258	1173048	-9.824357	-0.159820	-0.231643				-0.003193	0.001138	-0.000858				-147.862194	88.340090	-100.822256
00259	1173098	-9.790456	-0.164806	-0.236339				-0.001899	0.001839	0.000487				-147.890195	88.339973	-100.852119
00260	1173148	-9.811275	-0.173273	-0.242176				-0.001314	0.001495	-0.000732				-147.892182	88.339653	-100.853666
00261	1173198	-9.801362	-0.165964	-0.241763				-0.004249	0.001415	0.001647				-147.927898	88.340615	-100.890215
00262	1173248	-9.806049	-0.170567	-0.245564				-0.006581	-0.000343	-0.001661				-147.913852	88.340417	-100.874292
00263	1173298	-9.781112	-0.187681	-0.237067				-0.002710	0.000956	-0.000415				-147.929358	88.340784	-100.891251
00264	1173348	-9.813941	-0.157260	-0.227862				-0.003888	0.001638	-0.002877				-147.915175	88.339948	-100.875945
00265	1173398	-9.818423	-0.158628	-0.231369				-0.005882	-0.000204	-0.001725				-147.914742	88.340412	-100.876033
00266	1173448	-9.801687	-0.140377	-0.241315				-0.008348	0.001210	0.000724				-147.929478	88.340193	-100.888398
00267	1173498	-9.791059	-0.140294	-0.227749				-0.007509	0.002838	-0.001033				-147.951211	88.340292	-100.910079
00268	1173548	-9.798869	-0.148231	-0.257370				-0.002895	0.000786	-0.001663				-147.942201	88.339729	-100.900286
00269	1173598	-9.803665	-0.156004	-0.237450				-0.002055	0.001383	-0.003586				-147.932726	88.340022	-100.892215
00270	1173648	-9.809087	-0.155656	-0.245976				-0.007591	-0.001557	-0.000509				-147.922351	88.340477	-100.879598
00271	1173698	-9.836012	-0.133691	-0.250690				-0.002012	0.001120	-0.003682				-147.911673	88.340377	-100.870516
00272	1173748	-9.805216	-0.168382	-0.229693				-0.002737	-0.001018	0.000315				-147.909521	88.340658	-100.867590
00273	1173798	-9.821393	-0.149132	-0.233975				-0.003228	0.000168	-0.001989				-147.907899	88.341109	-100.867196
00274	1173848	-9.818205	-0.171491	-0.242197				-0.001179	0.003074	-0.003514				-147.895083	88.339683	-100.854100
00275	1173898	-9.813745	-0.167631	-0.238176				-0.003954	0.002065	0.000910				-147.927716	88.340453	-100.887643
00276	1173948	-9.811859	-0.170711	-0.230460				-0.002849	0.003174	-0.003991				-147.911890	88.338847	-100.871093
00277	1173998	-9.802445	-0.152971	-0.247051				-0.005330	0.001546	-0.003417				-147.906470	88.338900	-100.866238
00278	1174048	-9.827518	-0.156807	-0.267282				-0.002510	0.002665	-0.002453				-147.900786	88.337925	-100.859812
00279	1174098	-9.821024	-0.173615	-0.243318				-0.003795	0.000867	-0.000472				-147.915229	88.338337	-100.875372
00280	1174148	-9.812905	-0.170065	-0.254643				-0.002196	0.000761	-0.002979				-147.895005	88.337442	-100.854625
00281	1174198	-9.811093	-0.160939	-0.257594				-0.000639	0.003479	-0.001270				-147.915519	88.337492	-100.876979
00282	1174248	-9.806553	-0.155379	-0.232345				-0.005770	-0.001595	-0.001896				-147.892722	88.337658	-100.852487
00283	1174298	-9.793880	-0.160304	-0.230811				-0.004290	0.000675	0.002669				-147.932949	88.339240	-100.893422
00284	1174348	-9.792633	-0.142017	-0.239151				-0.005992	-0.002661	-0.001293				-147.909787	88.339615	-100.868566
00285	1174398	-9.821108	-0.145588	-0.248040				-0.002047	0.005357	-0.002506				-147.930872	88.338624	-100.891258
00286	1174448	-9.801223	-0.151357	-0.256088				-0.004786	-0.002410	-0.000811				-147.912990	88.339199	-100.871948
00287	1174498	-9.780130	-0.168881	-0.241378				-0.008032	0.002088	-0.000392				-147.935905	88.339393	-100.894745
00288	1174548	-9.798780	-0.161899	-0.244615				-0.007281	-0.000352	0.000009				-147.936202	88.339643	-100.892883
00289	1174598	-9.781356	-0.162834	-0.249340				-0.002729	0.003897	0.001301				-147.981319	88.339483	-100.939488
00290	1174648	-9.835724	-0.145752	-0.233122				-0.006697	-0.001770	-0.001889				-147.958122	88.339720	-100.914325
00291	1174698	-9.812149	-0.140490	-0.244774				-0.003307	-0.002517	-0.001040				-147.950350	88.340901	-100.907790
00292	1174748	-9.806580	-0.146837	-0.244672				-0.004897	0.002465	0.000694				-147.970640	88.340366	-100.926700
00293	1174798	-9.814512	-0.160148	-0.245317				-0.003666	0.001135	0.001931				-148.007090	88.340868	-100.964410
00294	1174848	-9.816880	-0.159291	-0.249292				-0.005989	0.000017	-0.003070				-147.982883	88.340499	-100.938436
00295	1174898	-9.808372	-0.161341	-0.234548				-0.001964	0.000575	-0.001958				-147.982945	88.341140	-100.939974
00296	1174948	-9.809127	-0.150142	-0.250805				-0.002364	-0.000952	-0.002987				-147.953606	88.340691	-100.910044
00297	1174998	-9.797778	-0.168220	-0.239160				-0.003932	0.002187	-0.001334				-147.968814	88.340556	-100.926377
00298	1175048	-9.812295	-0.175120	-0.265909				-0.001238	0.001942	-0.003202				-147.952840	88.339587	-100.910038
00299	1175098	-9.810431	-0.167440	-0.234901				-0.005011	0.004110	0.000320				-147.990992	88.339820	-100.948784
00300	1175148	-9.815008	-0.152325	-0.218636				-0.001543	0.000585	-0.000419				-147.991145	88.339562	-100.948509
00301	1175198	-9.804349	-0.141751	-0.231438				-0.003058	0.000013	0.001090				-148.014330	88.340656	-100.972931
00302	1175248	-9.831817	-0.169797	-0.238726				-0.001001	0.000721	-0.001182				-148.008301	88.340283	-100.966620
00303	1175298	-9.820059	-0.155028	-0.244055				-0.005315	0.000588	0.002578				-148.048001	88.341488	-101.006912
00304	1175348	-9.802084	-0.164817	-0.243137				-0.006570	-0.002506	0.001312				-148.047716	88.342324	-101.004734
00305	1175398	-9.796940	-0.176882	-0.242168				-0.007213	-0.001488	-0.000444				-148.051633	88.343384	-101.008750
00306	1175448	-9.830225	-0.146376	-0.235429				-0.002066	0.002868	-0.003003				-148.042074	88.342430	-100.998509
00307	1175498	-9.811746	-0.140521	-0.231390				-0.004882	-0.000350	-0.003042				-148.029884	88.342311	-100.987307
00308	1175548	-9.804530	-0.153533	-0.255314				-0.005640	-0.001687	-0.000771				-148.016267	88.342651	-100.972044
00309	1175598	-9.820091	-0.149167	-0.250578				-0.006475	0.001400	-0.002228				-148.019939	88.342942	-100.975935
00310	1175648	-9.808702	-0.142890	-0.256805				-0.005505	-0.001907	-0.001670				-147.997364	88.343204	-100.951754
00311	1175698	-9.818723	-0.139551	-0.221534				-0.006370	0.001177	-0.002000				-148.002027	88.343395	-100.956763
00312	1175748	-9.796591	-0.169623	-0.236271				-0.003717	0.001387	-0.001115				-148.000782	88.342826	-100.954479
00313	1175798	-9.815434	-0.151545	-0.229242				-0.002823	0.000297	-0.003687				-147.985723	88.343271	-100.940659
00314	1175848	-9.796084	-0.176768	-0.226868				-0.002403	-0.000961	-0.005525				-147.934991	88.342406	-100.889331
00315	1175898	-9.805382	-0.148092	-0.245115				-0.007442	0.000539	-0.003967				-147.920210	88.342510	-100.874558
00316	1175948	-9.800722	-0.161800	-0.238653				-0.001825	0.001419	-0.001407				-147.916335	88.341972	-100.870146
00317	1175998	-9.820272	-0.161188	-0.235872				-0.003541	-0.000066	-0.001186				-147.920158	88.342357	-100.875227
00318	1176048	-9.828889	-0.155716	-0.239432				-0.004682	0.000793	0.000525				-147.930039	88.342082	-100.883841
00319	1176098	-9.799407	-0.171480	-0.239311				-0.007696	-0.000327	-0.000566				-147.938917	88.343681	-100.892303
00320	1176148	-9.804543	-0.181843	-0.235029				-0.003614	0.001191	-0.000955				-147.938503	88.343236	-100.890853
00321	1176198	-9.816464	-0.155487	-0.246552				-0.003737	0.003131	0.000052				-147.969121	88.343605	-100.922438
00322	1176248	-9.820214	-0.152376	-0.224399				-0.003911	0.000181	-0.004196				-147.936113	88.342861	-100.888322
00323	1176298	-9.829635	-0.137601	-0.232673				-0.004346	-0.001922	-0.000872				-147.933307	88.343604	-100.886611
00324	1176348	-9.807036	-0.164846	-0.252560				-0.005070	0.003588	-0.003599				-147.923185	88.342123	-100.875060
00325	1176398	-9.799133	-0.147775	-0.253936				-0.004596	0.000148	0.001323				-147.949731	88.343050	-100.902483
00326	1176448	-9.812287	-0.154141	-0.230817				-0.000913	-0.002915	0.002449				-147.955116	88.344048	-100.907646
00327	1176498	-9.816775	-0.161478	-0.222233				-0.001466	-0.000573	0.002177				-147.984718	88.345510	-100.938898
00328	1176548	-9.809472	-0.164009	-0.243946				-0.003772	0.002258	-0.001621				-147.983974	88.344775	-100.937047
00329	1176598	-9.795855	-0.149945	-0.240582				-0.005065	0.000226	-0.002878				-147.975152	88.345097	-100.928910
00330	1176648	-9.797376	-0.165667	-0.233338				-0.004669	-0.001124	-0.003144				-147.944461	88.344906	-100.896860
00331	1176698	-9.810264	-0.159851	-0.239717				-0.007457	-0.002208	-0.004330				-147.911213	88.346453	-100.863233
00332	1176748	-9.815296	-0.160709	-0.233013				-0.002097	-0.000239	-0.002154				-147.892426	88.346360	-100.843758
00333	1176798	-9.799790	-0.133755	-0.253458				-0.007689	-0.001459	0.001318				-147.911867	88.346506	-100.863667
00334	1176848	-9.794322	-0.157590	-0.242510				-0.006130	0.000729	-0.000405				-147.914280	88.346074	-100.864408
00335	1176898	-9.800198	-0.145432	-0.240395				-0.002908	0.002241	-0.001047				-147.931111	88.346331	-100.882530
00336	1176948	-9.816259	-0.158495	-0.235726				-0.003261	0.002264	-0.000564				-147.939047	88.345614	-100.889574
00337	1176998	-9.804479	-0.162053	-0.246807				-0.004206	0.002436	-0.005018				-147.924530	88.345316	-100.875912
00338	1177048	-9.814900	-0.169818	-0.240550				-0.004337	0.002929	0.000211				-147.942942	88.344461	-100.893165
00339	1177098	-9.802019	-0.170814	-0.241278				-0.001926	-0.000687	-0.001580				-147.939566	88.345447	-100.891322
00340	1177148	-9.810465	-0.165644	-0.233871				-0.002180	0.004511	-0.003347				-147.935855	88.343901	-100.886956
00341	1177198	-9.812888	-0.168673	-0.260179				-0.005598	0.001426	0.001330				-147.969142	88.344668	-100.920766
00342	1177248	-9.810847	-0.169636	-0.241256				-0.001646	0.001242	0.003371				-148.004624	88.344875	-100.955796
00343	1177298	-9.812439	-0.165922	-0.261624				-0.006215	0.001211	-0.002551				-148.004748	88.344860	-100.956353
00344	1177348	-9.798695	-0.169044	-0.243568				-0.004075	0.004942	0.000608				-148.036772	88.343676	-100.987254
00345	1177398	-9.815030	-0.163401	-0.233053				-0.002971	0.001372	0.001036				-148.066596	88.344524	-101.018295
00346	1177448	-9.812994	-0.151764	-0.238045				-0.004413	-0.001661	0.001407				-148.070906	88.345279	-101.021279
00347	1177498	-9.809505	-0.163368	-0.239522				-0.005674	0.000445	-0.001883				-148.072241	88.345948	-101.023040
00348	1177548	-9.810663	-0.136348	-0.221091				-0.002073	-0.000846	-0.000359				-148.065080	88.346055	-101.015306
00349	1177598	-9.817789	-0.163975	-0.247016				-0.001769	0.003942	-0.000621				-148.095068	88.345797	-101.046941
00350	1177648	-9.818070	-0.161056	-0.246737				-0.004141	-0.000599	-0.004395				-148.056179	88.345048	-101.006952
00351	1177698	-9.813842	-0.146264	-0.228091				-0.008491	0.001428	-0.003378				-148.051283	88.344854	-101.001813
00352	1177748	-9.805235	-0.162362	-0.239850				-0.003467	0.002581	-0.003451				-148.036682	88.343644	-100.986242
00353	1177798	-9.791628	-0.165059	-0.239661				-0.004055	0.000796	-0.001986				-148.038118	88.344448	-100.988446
00354	1177848	-9.813467	-0.152790	-0.237468				-0.003177	0.003691	-0.001263				-148.047915	88.343324	-100.997352
00355	1177898	-9.810368	-0.147822	-0.247618				-0.003716	-0.001724	-0.001898				-148.037501	88.343669	-100.988286
00356	1177948	-9.812865	-0.159193	-0.243629				-0.004262	0.001981	-0.006431				-147.995016	88.342309	-100.944517
00357	1177998	-9.806732	-0.149835	-0.252703				-0.004453	-0.001634	-0.000805				-147.993909	88.343583	-100.944197
00358	1178048	-9.804327	-0.175300	-0.243381				-0.005493	-0.002167	0.000541				-147.988812	88.344285	-100.937482
00359	1178098	-9.812543	-0.171843	-0.232831				-0.002262	0.000793	-0.003815				-147.974247	88.344377	-100.924386
00360	1178148	-9.801031	-0.170722	-0.246896				-0.001226	0.004924	0.000149				-148.001827	88.343275	-100.951592
00361	1178198	-9.805052	-0.143247	-0.229482				-0.005168	-0.001160	-0.000320				-148.007255	88.344431	-100.957647
00362	1178248	-9.806076	-0.168702	-0.243679				0.000846	0.001018	-0.000165				-148.011105	88.344291	-100.961679
00363	1178298	-9.796052	-0.185333	-0.252278				-0.006434	-0.002223	-0.003756				-147.982971	88.345073	-100.933843
00364	1178348	-9.791925	-0.156852	-0.246135				-0.005879	0.000867	-0.001079				-147.980301	88.344439	-100.929601
00365	1178398	-9.810585	-0.184541	-0.253757				-0.004089	0.003025	-0.003222				-147.983405	88.344488	-100.933477
00366	1178448	-9.820882	-0.149305	-0.237558				-0.003667	-0.001069	-0.000195				-147.977060	88.344681	-100.926091
00367	1178498	-9.816653	-0.155594	-0.254877				-0.001715	0.002068	-0.001209				-147.991505	88.345024	-100.942102
00368	1178548	-9.794402	-0.166339	-0.251156				-0.001546	0.001518	-0.003590				-147.969734	88.344226	-100.919828
00369	1178598	-9.812891	-0.173695	-0.249417				-0.006296	0.001015	-0.001493				-147.977424	88.344345	-100.927962
00370	1178648	-9.826226	-0.159688	-0.238287				-0.000331	-0.000163	0.001056				-147.985346	88.344726	-100.935711
00371	1178698	-9.813260	-0.164022	-0.247870				-0.001314	-0.000931	-0.003184				-147.967383	88.344905	-100.919682
00372	1178748	-9.799832	-0.151625	-0.247805				0.000936	0.001443	0.002020				-147.991881	88.344720	-100.944521
00373	1178798	-9.810461	-0.155111	-0.256093				-0.002996	0.000813	-0.003108				-147.983840	88.344653	-100.937868
00374	1178848	-9.825195	-0.144268	-0.244183				-0.003152	-0.002353	-0.001039				-147.963958	88.344940	-100.917130
00375	1178898	-9.800207	-0.157383	-0.254420				-0.004821	0.000584	-0.004356				-147.944352	88.345242	-100.898150
00376	1178948	-9.806278	-0.163982	-0.259730				-0.004971	0.001591	-0.001846				-147.938731	88.344684	-100.891055
00377	1178998	-9.816971	-0.139346	-0.236140				-0.002038	-0.001144	-0.002317				-147.927063	88.345631	-100.880854
00378	1179048	-9.810264	-0.153923	-0.251159				-0.004356	0.004575	-0.001413				-147.940480	88.344368	-100.893001
00379	1179098	-9.811118	-0.147457	-0.242440				-0.004002	0.001185	-0.001721				-147.946676	88.344266	-100.900359
00380	1179148	-9.804566	-0.151698	-0.253428				-0.005062	-0.001903	-0.002410				-147.917899	88.344466	-100.870070
00381	1179198	-9.795539	-0.178940	-0.233416				-0.000908	0.002892	-0.000824				-147.939798	88.344445	-100.893862
00382	1179248	-9.825351	-0.148989	-0.247421				-0.001659	0.001128	-0.001150				-147.936548	88.343908	-100.890178
00383	1179298	-9.796712	-0.152554	-0.251998				-0.003358	-0.003070	-0.002552				-147.913104	88.345362	-100.867794
00384	1179348	-9.791792	-0.166541	-0.249034				-0.001871	0.001840	-0.001088				-147.914290	88.344812	-100.868413
00385	1179398	-9.809435	-0.166854	-0.243866				-0.006966	0.000942	-0.000144				-147.932624	88.345525	-100.886858
00386	1179448	-9.795575	-0.173118	-0.239441				-0.002465	0.002345	-0.001981				-147.929228	88.344799	-100.882689
00387	1179498	-9.802876	-0.175169	-0.248471				-0.001147	0.002405	0.000522				-147.959680	88.344702	-100.915146
00388	1179548	-9.819182	-0.148408	-0.244332				-0.004744	0.001731	0.001973				-147.986967	88.344401	-100.941163
00389	1179598	-9.808457	-0.151163	-0.240973				-0.006153	-0.001404	0.000770				-148.000852	88.346014	-100.955285
00390	1179648	-9.801523	-0.172422	-0.242675				-0.005592	0.000033	0.001129				-148.012265	88.346268	-100.965063
00391	1179698	-9.796362	-0.169217	-0.236005				-0.002965	0.000616	-0.004359				-147.992628	88.346438	-100.946648
00392	1179748	-9.810616	-0.167057	-0.245095				-0.004268	0.000702	-0.000411				-147.993951	88.346320	-100.946697
00393	1179798	-9.804827	-0.150802	-0.252553				-0.001805	0.000480	-0.003205				-147.983112	88.346430	-100.937540
00394	1179848	-9.810286	-0.152726	-0.251042				-0.004598	0.000984	-0.000596				-147.984581	88.346204	-100.937647
00395	1179898	-9.810069	-0.164370	-0.262781				-0.005718	-0.000228	-0.000115				-147.997607	88.346808	-100.951293
00396	1179948	-9.814149	-0.143926	-0.260151				-0.001197	0.000657	-0.001852				-147.985678	88.346393	-100.939002
00397	1179998	-9.824196	-0.149261	-0.241703				-0.003372	0.001749	-0.001264				-147.998497	88.346294	-100.953155
00398	1180048	-9.804359	-0.176341	-0.237237				-0.004538	0.002349	0.001470				-148.024432	88.346001	-100.977780
00399	1180098	-9.793152	-0.160857	-0.231522				-0.005215	0.001360	0.000145				-148.047547	88.346750	-101.001466
00400	1180148	-9.802835	-0.149931	-0.228989				-0.005186	-0.001971	-0.002275				-148.019353	88.347135	-100.971663
00401	1180198	-9.793338	-0.175957	-0.248663				-0.001971	-0.001533	-0.004976				-147.983405	88.347318	-100.937401
00402	1180248	-9.816560	-0.151329	-0.240310				-0.004991	0.004306	-0.002270				-147.988387	88.345936	-100.940947
00403	1180298	-9.794133	-0.153654	-0.242111				-0.002420	0.001895	-0.002391				-147.992094	88.346350	-100.945937
00404	1180348	-9.806983	-0.170735	-0.247474				-0.005905	0.001936	0.000474				-148.008103	88.346041	-100.960216
00405	1180398	-9.799383	-0.173625	-0.238847				-0.003708	-0.000902	-0.000188				-148.015977	88.346764	-100.969321
00406	1180448	-9.817080	-0.152692	-0.230416				-0.006798	0.000327	-0.003830				-147.987459	88.346083	-100.938851
00407	1180498	-9.809493	-0.160409	-0.247652				-0.004741	-0.000570	-0.000857				-147.992201	88.346672	-100.944470
00408	1180548	-9.812709	-0.169103	-0.248724				-0.005146	0.003342	0.000832				-148.018544	88.345738	-100.969464
00409	1180598	-9.812494	-0.144129	-0.257622				-0.005525	0.003843	-0.002852				-148.029336	88.345112	-100.980857
00410	1180648	-9.814722	-0.163813	-0.242683				-0.002752	0.002408	-0.000460				-148.039189	88.344543	-100.989888
00411	1180698	-9.812424	-0.149967	-0.257608				-0.002535	0.001767	0.000465				-148.065822	88.345348	-101.017802
00412	1180748	-9.803344	-0.138639	-0.245586				-0.004414	0.000644	0.004952				-148.112127	88.346130	-101.062777
00413	1180798	-9.840734	-0.141033	-0.241361				-0.006165	0.001467	-0.005329				-148.089733	88.345825	-101.040726
00414	1180848	-9.811272	-0.130041	-0.252595				-0.002623	0.004277	-0.003661				-148.082364	88.344133	-101.032649
00415	1180898	-9.815259	-0.142294	-0.237358				-0.004176	0.001866	-0.000650				-148.101060	88.344424	-101.052280
00416	1180948	-9.825618	-0.167565	-0.243291				-0.006832	-0.000579	-0.003064				-148.074401	88.344230	-101.023588
00417	1180998	-9.817433	-0.130929	-0.255181				-0.003014	0.003731	-0.000002				-148.107331	88.343944	-101.057888
00418	1181048	-9.806799	-0.150937	-0.240508				-0.003065	0.001112	0.000110				-148.115088	88.343515	-101.064846
00419	1181098	-9.785864	-0.151200	-0.236457				-0.005396	0.007146	-0.000656				-148.161915	88.342943	-101.112093
00420	1181148	-9.803058	-0.150756	-0.228830				-0.004257	0.001985	-0.004633				-148.134621	88.342042	-101.083443
00421	1181198	-9.806262	-0.161629	-0.228977				-0.003241	-0.001709	-0.003563				-148.110164	88.342321	-101.060363
00422	1181248	-9.819387	-0.159769	-0.267005				-0.005513	-0.001978	-0.003264				-148.074219	88.342418	-101.022774
00423	1181298	-9.803443	-0.147666	-0.250732				-0.002003	0.003137	-0.000110				-148.102734	88.342422	-101.052870
00424	1181348	-9.799053	-0.167596	-0.265909				-0.004965	-0.002839	-0.001129				-148.079884	88.343081	-101.028524
00425	1181398	-9.792607	-0.174260	-0.255714				-0.003777	0.002193	-0.002737				-148.082603	88.342966	-101.032293
00426	1181448	-9.808258	-0.167507	-0.239742				0.001784	-0.001686	-0.004312				-148.036888	88.342737	-100.987063
00427	1181498	-9.793664	-0.170388	-0.246073				-0.005314	-0.001968	-0.001092				-148.032887	88.343441	-100.983884
00428	1181548	-9.814470	-0.168923	-0.234220				-0.005263	0.000717	-0.000174				-148.036724	88.343264	-100.986203
00429	1181598	-9.822436	-0.155444	-0.244026				-0.000616	-0.001634	-0.002731				-148.018210	88.344253	-100.969598
00430	1181648	-9.795359	-0.169214	-0.243095				-0.004458	-0.002497	0.000611				-148.011495	88.344941	-100.961605
00431	1181698	-9.804080	-0.173615	-0.247965				-0.000393	0.001377	-0.003171				-148.005522	88.345039	-100.957581
00432	1181748	-9.810357	-0.170643	-0.240997				-0.004034	0.000319	-0.000245				-148.006374	88.345000	-100.957248
00433	1181798	-9.797647	-0.155589	-0.247227				-0.004417	-0.002056	-0.004298				-147.973664	88.345856	-100.925311
00434	1181848	-9.807469	-0.154491	-0.239581				-0.003251	0.000879	-0.000722				-147.973073	88.345669	-100.923729
00435	1181898	-9.806063	-0.165464	-0.252841				-0.003228	-0.005069	-0.000339				-147.957701	88.347182	-100.909776
00436	1181948	-9.809278	-0.159712	-0.244660				-0.002236	0.002223	-0.001042				-147.961339	88.346715	-100.912675
00437	1181998	-9.804598	-0.165562	-0.258084				-0.004593	0.002021	0.000311				-147.988965	88.347099	-100.941140
00438	1182048	-9.831424	-0.134084	-0.258370				-0.006389	0.000083	0.001269				-148.001707	88.347533	-100.951935
00439	1182098	-9.811625	-0.148308	-0.234892				-0.002346	-0.003508	-0.001714				-147.983178	88.348414	-100.935110
00440	1182148	-9.805076	-0.166951	-0.217292				-0.007319	0.000577	-0.003090				-147.962315	88.348029	-100.912045
00441	1182198	-9.809002	-0.158116	-0.254397				-0.006943	0.000201	-0.000046				-147.978227	88.348991	-100.927981
00442	1182248	-9.814387	-0.187860	-0.248427				-0.004549	0.001605	0.001849				-148.003468	88.349038	-100.951863
00443	1182298	-9.808841	-0.174288	-0.248206				-0.002993	0.000951	-0.000052				-148.021738	88.349328	-100.971572
00444	1182348	-9.804940	-0.148407	-0.239069				-0.004931	-0.000803	-0.002559				-147.997450	88.349194	-100.945832
00445	1182398	-9.813409	-0.155112	-0.241626				-0.001332	-0.000221	-0.002562				-147.988501	88.349230	-100.938851
00446	1182448	-9.817389	-0.173181	-0.254904				-0.006375	0.002245	-0.003051				-147.976623	88.348053	-100.925217
00447	1182498	-9.809518	-0.162485	-0.238819				-0.004491	0.000042	-0.004731				-147.951114	88.348504	-100.900401
00448	1182548	-9.811876	-0.158490	-0.251526				-0.000004	0.000318	-0.003108				-147.926661	88.348056	-100.875890
00449	1182598	-9.803012	-0.177320	-0.220652				-0.003859	-0.000001	0.000906				-147.948645	88.348856	-100.898999
00450	1182648	-9.809129	-0.163854	-0.262069				-0.003260	0.000399	0.001647				-147.965444	88.349029	-100.914864
00451	1182698	-9.807240	-0.154229	-0.239236				-0.000327	-0.002133	0.001946				-147.984178	88.350637	-100.935671
00452	1182748	-9.822371	-0.139641	-0.247883				-0.001126	0.000596	-0.000568				-147.983175	88.350110	-100.934476
00453	1182798	-9.818421	-0.164128	-0.259866				-0.002330	-0.001111	-0.002085				-147.973180	88.351241	-100.925806
00454	1182848	-9.811509	-0.137770	-0.237194				-0.002581	0.000986	-0.001656				-147.965395	88.350866	-100.917227
00455	1182898	-9.821246	-0.159464	-0.236414				-0.001622	0.002237	-0.000079				-147.989997	88.351098	-100.943530
00456	1182948	-9.809019	-0.151170	-0.226823				-0.006011	-0.002079	0.000261				-147.983157	88.351457	-100.935050
00457	1182998	-9.805799	-0.159979	-0.228774				-0.005724	-0.000366	-0.004026				-147.962055	88.351888	-100.914348
00458	1183048	-9.801475	-0.171176	-0.251941				-0.002930	0.003889	-0.001833				-147.967967	88.350832	-100.919353
00459	1183098	-9.793042	-0.160535	-0.250137				-0.006396	-0.002015	0.000290				-147.974532	88.352320	-100.926179
00460	1183148	-9.803535	-0.159370	-0.250828				-0.006269	0.001015	-0.002354				-147.961714	88.351692	-100.911567
00461	1183198	-9.817774	-0.145623	-0.246912				-0.001644	-0.000320	-0.002020				-147.956745	88.352199	-100.908301
00462	1183248	-9.806843	-0.146695	-0.242445				-0.000257	0.000214	-0.003686				-147.926828	88.351459	-100.878350
00463	1183298	-9.783926	-0.168387	-0.244786				-0.009288	0.002322	-0.001762				-147.940482	88.351484	-100.891499
00464	1183348	-9.807442	-0.161325	-0.231616				-0.004958	-0.000833	-0.000602				-147.932295	88.351776	-100.881810
00465	1183398	-9.820148	-0.160088	-0.258698				-0.005054	0.002173	-0.002318				-147.939080	88.351622	-100.889306
00466	1183448	-9.799428	-0.161092	-0.256677				-0.004649	0.003371	-0.003757				-147.926676	88.350385	-100.875500
00467	1183498	-9.798538	-0.164108	-0.240081				-0.005303	0.001039	0.000244				-147.948394	88.351134	-100.897784
00468	1183548	-9.802351	-0.170116	-0.228783				-0.003621	0.000160	-0.003167				-147.923898	88.350849	-100.872129
00469	1183598	-9.809546	-0.162946	-0.234073				-0.004774	0.002600	-0.000007				-147.952016	88.350834	-100.901119
00470	1183648	-9.794049	-0.165542	-0.231505				-0.005936	0.002441	-0.004592				-147.927682	88.349481	-100.875105
00471	1183698	-9.825936	-0.141611	-0.245319				-0.004847	0.003888	-0.000414				-147.959635	88.349134	-100.907892
00472	1183748	-9.817166	-0.167486	-0.224404				-0.005227	0.000322	-0.003226				-147.935755	88.348434	-100.882562
00473	1183798	-9.829886	-0.161292	-0.221063				-0.002275	0.002445	-0.001746				-147.947948	88.348446	-100.896240
00474	1183848	-9.810593	-0.169217	-0.244632				-0.003872	0.001254	-0.002777				-147.932409	88.347602	-100.879638
00475	1183898	-9.799981	-0.142474	-0.243917				-0.006307	0.000279	0.000468				-147.952928	88.348181	-100.900606
00476	1183948	-9.796439	-0.173428	-0.253520				-0.003367	0.001394	-0.002036				-147.944292	88.347192	-100.891152
00477	1183998	-9.800432	-0.156762	-0.257072				-0.003158	0.001980	-0.001297				-147.957328	88.347838	-100.905213
00478	1184048	-9.803183	-0.149007	-0.251768				-0.001080	-0.001792	0.001436				-147.960327	88.348236	-100.908019
00479	1184098	-9.811608	-0.167885	-0.237887				-0.005318	0.001685	0.000665				-147.989317	88.349217	-100.937442
00480	1184148	-9.818392	-0.163630	-0.227250				0.000884	0.000722	-0.001544				-147.979789	88.348908	-100.928117
00481	1184198	-9.808133	-0.136671	-0.245674				-0.001100	0.004925	-0.001573				-148.006042	88.348345	-100.956187
00482	1184248	-9.806741	-0.149336	-0.252490				-0.003147	-0.000508	-0.001369				-147.992715	88.347978	-100.942077
00483	1184298	-9.815478	-0.160055	-0.242653				-0.006422	0.000855	-0.002803				-147.989016	88.348338	-100.938651
00484	1184348	-9.809497	-0.163149	-0.241740				-0.005779	0.002573	-0.004559				-147.965559	88.347085	-100.913498
00485	1184398	-9.816506	-0.154900	-0.241597				-0.002857	-0.002707	-0.003087				-147.939546	88.348115	-100.888783
00486	1184448	-9.813781	-0.150507	-0.228705				-0.004972	-0.000347	-0.000887				-147.931528	88.348023	-100.879364
00487	1184498	-9.804925	-0.171758	-0.232708				-0.004128	0.004320	-0.002757				-147.945563	88.347627	-100.894225
00488	1184548	-9.822062	-0.172080	-0.232813				-0.007199	0.000636	-0.006905				-147.892642	88.346526	-100.839173
00489	1184598	-9.803433	-0.159429	-0.228768				-0.004790	0.000847	-0.002806				-147.888506	88.346358	-100.835976
00490	1184648	-9.815145	-0.160744	-0.257929				-0.001632	0.000194	-0.002304				-147.870469	88.346153	-100.817380
00491	1184698	-9.826537	-0.151373	-0.244518				-0.005660	0.001094	-0.000783				-147.884549	88.346460	-100.832019
00492	1184748	-9.815228	-0.161600	-0.242941				-0.007457	0.002363	0.002021				-147.916260	88.346395	-100.861516
00493	1184798	-9.810252	-0.162558	-0.236228				0.000224	0.002299	-0.003038				-147.915602	88.346139	-100.863086
00494	1184848	-9.792798	-0.176787	-0.258504				-0.002031	-0.001230	-0.000420				-147.906369	88.346405	-100.853246
00495	1184898	-9.800184	-0.167459	-0.236736				-0.003925	0.001098	0.001652				-147.940028	88.347344	-100.887892
00496	1184948	-9.793949	-0.164653	-0.249665				-0.005046	-0.000089	-0.000178				-147.939692	88.347145	-100.886192
00497	1184998	-9.790322	-0.142491	-0.226546				-0.004554	0.002531	-0.003407				-147.938567	88.347444	-100.885635
00498	1185048	-9.807453	-0.174680	-0.240292				-0.003911	0.000285	-0.002618				-147.918758	88.347118	-100.864634
00499	1185098	-9.832284	-0.146185	-0.249284				-0.002262	0.000959	-0.001881				-147.922150	88.346909	-100.869755
00500	1185148	-9.809778	-0.157508	-0.245016				-0.003416	-0.000960	0.000518				-147.922382	88.347098	-100.869064
00501	1185198	-9.818139	-0.144622	-0.229250				0.001600	0.000551	-0.000127				-147.936787	88.348041	-100.885959
00502	1185248	-9.805224	-0.155637	-0.255145				-0.004541	0.002252	0.000186				-147.951639	88.347453	-100.899542
00503	1185298	-9.798900	-0.172065	-0.242918				-0.002611	-0.001576	-0.005329				-147.912323	88.347681	-100.861667
00504	1185348	-9.810454	-0.164744	-0.237148				-0.002407	0.000638	0.001226				-147.926475	88.347975	-100.875017
00505	1185398	-9.805333	-0.147402	-0.253482				-0.003980	0.000706	-0.000502				-147.940569	88.348234	-100.890280
00506	1185448	-9.793078	-0.159531	-0.246118				-0.005946	0.000630	-0.003927				-147.912393	88.347661	-100.860308
00507	1185498	-9.805187	-0.163173	-0.245111				-0.005025	0.001466	0.001495				-147.947266	88.348491	-100.895832
00508	1185548	-9.816413	-0.165863	-0.234572				-0.004751	0.003928	-0.001058				-147.960529	88.347235	-100.907802
00509	1185598	-9.809481	-0.169362	-0.231007				-0.003700	0.002975	-0.000264				-147.988244	88.347508	-100.936512
00510	1185648	-9.813042	-0.157674	-0.257306				-0.001761	0.001327	-0.000565				-147.990634	88.347275	-100.938320
00511	1185698	-9.807014	-0.147240	-0.251836				-0.004698	0.000947	-0.001492				-147.997848	88.347046	-100.946600
00512	1185748	-9.816798	-0.168837	-0.242802				-0.004151	-0.002112	-0.000321				-147.985493	88.347471	-100.933064
00513	1185798	-9.790156	-0.159589	-0.256965				-0.003807	0.002127	-0.002742				-147.987823	88.347497	-100.936397
00514	1185848	-9.811581	-0.164183	-0.248692				-0.005417	0.002557	-0.000771				-147.996233	88.346938	-100.943176
00515	1185898	-9.805619	-0.172143	-0.233717				-0.007435	0.005851	0.000213				-148.044275	88.346131	-100.991371
00516	1185948	-9.803418	-0.163091	-0.261671				-0.003185	0.001887	-0.000495				-148.050793	88.345386	-100.997073
00517	1185998	-9.809749	-0.172603	-0.219887				0.002601	-0.000726	0.000245				-148.061967	88.346668	-101.011018
00518	1186048	-9.818764	-0.153279	-0.225588				-0.002536	0.000339	-0.003134				-148.038326	88.345940	-100.986721
00519	1186098	-9.805941	-0.157562	-0.250358				-0.006505	0.001268	-0.003793				-148.027369	88.346331	-100.975833
00520	1186148	-9.816655	-0.161156	-0.243406				-0.003429	0.002825	0.002912				-148.067566	88.346311	-101.014965
00521	1186198	-9.811604	-0.161636	-0.250741				-0.004666	-0.001418	-0.004550				-148.036116	88.346678	-100.984351
00522	1186248	-9.829651	-0.141966	-0.260300				-0.005264	0.001550	-0.002828				-148.022125	88.345805	-100.968871
00523	1186298	-9.821539	-0.149625	-0.247152				-0.005911	-0.000267	-0.002163				-148.017454	88.346482	-100.964591
00524	1186348	-9.813208	-0.163656	-0.256984				-0.003893	-0.002368	-0.002280				-147.987064	88.346470	-100.933182
00525	1186398	-9.810207	-0.173674	-0.259733				-0.001546	0.001722	0.001039				-148.018002	88.347056	-100.965826
00526	1186448	-9.801229	-0.157562	-0.241546				-0.003833	0.001964	-0.001968				-148.012830	88.346292	-100.959548
00527	1186498	-9.815985	-0.154474	-0.250498				-0.002868	-0.001245	-0.001154				-148.010814	88.347211	-100.958871
00528	1186548	-9.803311	-0.168008	-0.231238				-0.003675	0.001932	-0.004566				-147.983305	88.346250	-100.930210
00529	1186598	-9.819158	-0.171736	-0.240756				-0.003777	0.000351	-0.001816				-147.984492	88.346691	-100.932458
00530	1186648	-9.815831	-0.162674	-0.258391				-0.004386	-0.001890	-0.002275				-147.956505	88.346855	-100.903183
00531	1186698	-9.795584	-0.177486	-0.228867				-0.003389	0.002272	0.000566				-147.986905	88.347438	-100.934661
00532	1186748	-9.823542	-0.151923	-0.226781				-0.001566	0.002100	-0.003194				-147.971604	88.346666	-100.918804
00533	1186798	-9.792237	-0.172323	-0.241687				-0.000016	-0.002331	-0.001268				-147.962228	88.347507	-100.911719
00534	1186848	-9.808876	-0.156146	-0.241089				-0.006700	0.004863	-0.000276				-147.987236	88.346276	-100.934825
00535	1186898	-9.821243	-0.167709	-0.258420				-0.004989	0.001076	-0.001073				-147.998906	88.346339	-100.947348
00536	1186948	-9.839050	-0.143925	-0.237687				-0.006453	0.001154	0.002851				-148.030944	88.346680	-100.977468
00537	1186998	-9.811413	-0.167988	-0.230055				-0.001899	0.003914	0.001337				-148.076385	88.346758	-101.024522
00538	1187048	-9.801303	-0.144936	-0.256166				-0.004733	0.001241	-0.000110				-148.082953	88.346584	-101.029674
00539	1187098	-9.816581	-0.161265	-0.255069				-0.002845	0.001342	-0.000142				-148.103296	88.346628	-101.051534
00540	1187148	-9.805422	-0.162413	-0.247364				-0.002889	0.003829	-0.000002				-148.124199	88.345827	-101.071562
00541	1187198	-9.800213	-0.157237	-0.253234				-0.004534	0.000085	0.001423				-148.150632	88.347375	-101.098630
00542	1187248	-9.810722	-0.157476	-0.248010				-0.006692	0.002537	0.000349				-148.169060	88.347026	-101.115048
00543	1187298	-9.806250	-0.164357	-0.264202				-0.006315	-0.000793	-0.002169				-148.161712	88.346985	-101.108354
00544	1187348	-9.814160	-0.159603	-0.225614				-0.004773	-0.001898	-0.003496				-148.123438	88.346881	-101.068715
00545	1187398	-9.823180	-0.147363	-0.255773				-0.002601	-0.000532	-0.001308				-148.124041	88.347570	-101.070720
00546	1187448	-9.810114	-0.167537	-0.248346				-0.002630	-0.001020	-0.003976				-148.086027	88.347171	-101.031954
00547	1187498	-9.809417	-0.148822	-0.244649				-0.005703	0.001385	-0.002286				-148.088479	88.347543	-101.034834
00548	1187548	-9.823099	-0.161104	-0.240960				-0.004736	0.001244	-0.001422				-148.083996	88.347151	-101.028939
00549	1187598	-9.819900	-0.146474	-0.248697				-0.003888	0.003906	-0.001666				-148.105181	88.346728	-101.051181
00550	1187648	-9.805180	-0.166080	-0.240201				-0.002087	-0.003655	-0.000271				-148.084283	88.347604	-101.029661
00551	1187698	-9.809814	-0.174147	-0.244296				-0.006187	-0.001334	0.001422				-148.104018	88.348799	-101.049855
00552	1187748	-9.817013	-0.160558	-0.224696				-0.003836	0.003132	-0.000615				-148.116467	88.347778	-101.061283
00553	1187798	-9.791072	-0.183736	-0.252882				-0.002151	0.002645	-0.000045				-148.143559	88.348028	-101.089857
00554	1187848	-9.794834	-0.153558	-0.244861				-0.005515	-0.000580	-0.000563				-148.137489	88.348267	-101.082126
00555	1187898	-9.805548	-0.149320	-0.253487				-0.002535	-0.000759	-0.002049				-148.129790	88.349085	-101.075793
00556	1187948	-9.800514	-0.154086	-0.249918				-0.004661	0.001824	-0.001999				-148.123815	88.348190	-101.068543
00557	1187998	-9.803273	-0.164846	-0.243867				-0.001700	-0.000583	-0.000192				-148.132964	88.349178	-101.079316
00558	1188048	-9.813059	-0.167220	-0.233963				-0.007173	-0.000577	0.000465				-148.136281	88.349404	-101.080571
00559	1188098	-9.801781	-0.167381	-0.249148				-0.004435	-0.000310	-0.002427				-148.128082	88.350076	-101.073184
00560	1188148	-9.817853	-0.167859	-0.228087				-0.004097	0.003419	-0.000451				-148.143013	88.349507	-101.086800
00561	1188198	-9.804370	-0.153463	-0.242694				-0.003346	0.000781	0.000236				-148.163624	88.349849	-101.108746
00562	1188248	-9.790273	-0.146473	-0.226654				0.000133	0.000361	0.000417				-148.168697	88.349766	-101.113890
00563	1188298	-9.819185	-0.154070	-0.235092				-0.003067	-0.002158	-0.002727				-148.148690	88.350654	-101.095154
00564	1188348	-9.795979	-0.172575	-0.252252				-0.007045	-0.000164	-0.004218				-148.114487	88.349767	-101.059050
00565	1188398	-9.809134	-0.165693	-0.255565				-0.004996	-0.001669	0.000260				-148.122420	88.351550	-101.067477
00566	1188448	-9.814203	-0.168664	-0.239779				-0.006835	-0.000449	-0.002968				-148.096721	88.351323	-101.039760
00567	1188498	-9.815999	-0.154584	-0.247212				-0.002683	0.000948	-0.003129				-148.089582	88.351541	-101.033948
00568	1188548	-9.805872	-0.164887	-0.246320				-0.003728	0.000574	-0.002522				-148.072645	88.351063	-101.015914
00569	1188598	-9.809160	-0.148881	-0.247732				-0.003988	0.003604	-0.005518				-148.058805	88.349783	-101.003250
00570	1188648	-9.801314	-0.162548	-0.257849				-0.000345	0.000990	-0.003264				-148.036488	88.349153	-100.980784
00571	1188698	-9.802062	-0.163885	-0.248740				-0.007319	0.002711	-0.003138				-148.039942	88.348834	-100.984275
00572	1188748	-9.821315	-0.162289	-0.257492				-0.004264	0.000407	-0.002844				-148.019232	88.348332	-100.962323
00573	1188798	-9.821000	-0.146925	-0.262038				-0.000533	0.001127	0.000810				-148.045245	88.349187	-100.990270
00574	1188848	-9.812683	-0.165567	-0.260248				-0.002447	-0.003044	0.002299				-148.049430	88.350211	-100.993787
00575	1188898	-9.806029	-0.143953	-0.263033				-0.000496	-0.002202	-0.000040				-148.050745	88.351484	-100.997133
00576	1188948	-9.818147	-0.156110	-0.243564				-0.005721	-0.000367	-0.003579				-148.019868	88.351148	-100.964556
00577	1188998	-9.802822	-0.174103	-0.258935				-0.001300	-0.001091	-0.001065				-148.018904	88.351710	-100.965525
00578	1189048	-9.802004	-0.169987	-0.245805				-0.000849	-0.000042	0.001056				-148.027844	88.351922	-100.974210
00579	1189098	-9.802486	-0.159602	-0.227183				-0.005040	0.002985	0.001441				-148.070226	88.352002	-101.017413
00580	1189148	-9.811072	-0.163080	-0.256777				-0.007170	0.001196	-0.002249				-148.059763	88.351346	-101.004901
00581	1189198	-9.788046	-0.169615	-0.231800				-0.000513	0.001314	-0.002558				-148.058445	88.351511	-101.005558
00582	1189248	-9.806584	-0.158049	-0.261582				-0.001300	-0.000350	-0.002818				-148.032949	88.351089	-100.979719
00583	1189298	-9.800871	-0.165840	-0.243335				-0.005833	-0.003953	-0.002317				-148.007261	88.353194	-100.954195
00584	1189348	-9.800511	-0.172007	-0.251829				-0.009324	0.000484	0.000119				-148.013473	88.353038	-100.957767
00585	1189398	-9.801778	-0.148648	-0.247753				-0.003090	-0.000086	0.000040				-148.027365	88.354021	-100.972861
00586	1189448	-9.800487	-0.175170	-0.249660				-0.002717	0.001343	-0.000049				-148.034707	88.353887	-100.979335
00587	1189498	-9.806154	-0.156622	-0.257085				-0.004351	0.001151	-0.001589				-148.041502	88.353959	-100.987132
00588	1189548	-9.805684	-0.160893	-0.247257				-0.005627	-0.000335	-0.004990				-147.998980	88.353517	-100.942880
00589	1189598	-9.786675	-0.160456	-0.240619				-0.005464	-0.000294	-0.002331				-147.992544	88.353620	-100.937206
00590	1189648	-9.811342	-0.150045	-0.238915				-0.006744	0.002150	0.000510				-148.010147	88.353045	-100.952945
00591	1189698	-9.826257	-0.168468	-0.254800				-0.004835	0.000532	0.001206				-148.037728	88.353886	-100.981291
00592	1189748	-9.786461	-0.155547	-0.247070				-0.004348	-0.000977	-0.000284				-148.031168	88.354016	-100.973515
00593	1189798	-9.822326	-0.159975	-0.252474				-0.003603	0.002106	0.000536				-148.061115	88.354682	-101.004469
00594	1189848	-9.806103	-0.159408	-0.258960				0.001527	-0.000300	-0.000135				-148.057899	88.354809	-101.001662
00595	1189898	-9.812241	-0.154856	-0.238567				-0.001162	-0.000291	-0.001185				-148.059702	88.355247	-101.005386
00596	1189948	-9.800540	-0.168214	-0.255256				-0.001910	0.004225	-0.000069				-148.082036	88.354072	-101.027243
00597	1189998	-9.812109	-0.149899	-0.230683				-0.005453	-0.000162	0.002448				-148.116509	88.355444	-101.062271
00598	1190048	-9.807241	-0.172739	-0.240898				-0.001135	-0.000964	0.000771				-148.117931	88.355895	-101.063328
00599	1190098	-9.812552	-0.165404	-0.243283				-0.003549	0.005656	0.001547				-148.175772	88.355650	-101.122292
00600	1190148	-9.793494	-0.176513	-0.260710				-0.002460	0.000241	0.000453				-148.181677	88.355673	-101.127488
00601	1190198	-9.805193	-0.170237	-0.229710				-0.005129	-0.001325	0.001740				-148.203684	88.357070	-101.150163
00602	1190248	-9.818304	-0.150593	-0.228492				0.000201	0.000057	-0.001540				-148.190715	88.356740	-101.137283
00603	1190298	-9.823066	-0.144086	-0.242607				-0.002370	0.001204	-0.003932				-148.177876	88.356465	-101.125999
00604	1190348	-9.820633	-0.144347	-0.251232				-0.004657	-0.000320	-0.002687				-148.154762	88.355999	-101.101604
00605	1190398	-9.818244	-0.145458	-0.250085				-0.002838	0.001974	-0.001870				-148.163504	88.356010	-101.111704
00606	1190448	-9.814842	-0.157781	-0.235622				-0.004690	-0.001223	-0.000731				-148.152358	88.356052	-101.099272
00607	1190498	-9.810214	-0.161835	-0.243373				-0.002332	-0.000791	0.001250				-148.172519	88.357592	-101.120789
00608	1190548	-9.803824	-0.176722	-0.246023				-0.002562	0.000300	-0.001918				-148.158627	88.356940	-101.106286
00609	1190598	-9.800224	-0.156371	-0.253432				-0.003418	-0.001040	-0.001569				-148.154249	88.358179	-101.102882
00610	1190648	-9.806505	-0.176466	-0.237379				-0.003276	-0.000519	-0.002821				-148.128512	88.358051	-101.076120
00611	1190698	-9.799453	-0.161325	-0.252793				-0.005411	0.000218	-0.001623				-148.130422	88.358509	-101.078656
00612	1190748	-9.818049	-0.145601	-0.241907				-0.003201	0.001553	-0.000077				-148.138873	88.358331	-101.086104
00613	1190798	-9.803729	-0.162700	-0.251801				-0.002252	0.001532	-0.003386				-148.132173	88.358013	-101.080998
00614	1190848	-9.809756	-0.158688	-0.247234				-0.007655	0.000343	0.000598				-148.140887	88.358225	-101.087431
00615	1190898	-9.798092	-0.174103	-0.253992				-0.000844	-0.000086	0.000193				-148.156046	88.359201	-101.104444
00616	1190948	-9.818132	-0.161356	-0.234230				-0.004572	0.000268	0.001232				-148.169399	88.359323	-101.116484
00617	1190998	-9.830037	-0.163277	-0.231297				-0.009564	0.000948	-0.002983				-148.164823	88.358970	-101.111541
00618	1191048	-9.819040	-0.161338	-0.242189				-0.004863	0.002067	-0.003374				-148.148461	88.357990	-101.093767
00619	1191098	-9.811581	-0.166322	-0.244080				-0.003345	-0.001032	0.000711				-148.163565	88.359179	-101.110069
00620	1191148	-9.795225	-0.176794	-0.249195				-0.003847	-0.001533	-0.001448				-148.144196	88.359389	-101.089565
00621	1191198	-9.794171	-0.165538	-0.250482				-0.008433	0.000653	-0.000460				-148.158874	88.360589	-101.103725
00622	1191248	-9.816308	-0.150740	-0.242005				-0.005809	0.003355	0.003147				-148.205015	88.360206	-101.148241
00623	1191298	-9.809999	-0.162207	-0.238897				-0.002875	0.003331	-0.001065				-148.228245	88.359593	-101.173003
00624	1191348	-9.805180	-0.163959	-0.244598				-0.004982	0.001101	-0.001103				-148.226333	88.359184	-101.169651
00625	1191398	-9.813487	-0.142272	-0.254898				-0.002630	-0.000381	-0.000282				-148.235269	88.360526	-101.179762
00626	1191448	-9.819336	-0.138781	-0.240472				-0.006186	0.001530	-0.001453				-148.232804	88.359998	-101.175491
00627	1191498	-9.815917	-0.163593	-0.242415				-0.001644	0.000873	-0.000923				-148.243513	88.360029	-101.188065
00628	1191548	-9.805448	-0.161515	-0.245072				-0.001493	-0.000070	-0.000735				-148.237433	88.359869	-101.181588
00629	1191598	-9.797340	-0.164051	-0.241533				-0.006465	0.000367	0.000148				-148.255644	88.360736	-101.200033
00630	1191648	-9.801550	-0.157069	-0.230219				-0.005005	0.000481	-0.003930				-148.226176	88.360151	-101.169060
00631	1191698	-9.793255	-0.162191	-0.252176				-0.002371	0.003733	0.000187				-148.261167	88.359842	-101.205669
00632	1191748	-9.818868	-0.173165	-0.247565				-0.002394	-0.003064	-0.003152				-148.218819	88.360275	-101.162552
00633	1191798	-9.808283	-0.152055	-0.230240				-0.000551	0.001661	-0.001243				-148.230393	88.360673	-101.176018
00634	1191848	-9.788641	-0.175245	-0.239147				-0.003752	-0.000629	-0.003332				-148.200017	88.360141	-101.144635
00635	1191898	-9.812237	-0.153605	-0.240655				-0.004920	-0.001998	0.001252				-148.214555	88.361962	-101.159749
00636	1191948	-9.820763	-0.156482	-0.242782				-0.005805	-0.001337	0.001325				-148.220650	88.362435	-101.164207
00637	1191998	-9.801461	-0.154400	-0.249462				-0.003516	0.002928	-0.003888				-148.217273	88.361847	-101.162018
00638	1192048	-9.794640	-0.172665	-0.237628				-0.002973	-0.000802	-0.000287				-148.211665	88.361882	-101.155604
00639	1192098	-9.816960	-0.134996	-0.247232				-0.003935	0.000512	0.002290				-148.248273	88.362772	-101.193319
00640	1192148	-9.822461	-0.149030	-0.253939				-0.004352	0.003440	-0.000866				-148.260235	88.361806	-101.204043
00641	1192198	-9.795924	-0.171298	-0.263632				-0.006184	0.001502	0.001304				-148.294022	88.362774	-101.238076
00642	1192248	-9.805686	-0.160887	-0.246267				-0.004985	0.000872	-0.002769				-148.276202	88.362217	-101.218788
00643	1192298	-9.811693	-0.154891	-0.249511				-0.003680	0.005614	-0.000343				-148.317548	88.361664	-101.261221
00644	1192348	-9.812290	-0.148218	-0.244308				-0.006030	0.000329	-0.005531				-148.273903	88.360728	-101.215840
00645	1192398	-9.807936	-0.175096	-0.238613				-0.002202	0.000878	-0.004610				-148.253363	88.360444	-101.196871
00646	1192448	-9.801562	-0.160546	-0.259468				-0.000687	0.000920	0.000618				-148.263646	88.360020	-101.207095
00647	1192498	-9.796337	-0.167409	-0.242923				-0.005124	-0.002782	-0.001480				-148.251200	88.361746	-101.195114
00648	1192548	-9.804936	-0.171312	-0.231430				-0.002255	0.001530	-0.004733				-148.219472	88.361012	-101.162573
00649	1192598	-9.820810	-0.152714	-0.243360				-0.006057	0.000597	-0.000400				-148.234215	88.361316	-101.177866
00650	1192648	-9.831112	-0.162144	-0.252847				-0.003297	0.000553	0.001299				-148.248956	88.361303	-101.191700
00651	1192698	-9.810862	-0.146423	-0.248249				-0.003938	0.003411	-0.002476				-148.260644	88.361067	-101.204360
00652	1192748	-9.816285	-0.169648	-0.246190				-0.004227	-0.000997	-0.004836				-148.215449	88.360928	-101.157780
00653	1192798	-9.803028	-0.139739	-0.256791				-0.002743	-0.000802	-0.000219				-148.222942	88.361354	-101.166879
00654	1192848	-9.791614	-0.168940	-0.234140				-0.002947	0.001260	-0.002266				-148.211254	88.360547	-101.154411
00655	1192898	-9.797462	-0.169931	-0.249187				-0.002836	0.000942	-0.002427				-148.210103	88.360995	-101.154483
00656	1192948	-9.801073	-0.165928	-0.250739				-0.002167	0.004121	-0.001164				-148.222243	88.359986	-101.165932
00657	1192998	-9.808964	-0.149092	-0.239712				-0.007588	0.000405	-0.001291				-148.229243	88.360267	-101.173016
00658	1193048	-9.811425	-0.180683	-0.240054				-0.002259	0.001984	-0.002103				-148.222579	88.359455	-101.165707
00659	1193098	-9.808878	-0.172294	-0.247310				-0.005940	0.002725	-0.004078				-148.216836	88.359212	-101.160310
00660	1193148	-9.815381	-0.168797	-0.241375				-0.003994	-0.000724	0.000139				-148.215264	88.359454	-101.157572
00661	1193198	-9.808985	-0.168958	-0.275182				-0.003556	-0.003855	-0.001810				-148.193593	88.361166	-101.136916
00662	1193248	-9.814994	-0.150573	-0.264616				-0.006305	-0.002262	-0.005414				-148.137267	88.360927	-101.078747
00663	1193298	-9.814529	-0.154975	-0.253216				-0.002548	-0.000258	-0.003973				-148.116353	88.360791	-101.059425
00664	1193348	-9.796392	-0.179167	-0.250118				-0.001816	-0.001112	-0.002147				-148.092539	88.360883	-101.035017
00665	1193398	-9.802050	-0.170915	-0.236936				-0.003539	0.000737	-0.002968				-148.085508	88.361301	-101.029018
00666	1193448	-9.818130	-0.154299	-0.249132				-0.003858	0.000894	-0.000789				-148.084498	88.361114	-101.026830
00667	1193498	-9.791614	-0.165928	-0.239885				-0.001583	0.001937	-0.001108				-148.099102	88.360614	-101.043444
00668	1193548	-9.817223	-0.138352	-0.235881				-0.003663	-0.000204	-0.000826				-148.091679	88.360712	-101.034896
00669	1193598	-9.784125	-0.170744	-0.246858				-0.004181	-0.000149	-0.001374				-148.093812	88.361375	-101.037961
00670	1193648	-9.793105	-0.179231	-0.240607				-0.003635	-0.000135	0.000168				-148.095806	88.361091	-101.039064
00671	1193698	-9.806827	-0.169220	-0.237396				-0.004475	0.001243	0.001655				-148.131073	88.362326	-101.074988
00672	1193748	-9.808549	-0.164337	-0.237873				-0.002770	0.000878	-0.002906				-148.111875	88.361714	-101.054964
00673	1193798	-9.818933	-0.151808	-0.239659				-0.001786	0.005624	0.002086				-148.173061	88.361224	-101.117925
00674	1193848	-9.786863	-0.152239	-0.265186				-0.003754	0.004838	-0.000416				-148.195970	88.360031	-101.139749
00675	1193898	-9.800008	-0.156104	-0.248971				-0.004126	0.000785	-0.005050				-148.172009	88.360098	-101.116647
00676	1193948	-9.816342	-0.178923	-0.259106				-0.002808	0.000273	0.001262				-148.184913	88.360341	-101.128697
00677	1193998	-9.802994	-0.169199	-0.241063				-0.001229	0.001681	-0.001401				-148.195760	88.360086	-101.141559
00678	1194048	-9.800797	-0.174610	-0.240125				-0.006518	0.003043	-0.000738				-148.207350	88.359271	-101.151271
00679	1194098	-9.802905	-0.167908	-0.257295				-0.005221	-0.001614	0.000678				-148.219587	88.360416	-101.164240
00680	1194148	-9.829519	-0.143904	-0.239316				-0.004964	0.004523	-0.001370				-148.233470	88.358871	-101.176811
00681	1194198	-9.799702	-0.142885	-0.248699				-0.003310	-0.001258	0.000258				-148.242434	88.360719	-101.186660
00682	1194248	-9.806219	-0.155102	-0.248413				-0.004424	-0.000473	-0.000890				-148.233397	88.360733	-101.176337
00683	1194298	-9.826449	-0.144704	-0.231316				-0.006345	-0.000542	-0.001106				-148.237077	88.360839	-101.180661
00684	1194348	-9.802642	-0.159412	-0.240966				-0.003994	-0.002017	-0.000159				-148.226342	88.361095	-101.168872
00685	1194398	-9.796476	-0.161156	-0.233435				-0.001838	0.001864	-0.000982				-148.240926	88.362463	-101.184553
00686	1194448	-9.819980	-0.144452	-0.240005				-0.000443	0.001372	0.000265				-148.250507	88.362163	-101.194014
00687	1194498	-9.814723	-0.140213	-0.250853				-0.002807	0.003109	-0.001128				-148.271209	88.361784	-101.216176
00688	1194548	-9.804164	-0.167647	-0.249166				-0.005192	0.000481	-0.001529				-148.262470	88.361145	-101.206075
00689	1194598	-9.819247	-0.156586	-0.257504				-0.003039	0.000191	-0.002780				-148.253817	88.361959	-101.198496
00690	1194648	-9.799101	-0.160258	-0.234288				-0.002908	-0.000002	-0.003555				-148.224252	88.361417	-101.168094
00691	1194698	-9.824800	-0.138805	-0.242354				-0.002231	0.000084	-0.000472				-148.234873	88.361999	-101.180288
00692	1194748	-9.810237	-0.175234	-0.252932				-0.003555	-0.000750	-0.001858				-148.216462	88.361590	-101.160988
00693	1194798	-9.798733	-0.164391	-0.246352				-0.002593	0.002009	-0.005212				-148.196608	88.361507	-101.142348
00694	1194848	-9.812325	-0.172259	-0.228066				-0.002825	0.001820	0.000722				-148.213258	88.361143	-101.158211
00695	1194898	-9.815998	-0.152944	-0.211906				-0.006589	-0.000998	-0.001914				-148.206828	88.361834	-101.152089
00696	1194948	-9.813437	-0.144862	-0.257793				-0.004201	0.001434	-0.001968				-148.198717	88.361433	-101.142664
00697	1194998	-9.811848	-0.151483	-0.271218				-0.000898	0.001464	-0.000440				-148.216600	88.361688	-101.162497
00698	1195048	-9.818230	-0.168166	-0.244063				-0.003376	0.000770	-0.002329				-148.201715	88.361246	-101.146598
00699	1195098	-9.809009	-0.162909	-0.243916				-0.002304	0.000974	-0.005794				-148.171490	88.360740	-101.117931
00700	1195148	-9.812121	-0.145068	-0.238793				-0.002013	-0.000557	0.001475				-148.181461	88.361183	-101.127294
00701	1195198	-9.808904	-0.149211	-0.250168				-0.004928	0.002230	-0.002383				-148.188031	88.361214	-101.134525
00702	1195248	-9.811372	-0.163558	-0.245327				-0.007827	0.001529	-0.004525				-148.159941	88.360051	-101.104224
00703	1195298	-9.819683	-0.161098	-0.255141				-0.000371	0.003120	-0.002002				-148.172909	88.359494	-101.119364
00704	1195348	-9.808996	-0.152872	-0.228476				-0.002208	-0.000827	-0.003208				-148.141863	88.359369	-101.087602
00705	1195398	-9.815364	-0.147116	-0.249064				-0.003482	-0.001910	-0.000259				-148.143984	88.360439	-101.090945
00706	1195448	-9.796106	-0.170075	-0.236077				-0.005741	0.001734	-0.000524				-148.150407	88.359786	-101.095792
00707	1195498	-9.812677	-0.156984	-0.240994				-0.003248	0.000711	-0.002617				-148.145747	88.360501	-101.092141
00708	1195548	-9.808672	-0.166022	-0.253960				-0.003082	0.001515	-0.003129				-148.128095	88.359793	-101.073540
00709	1195598	-9.810786	-0.166624	-0.257072				-0.002086	0.001571	0.000203				-148.151896	88.360107	-101.098923
00710	1195648	-9.819165	-0.148701	-0.248606				-0.001598	0.000953	-0.004899				-148.115815	88.359173	-101.062359
00711	1195698	-9.804347	-0.168881	-0.253247				0.000198	-0.000551	0.001986				-148.142970	88.360476	-101.091693
00712	1195748	-9.823527	-0.141524	-0.249956				-0.004875	-0.001451	-0.000314				-148.133689	88.360940	-101.080939
00713	1195798	-9.811222	-0.161806	-0.234593				-0.000266	0.003962	-0.000074				-148.167618	88.360856	-101.116913
00714	1195848	-9.799925	-0.166534	-0.243475				-0.004367	0.001656	-0.002512				-148.156031	88.359946	-101.104128
00715	1195898	-9.799554	-0.151344	-0.255956				-0.003241	0.000550	-0.000954				-148.165521	88.360572	-101.114789
00716	1195948	-9.787443	-0.177341	-0.237799				-0.002597	0.002530	-0.001907				-148.163516	88.359372	-101.112169
00717	1195998	-9.834607	-0.156075	-0.238749				-0.003485	0.003292	-0.001159				-148.185077	88.359266	-101.134857
00718	1196048	-9.813921	-0.173893	-0.235997				-0.005490	0.003935	-0.001216				-148.197148	88.358056	-101.145392
00719	1196098	-9.799806	-0.163899	-0.229555				-0.002131	0.000887	-0.002656				-148.192750	88.358314	-101.142502
00720	1196148	-9.811850	-0.149841	-0.233755				-0.007698	0.000022	0.002142				-148.213016	88.358746	-101.160523
00721	1196198	-9.810787	-0.154287	-0.243204				-0.001318	0.002715	-0.001267				-148.230909	88.358380	-101.180335
00722	1196248	-9.808725	-0.161171	-0.254253				-0.006820	0.003396	-0.000863				-148.243558	88.357381	-101.191051
00723	1196298	-9.809666	-0.131553	-0.239800				-0.001182	0.001325	-0.001945				-148.247332	88.358039	-101.196429
00724	1196348	-9.815423	-0.163574	-0.245336				-0.005159	0.003519	-0.001507				-148.254502	88.357103	-101.202055
00725	1196398	-9.801744	-0.167379	-0.254936				-0.000789	0.000571	0.004528				-148.309803	88.357794	-101.259605
00726	1196448	-9.794778	-0.175604	-0.248185				-0.005300	-0.002364	-0.001410				-148.287078	88.358353	-101.235262
00727	1196498	-9.799141	-0.154984	-0.238927				-0.002237	0.001042	-0.004516				-148.267193	88.358634	-101.216688
00728	1196548	-9.796203	-0.165769	-0.229367				-0.005978	0.001755	-0.004599				-148.238861	88.357721	-101.186544
00729	1196598	-9.810888	-0.149683	-0.236872				-0.005898	-0.000797	-0.003870				-148.217098	88.357965	-101.165290
00730	1196648	-9.812905	-0.152692	-0.251120				-0.006383	0.002956	0.001704				-148.248898	88.357764	-101.195153
00731	1196698	-9.815469	-0.154661	-0.255626				-0.005671	0.001473	-0.001257				-148.260823	88.357791	-101.207724
00732	1196748	-9.821709	-0.163716	-0.229937				-0.004178	0.002887	-0.003215				-148.249774	88.356705	-101.195426
00733	1196798	-9.803455	-0.167232	-0.248220				-0.004993	0.000093	-0.003168				-148.238228	88.356625	-101.184748
00734	1196848	-9.800820	-0.167215	-0.249685				-0.004353	0.001768	0.003869				-148.281462	88.357111	-101.226605
00735	1196898	-9.823780	-0.144489	-0.240655				-0.005964	-0.000108	0.000882				-148.303441	88.357932	-101.249104
00736	1196948	-9.808276	-0.150906	-0.233132				-0.002781	0.003202	-0.003377				-148.292371	88.356748	-101.237185
00737	1196998	-9.821144	-0.146359	-0.239692				-0.000885	0.000104	0.000451				-148.309793	88.357574	-101.256531
00738	1197048	-9.813084	-0.156109	-0.253611				-0.008111	-0.000477	-0.001551				-148.296509	88.357582	-101.240862
00739	1197098	-9.799771	-0.159163	-0.243579				-0.003503	-0.003497	-0.002062				-148.274753	88.359247	-101.220092
00740	1197148	-9.828127	-0.156737	-0.245872				-0.006232	-0.001453	-0.005223				-148.224581	88.358397	-101.168300
00741	1197198	-9.810837	-0.149732	-0.244573				-0.005497	0.001027	-0.001260				-148.234226	88.358779	-101.178519
00742	1197248	-9.784853	-0.164040	-0.258789				-0.003849	-0.001761	-0.004009				-148.191944	88.358925	-101.134973
00743	1197298	-9.809158	-0.151188	-0.244612				-0.004800	0.000098	-0.002651				-148.184679	88.358935	-101.128641
00744	1197348	-9.805586	-0.152893	-0.239343				-0.009294	-0.001533	-0.001814				-148.163910	88.358673	-101.105360
00745	1197398	-9.804687	-0.161203	-0.253458				-0.003102	0.000095	-0.001948				-148.161859	88.359724	-101.104311
00746	1197448	-9.822124	-0.150875	-0.226655				-0.001780	0.003060	-0.002706				-148.155597	88.358497	-101.097568
00747	1197498	-9.823765	-0.147429	-0.238022				-0.004592	-0.000449	-0.002809				-148.143714	88.359244	-101.086395
00748	1197548	-9.821042	-0.153845	-0.242100				-0.003176	-0.001885	-0.006417				-148.080272	88.358601	-101.022069
00749	1197598	-9.805455	-0.162539	-0.242911				-0.002480	-0.000279	-0.002722				-148.069856	88.359329	-101.012988
00750	1197648	-9.806845	-0.166185	-0.240722				-0.005720	-0.002311	-0.002727				-148.036066	88.359360	-100.977597
00751	1197698	-9.808433	-0.161043	-0.263065				-0.001943	0.001351	0.000266				-148.059036	88.359914	-101.002142
00752	1197748	-9.800241	-0.158888	-0.244687				-0.002276	0.001471	-0.001018				-148.058856	88.359159	-101.001416
00753	1197798	-9.805284	-0.172399	-0.249368				-0.001862	0.000606	-0.000890				-148.068444	88.359281	-101.012809
00754	1197848	-9.810051	-0.159997	-0.235274				-0.005327	0.002004	0.001147				-148.090437	88.358839	-101.033338
00755	1197898	-9.810831	-0.168502	-0.246488				-0.002196	0.000051	-0.001214				-148.094052	88.359818	-101.038318
00756	1197948	-9.794733	-0.150246	-0.229125				-0.000564	0.000177	-0.000928				-148.087567	88.359646	-101.031662
00757	1197998	-9.806520	-0.166188	-0.254678				-0.001430	0.000968	-0.001980				-148.088959	88.360327	-101.034616
00758	1198048	-9.827187	-0.150890	-0.254673				-0.002757	0.004195	-0.007378				-148.049468	88.358292	-100.994273
00759	1198098	-9.812432	-0.151288	-0.252271				-0.003963	0.000086	-0.000374				-148.060791	88.358988	-101.006629
00760	1198148	-9.821102	-0.168388	-0.241148				-0.003182	-0.000158	0.000586				-148.065763	88.359102	-101.010698
00761	1198198	-9.817178	-0.161586	-0.234788				-0.004988	0.002429	-0.000389				-148.089691	88.359314	-101.035311
00762	1198248	-9.802398	-0.147526	-0.226106				-0.006180	-0.002732	-0.000449				-148.073107	88.360013	-101.016899
00763	1198298	-9.810044	-0.167772	-0.259963				-0.003059	0.001102	0.000077				-148.094243	88.360342	-101.039410
00764	1198348	-9.800816	-0.158158	-0.228723				-0.004218	-0.002891	0.001311				-148.091174	88.361225	-101.035136
00765	1198398	-9.810026	-0.144985	-0.231853				-0.003687	-0.000528	-0.001340				-148.091616	88.361747	-101.036802
00766	1198448	-9.800097	-0.169292	-0.245892				-0.003143	0.000615	-0.001369				-148.083978	88.361364	-101.028271
00767	1198498	-9.800865	-0.173835	-0.229480				-0.007053	-0.000554	-0.001138				-148.086319	88.362240	-101.030691
00768	1198548	-9.811271	-0.149648	-0.251823				-0.006483	0.000878	-0.000235				-148.090823	88.362156	-101.033268
00769	1198598	-9.815402	-0.161541	-0.252932				-0.002696	-0.000542	-0.001663				-148.087598	88.363083	-101.031313
00770	1198648	-9.820539	-0.140787	-0.234051				-0.003472	0.003099	-0.001194				-148.094684	88.362216	-101.037379
00771	1198698	-9.819568	-0.141174	-0.235918				-0.004058	0.000245	-0.000659				-148.105206	88.362686	-101.048960
00772	1198748	-9.809848	-0.155014	-0.241234				0.000640	0.001524	-0.000698				-148.107518	88.362221	-101.051451
00773	1198798	-9.815964	-0.141697	-0.239535				-0.006660	0.000760	0.004800				-148.167042	88.363374	-101.111328
00774	1198848	-9.803542	-0.155313	-0.257094				-0.001889	0.000706	0.001552				-148.184787	88.363281	-101.128608
00775	1198898	-9.826324	-0.145812	-0.251251				-0.004973	0.000612	-0.001234				-148.192061	88.363991	-101.136501
00776	1198948	-9.798684	-0.165135	-0.253741				-0.002819	0.000326	-0.001661				-148.180387	88.363527	-101.124076
00777	1198998	-9.800034	-0.171391	-0.254268				-0.002808	0.001875	-0.004731				-148.163635	88.363850	-101.108368
00778	1199048	-9.805837	-0.150744	-0.242278				-0.003211	0.002646	-0.002448				-148.157582	88.362961	-101.101339
00779	1199098	-9.813268	-0.159592	-0.255826				-0.004523	0.002691	-0.001319				-148.175412	88.362451	-101.120223
00780	1199148	-9.813464	-0.165129	-0.250560				-0.004149	0.000856	-0.001044				-148.172243	88.361886	-101.115960
00781	1199198	-9.811902	-0.157665	-0.248409				-0.005937	-0.000606	-0.005054				-148.141214	88.362194	-101.085323
00782	1199248	-9.814651	-0.168733	-0.244796				-0.003812	0.000410	-0.000085				-148.143752	88.362002	-101.086804
00783	1199298	-9.792967	-0.168004	-0.247117				0.000136	0.001390	0.000612				-148.169357	88.362644	-101.114592
00784	1199348	-9.809519	-0.159675	-0.244544				-0.002092	-0.001276	-0.001284				-148.152222	88.362524	-101.096958
00785	1199398	-9.812824	-0.163934	-0.241248				-0.005244	0.001863	-0.004181				-148.141268	88.362615	-101.086474
00786	1199448	-9.816914	-0.174087	-0.252296				-0.002648	0.003081	-0.000939				-148.150081	88.361833	-101.094487
00787	1199498	-9.805790	-0.165663	-0.258785				-0.003590	0.002511	-0.002450				-148.156926	88.361449	-101.102535
00788	1199548	-9.813341	-0.159710	-0.243618				-0.005668	0.001577	0.000829				-148.173596	88.361301	-101.117535
00789	1199598	-9.796658	-0.142763	-0.240664				-0.002780	0.002395	-0.001490				-148.188286	88.361516	-101.133490
00790	1199648	-9.791949	-0.169839	-0.254849				-0.004131	0.004472	-0.002439				-148.192309	88.359995	-101.136360
00791	1199698	-9.819506	-0.160173	-0.247903				-0.001571	0.000745	0.001808				-148.225547	88.360461	-101.171501
00792	1199748	-9.797989	-0.146428	-0.248907				-0.005532	-0.000943	0.000298				-148.224745	88.360794	-101.169086
00793	1199798	-9.823463	-0.145346	-0.252767				-0.004137	0.003634	-0.001829				-148.242459	88.360748	-101.187632
00794	1199848	-9.820187	-0.166959	-0.238250				-0.003667	-0.000811	0.002187				-148.257930	88.360925	-101.202218
00795	1199898	-9.810994	-0.174131	-0.247188				-0.000893	-0.001837	0.000023				-148.261985	88.362288	-101.208114
00796	1199948	-9.805784	-0.151584	-0.248464				-0.004046	0.001560	-0.002933				-148.246294	88.361568	-101.191211
00797	1199998	-9.800228	-0.181234	-0.240769				-0.004924	-0.001135	-0.002277				-148.235645	88.362304	-101.181317
00798	1200048	-9.801600	-0.149067	-0.237697				-0.007734	0.000720	-0.002190				-148.223004	88.361600	-101.166546
00799	1200098	-9.816170	-0.160700	-0.244724				-0.006691	-0.001841	0.000326				-148.231488	88.363192	-101.175123
00800	1200148	-9.812865	-0.168633	-0.263251				-0.001933	0.000963	0.001294				-148.248415	88.363092	-101.191524
00801	1200198	-9.810173	-0.161213	-0.251776				-0.002653	0.000394	0.000808				-148.270992	88.363861	-101.215530
00802	1200248	-9.815524	-0.160118	-0.236188				-0.000831	0.001494	0.000458				-148.283240	88.363429	-101.227606
00803	1200298	-9.770864	-0.175086	-0.266294				-0.003497	-0.000791	-0.003620				-148.262464	88.364343	-101.207767
00804	1200348	-9.806421	-0.161927	-0.240972				-0.000763	-0.000034	-0.003077				-148.236248	88.363882	-101.181327
00805	1200398	-9.810158	-0.159523	-0.258044				-0.005274	0.002991	-0.002727				-148.243256	88.363675	-101.188914
00806	1200448	-9.806958	-0.159767	-0.236001				-0.001763	0.001674	0.001749				-148.267668	88.363437	-101.212872
00807	1200498	-9.812379	-0.142224	-0.242214				-0.003733	0.001956	-0.002228				-148.273712	88.363631	-101.219914
00808	1200548	-9.815463	-0.158298	-0.250173				-0.005452	0.004739	-0.001723				-148.285471	88.362238	-101.230113
00809	1200598	-9.793864	-0.156487	-0.241771				-0.002892	0.000618	-0.000694				-148.296654	88.362686	-101.242663
00810	1200648	-9.822292	-0.144664	-0.250735				-0.003693	-0.000501	-0.002880				-148.270668	88.362057	-101.215752
00811	1200698	-9.799370	-0.169897	-0.248462				-0.003438	-0.000197	0.000807				-148.290937	88.363169	-101.237114
00812	1200748	-9.804921	-0.180743	-0.252779				-0.005013	0.001605	-0.004406				-148.263412	88.362185	-101.208107
00813	1200798	-9.818474	-0.142255	-0.257549				-0.005268	0.002936	-0.000642				-148.288067	88.362423	-101.233317
00814	1200848	-9.817648	-0.157468	-0.244896				0.000588	0.005137	-0.002377				-148.294646	88.360842	-101.240056
00815	1200898	-9.801547	-0.166216	-0.248954				-0.007176	-0.000721	-0.001237				-148.296052	88.361343	-101.241696
00816	1200948	-9.806628	-0.140146	-0.251398				-0.000603	0.003241	-0.002480				-148.292176	88.360283	-101.237596
00817	1200998	-9.795972	-0.179547	-0.240081				-0.004428	0.000557	-0.001687				-148.295258	88.360565	-101.241620
00818	1201048	-9.804295	-0.173957	-0.253224				-0.001708	0.000700	-0.001211				-148.289117	88.360343	-101.234926
00819	1201098	-9.807534	-0.161872	-0.253216				-0.003788	-0.000140	0.001615				-148.315789	88.361616	-101.262605
00820	1201148	-9.818110	-0.157219	-0.247197				-0.000589	0.000723	-0.001082				-148.310639	88.361093	-101.257369
00821	1201198	-9.816626	-0.146590	-0.238558				-0.001885	0.000280	-0.000248				-148.323710	88.362125	-101.271904
00822	1201248	-9.784942	-0.167602	-0.236769				-0.002591	0.000161	-0.002849				-148.301431	88.361362	-101.249005
00823	1201298	-9.817084	-0.159113	-0.254858				-0.005603	0.001445	-0.000230				-148.322086	88.361788	-101.270185
00824	1201348	-9.805212	-0.163511	-0.240711				-0.004187	-0.000794	0.000329				-148.321879	88.361916	-101.268832
00825	1201398	-9.812807	-0.143091	-0.247508				-0.004306	0.001787	-0.001261				-148.335245	88.362315	-101.283023
00826	1201448	-9.820462	-0.145666	-0.235615				-0.005239	-0.002008	0.001318				-148.337221	88.363170	-101.283426
00827	1201498	-9.801069	-0.174101	-0.234555				-0.004528	0.000385	-0.004030				-148.320014	88.363023	-101.267167
00828	1201548	-9.829177	-0.152935	-0.237568				-0.003505	0.001733	-0.001810				-148.314567	88.362425	-101.260665
00829	1201598	-9.817443	-0.156482	-0.240216				-0.005273	-0.000910	0.000717				-148.330195	88.363732	-101.276884
00830	1201648	-9.797634	-0.156487	-0.249473				-0.005046	0.001766	-0.003411				-148.311652	88.362908	-101.256834
00831	1201698	-9.807899	-0.159784	-0.237151				-0.003041	0.000225	-0.001623				-148.313145	88.363390	-101.259607
00832	1201748	-9.805705	-0.161674	-0.242653				-0.003459	0.000082	-0.004100				-148.279535	88.362720	-101.225009
00833	1201798	-9.802484	-0.150623	-0.245442				-0.005172	-0.002472	-0.004045				-148.246950	88.363731	-101.192986
00834	1201848	-9.806136	-0.144798	-0.244604				-0.005623	0.000724	-0.002708				-148.229520	88.363077	-101.173966
00835	1201898	-9.805534	-0.148547	-0.256823				-0.007123	0.000735	-0.001644				-148.234630	88.363324	-101.179254
00836	1201948	-9.811470	-0.158844	-0.239713				-0.000912	-0.000257	-0.001124				-148.223834	88.363267	-101.168168
00837	1201998	-9.801102	-0.156192	-0.264568				-0.002962	0.001877	0.000595				-148.253491	88.363385	-101.199287
00838	1202048	-9.807409	-0.153949	-0.251818				-0.004695	0.000740	-0.003544				-148.228602	88.362633	-101.173061
00839	1202098	-9.813848	-0.155903	-0.246084				-0.004019	0.003219	0.001246				-148.270509	88.362672	-101.216054
00840	1202148	-9.809484	-0.145624	-0.240546				-0.005917	0.001913	-0.003631				-148.251351	88.361576	-101.195230
00841	1202198	-9.809072	-0.159030	-0.241672				-0.003419	-0.000881	-0.000218				-148.258709	88.362997	-101.203570
00842	1202248	-9.811108	-0.157663	-0.223780				-0.006569	0.000422	-0.000977				-148.254605	88.362509	-101.197687
00843	1202298	-9.820259	-0.147360	-0.226815				-0.007572	0.000726	-0.002283				-148.254930	88.362959	-101.197903
00844	1202348	-9.802268	-0.169395	-0.242954				-0.004481	0.000296	-0.001305				-148.246662	88.362552	-101.188409
00845	1202398	-9.810717	-0.159190	-0.244151				-0.001775	0.001962	0.000563				-148.275384	88.362996	-101.218758
00846	1202448	-9.813716	-0.147131	-0.245718				-0.002078	-0.001857	-0.000198				-148.264738	88.363339	-101.207546
00847	1202498	-9.797704	-0.153849	-0.242985				-0.005324	0.000574	-0.001108				-148.273038	88.364037	-101.216370
00848	1202548	-9.819276	-0.160687	-0.245042				-0.005803	0.001200	-0.005367				-148.235002	88.362941	-101.176653
00849	1202598	-9.800184	-0.142920	-0.248943				-0.004801	-0.001879	-0.002468				-148.219325	88.363899	-101.161754
00850	1202648	-9.808365	-0.142321	-0.234809				-0.004101	0.001463	-0.002066				-148.210528	88.363271	-101.151761
00851	1202698	-9.816591	-0.161612	-0.252841				-0.003056	-0.002359	-0.000264				-148.209595	88.364834	-101.151988
00852	1202748	-9.809622	-0.165471	-0.255387				-0.004085	-0.001147	-0.001437				-148.192718	88.364791	-101.133975
00853	1202798	-9.798445	-0.159309	-0.264975				-0.002963	-0.000264	-0.002176				-148.186375	88.365534	-101.128821
00854	1202848	-9.799695	-0.166881	-0.240311				-0.003213	0.001311	-0.006112				-148.142104	88.364267	-101.083621
00855	1202898	-9.816181	-0.141981	-0.243617				-0.006412	0.001655	-0.000327				-148.163046	88.364692	-101.104834
00856	1202948	-9.793783	-0.146826	-0.234846				-0.003634	0.000086	0.001067				-148.173875	88.364572	-101.114741
00857	1202998	-9.801863	-0.163409	-0.242983				0.000094	0.001672	0.000266				-148.198331	88.365022	-101.141381
00858	1203048	-9.803839	-0.174096	-0.248763				-0.003424	0.002348	-0.001391				-148.199888	88.364439	-101.141867
00859	1203098	-9.832242	-0.170684	-0.245029				-0.003928	0.001952	-0.003251				-148.196668	88.364386	-101.139638
00860	1203148	-9.825098	-0.149404	-0.249563				-0.004546	0.000194	-0.001945				-148.182686	88.363940	-101.124393
00861	1203198	-9.816342	-0.169825	-0.237158				-0.003680	0.001509	0.001396				-148.216704	88.364358	-101.159612
00862	1203248	-9.821525	-0.152249	-0.244320				-0.001565	0.001317	-0.000662				-148.218457	88.364117	-101.160839
00863	1203298	-9.799108	-0.162882	-0.266499				-0.002869	0.000932	-0.002395				-148.217103	88.364377	-101.160775
00864	1203348	-9.831915	-0.158995	-0.244227				-0.004458	0.000785	0.001270				-148.233503	88.364212	-101.175978
00865	1203398	-9.816965	-0.151833	-0.249880				-0.004362	0.004894	0.000614				-148.278887	88.364423	-101.222064
00866	1203448	-9.823511	-0.155863	-0.262947				-0.005998	0.000294	-0.003828				-148.249773	88.363691	-101.191259
00867	1203498	-9.809173	-0.168688	-0.244294				0.000994	-0.000776	-0.001100				-148.249509	88.364144	-101.193598
00868	1203548	-9.814738	-0.160406	-0.246746				-0.002820	0.001555	-0.000343				-148.255841	88.363526	-101.199208
00869	1203598	-9.801050	-0.153459	-0.240998				-0.002427	-0.000634	0.001220				-148.276725	88.364651	-101.221565
00870	1203648	-9.807047	-0.171179	-0.237449				-0.000982	0.002103	-0.000980				-148.279844	88.364020	-101.224386
00871	1203698	-9.798181	-0.175387	-0.236914				-0.002937	-0.001264	-0.002954				-148.261532	88.364989	-101.207243
00872	1203748	-9.806523	-0.157720	-0.232389				-0.001645	0.000668	-0.001916				-148.249230	88.364639	-101.194421
00873	1203798	-9.818183	-0.148240	-0.253722				-0.003339	0.002776	0.000091				-148.278890	88.364784	-101.225286
00874	1203848	-9.816103	-0.153030	-0.233539				-0.005576	0.001669	0.000443				-148.293219	88.364432	-101.238034
00875	1203898	-9.810620	-0.175666	-0.226370				-0.008107	-0.000706	-0.002421				-148.284096	88.365027	-101.228734
00876	1203948	-9.799040	-0.157861	-0.248537				-0.002466	0.000494	0.000425				-148.291069	88.364895	-101.235032
00877	1203998	-9.823990	-0.143825	-0.246952				-0.000059	0.001888	-0.005410				-148.268370	88.364717	-101.214315
00878	1204048	-9.808328	-0.153501	-0.258034				-0.004334	0.000723	0.001010				-148.282212	88.364598	-101.226960
00879	1204098	-9.809898	-0.164129	-0.252935				-0.001072	0.000544	-0.004295				-148.261629	88.364754	-101.208155
00880	1204148	-9.816497	-0.157327	-0.237676				-0.003862	0.002954	-0.001741				-148.263484	88.363763	-101.208910
00881	1204198	-9.814630	-0.160628	-0.263535				-0.006147	0.003434	0.000262				-148.298943	88.363997	-101.244658
00882	1204248	-9.806021	-0.150341	-0.252316				-0.006560	0.000159	-0.002581				-148.279401	88.363642	-101.223193
00883	1204298	-9.802961	-0.158173	-0.229487				-0.005186	0.000319	0.000719				-148.302632	88.363862	-101.247355
00884	1204348	-9.807990	-0.174390	-0.232568				-0.002742	-0.000194	-0.002047				-148.284985	88.363503	-101.228957
00885	1204398	-9.823355	-0.158172	-0.244042				-0.004611	-0.000638	0.001134				-148.305615	88.364942	-101.250290
00886	1204448	-9.810181	-0.172461	-0.227659				-0.003707	0.003549	0.001696				-148.339917	88.364393	-101.283517
00887	1204498	-9.802014	-0.167612	-0.249866				-0.004871	0.000418	-0.000852				-148.349311	88.365304	-101.293524
00888	1204548	-9.806622	-0.140772	-0.250811				-0.004187	0.000170	-0.001306				-148.340386	88.365106	-101.283376
00889	1204598	-9.795907	-0.165281	-0.239128				-0.004656	-0.000253	0.000393				-148.357085	88.365939	-101.300954
00890	1204648	-9.811241	-0.159689	-0.235939				-0.005943	0.000554	-0.003765				-148.329962	88.365010	-101.272217
00891	1204698	-9.820557	-0.134559	-0.243343				-0.001688	0.000923	-0.004446				-148.310443	88.365159	-101.254248
00892	1204748	-9.786633	-0.162466	-0.242781				0.001390	0.000110	0.000574				-148.315512	88.365172	-101.259736
00893	1204798	-9.813564	-0.158082	-0.248653				-0.004122	0.001979	-0.001966				-148.323578	88.365043	-101.268842
00894	1204848	-9.805007	-0.162081	-0.238864				-0.001839	0.000794	-0.001854				-148.312462	88.364460	-101.257244
00895	1204898	-9.797966	-0.173014	-0.238361				-0.003085	-0.001723	-0.004428				-148.279460	88.365404	-101.225305
00896	1204948	-9.815304	-0.159273	-0.234707				-0.003213	-0.001497	-0.003595				-148.241818	88.365084	-101.186789
00897	1204998	-9.806703	-0.159522	-0.238593				-0.002364	0.000013	-0.001114				-148.246489	88.366149	-101.192750
00898	1205048	-9.812087	-0.164462	-0.243374				-0.001510	-0.000423	-0.000256				-148.242838	88.366133	-101.188701
00899	1205098	-9.810605	-0.167545	-0.245764				-0.004283	-0.000058	-0.001913				-148.240567	88.366531	-101.187402
00900	1205148	-9.796260	-0.149475	-0.253399				-0.006094	0.002690	-0.002155				-148.238281	88.365555	-101.183364
00901	1205198	-9.811362	-0.143407	-0.248968				-0.003541	0.003522	0.003749				-148.302935	88.365810	-101.249303
00902	1205248	-9.805712	-0.165557	-0.233324				-0.002418	-0.000220	-0.002339				-148.282319	88.365611	-101.227942
00903	1205298	-9.796376	-0.151669	-0.230060				-0.005385	0.000440	-0.000948				-148.291859	88.365818	-101.238239
00904	1205348	-9.805855	-0.164061	-0.252031				-0.003073	0.000192	-0.001402				-148.281682	88.365525	-101.227197
00905	1205398	-9.808577	-0.178193	-0.244248				-0.002153	-0.003541	-0.000398				-148.273434	88.367401	-101.220365
00906	1205448	-9.812675	-0.147633	-0.259633				-0.004636	-0.000771	0.000107				-148.271695	88.367679	-101.217259
00907	1205498	-9.809666	-0.150904	-0.239482				-0.004966	-0.000355	0.001682				-148.298359	88.369202	-101.244492
00908	1205548	-9.797036	-0.171692	-0.237240				-0.004066	0.001373	0.000817				-148.313822	88.368871	-101.258848
00909	1205598	-9.812312	-0.163010	-0.248627				-0.001799	0.000341	-0.001664				-148.315619	88.369086	-101.262386
00910	1205648	-9.818870	-0.150482	-0.252933				-0.008327	0.002262	-0.001826				-148.314362	88.368019	-101.258850
00911	1205698	-9.812786	-0.165435	-0.244087				-0.004099	0.000335	-0.000499				-148.326225	88.369058	-101.271513
00912	1205748	-9.789291	-0.143517	-0.237490				-0.003188	-0.000203	-0.003333				-148.297575	88.368705	-101.241893
00913	1205798	-9.825418	-0.142254	-0.250708				-0.004864	0.000091	-0.002583				-148.290551	88.368919	-101.235679
00914	1205848	-9.808387	-0.154955	-0.243402				-0.005944	0.000047	0.000595				-148.297767	88.368902	-101.241238
00915	1205898	-9.813501	-0.151287	-0.234329				-0.005275	0.001451	0.002910				-148.345355	88.370028	-101.289373
00916	1205948	-9.796421	-0.183663	-0.234660				0.000823	0.004882	-0.002257				-148.351517	88.368413	-101.295811
00917	1205998	-9.806291	-0.171542	-0.243679				-0.003219	0.002871	-0.002094				-148.362794	88.368213	-101.308301
00918	1206048	-9.816944	-0.139422	-0.240068				-0.004095	0.003703	0.002472				-148.404899	88.367498	-101.349330
00919	1206098	-9.807137	-0.157165	-0.249363				-0.001828	-0.000235	0.002764				-148.440642	88.368936	-101.386658
00920	1206148	-9.817999	-0.156523	-0.227060				-0.004438	-0.000094	-0.000376				-148.438378	88.368819	-101.383155
00921	1206198	-9.807957	-0.153091	-0.241732				-0.004471	0.000779	-0.002325				-148.437450	88.369377	-101.382957
00922	1206248	-9.803655	-0.156303	-0.238553				-0.003553	-0.000118	-0.006022				-148.386242	88.368370	-101.330770
00923	1206298	-9.821022	-0.157980	-0.236544				-0.003341	-0.002928	-0.007095				-148.324645	88.368819	-101.270359
00924	1206348	-9.817937	-0.159533	-0.231307				-0.003625	-0.001631	-0.001220				-148.306705	88.369057	-101.251356
00925	1206398	-9.793590	-0.167699	-0.223908				0.001939	0.004093	-0.002232				-148.321599	88.368902	-101.268816
00926	1206448	-9.835811	-0.132409	-0.245250				-0.004525	0.002145	0.001982				-148.351437	88.368511	-101.297438
00927	1206498	-9.815742	-0.155722	-0.247194				-0.002880	0.002427	-0.000332				-148.375659	88.368252	-101.323183
00928	1206548	-9.818925	-0.169810	-0.243821				-0.001639	-0.000425	0.000007				-148.373895	88.368455	-101.320905
00929	1206598	-9.804481	-0.159609	-0.250557				-0.001965	0.000824	-0.000632				-148.386584	88.369228	-101.335059
00930	1206648	-9.809891	-0.137429	-0.229354				-0.001807	0.004964	-0.002629				-148.390601	88.367773	-101.338496
00931	1206698	-9.817043	-0.156314	-0.229750				-0.002655	0.003132	-0.004821				-148.379889	88.366884	-101.329260
00932	1206748	-9.810061	-0.158427	-0.235832				-0.001459	0.004228	0.000314				-148.405365	88.365816	-101.354363
00933	1206798	-9.787093	-0.166676	-0.238216				-0.007098	-0.000173	-0.002072				-148.402523	88.366655	-101.351490
00934	1206848	-9.791230	-0.163982	-0.227454				-0.001228	0.001877	0.000395				-148.416195	88.366227	-101.364829
00935	1206898	-9.808062	-0.164543	-0.240271				-0.003173	-0.000686	-0.002727				-148.403378	88.367036	-101.353144
00936	1206948	-9.800226	-0.144335	-0.239286				-0.000981	-0.001101	-0.003082				-148.371229	88.366688	-101.320768
00937	1206998	-9.800987	-0.178027	-0.240621				0.000890	0.002355	-0.004998				-148.354083	88.366388	-101.305906
00938	1207048	-9.812436	-0.152543	-0.249893				-0.003053	0.003880	-0.000740				-148.369050	88.365487	-101.319931
00939	1207098	-9.805222	-0.159555	-0.246569				-0.003026	0.003333	0.001440				-148.413674	88.365211	-101.366082
00940	1207148	-9.805414	-0.155137	-0.263320				-0.004829	0.000966	-0.003128				-148.393609	88.364433	-101.344660
00941	1207198	-9.817239	-0.155809	-0.236390				-0.001351	0.001904	0.001364				-148.428642	88.365017	-101.381436
00942	1207248	-9.801921	-0.164492	-0.231456				-0.002985	0.000846	0.001169				-148.443804	88.364859	-101.395806
00943	1207298	-9.819532	-0.157948	-0.247148				-0.004887	0.000799	-0.003415				-148.433612	88.365289	-101.386202
00944	1207348	-9.805586	-0.147463	-0.251637				-0.003711	0.001150	-0.001267				-148.430303	88.364576	-101.381932
00945	1207398	-9.802899	-0.165364	-0.225725				-0.002524	0.001012	-0.002204				-148.430432	88.364945	-101.383422
00946	1207448	-9.813929	-0.164581	-0.253228				-0.008073	0.001627	0.000992				-148.449691	88.364737	-101.400357
00947	1207498	-9.798470	-0.149127	-0.243691				-0.005571	0.000212	-0.001945				-148.449469	88.365281	-101.400657
00948	1207548	-9.797989	-0.153031	-0.235601				-0.004689	0.001647	-0.001904				-148.443182	88.364631	-101.393009
00949	1207598	-9.823788	-0.165634	-0.235885				-0.004048	-0.000048	0.000684				-148.463853	88.364703	-101.415042
00950	1207648	-9.804935	-0.145473	-0.244351				0.000737	0.000055	-0.003981				-148.429943	88.364039	-101.381351
00951	1207698	-9.818641	-0.154486	-0.244059				-0.004159	-0.000029	-0.003710				-148.411821	88.364967	-101.363886
00952	1207748	-9.816202	-0.139963	-0.244330				-0.005502	0.001819	-0.005876				-148.372636	88.363689	-101.323086
00953	1207798	-9.802068	-0.169709	-0.235551				-0.000358	0.001659	-0.001277				-148.384712	88.363510	-101.337390
00954	1207848	-9.813066	-0.161987	-0.244076				-0.004864	-0.002106	-0.003558				-148.344556	88.363536	-101.295808
00955	1207898	-9.807407	-0.152530	-0.254235				-0.006015	0.001376	0.002399				-148.387083	88.364576	-101.338681
00956	1207948	-9.806891	-0.153329	-0.259968				-0.009526	0.002594	-0.004258				-148.367020	88.363431	-101.315821
00957	1207998	-9.814369	-0.149019	-0.252478				-0.004432	-0.000516	-0.004127				-148.343992	88.363635	-101.293707
00958	1208048	-9.800171	-0.169680	-0.235080				-0.004461	0.001717	-0.000622				-148.348827	88.363124	-101.297263
00959	1208098	-9.798542	-0.157547	-0.253081				-0.003076	0.001452	-0.001555				-148.357680	88.363506	-101.307292
00960	1208148	-9.808525	-0.160808	-0.249295				-0.005557	-0.002180	-0.000639				-148.341976	88.364057	-101.289944
00961	1208198	-9.810766	-0.168300	-0.255796				-0.002100	-0.001145	0.000545				-148.354932	88.365165	-101.304476
00962	1208248	-9.812488	-0.160424	-0.263991				-0.006713	-0.001232	-0.001272				-148.339373	88.365153	-101.287043
00963	1208298	-9.805259	-0.156494	-0.246404				-0.004590	0.003918	0.000802				-148.381544	88.365387	-101.329943
00964	1208348	-9.814614	-0.148719	-0.251821				-0.004277	0.002112	-0.000524				-148.389419	88.364901	-101.336546
00965	1208398	-9.803052	-0.155927	-0.257855				-0.003791	0.001828	-0.001202				-148.403286	88.365248	-101.351396
00966	1208448	-9.806677	-0.143710	-0.236270				-0.003719	0.003635	-0.002348				-148.403393	88.364086	-101.350403
00967	1208498	-9.807830	-0.157980	-0.251860				-0.007037	0.002897	-0.003719				-148.402103	88.363332	-101.349377
00968	1208548	-9.817115	-0.160067	-0.248112				-0.004430	0.000419	-0.004830				-148.364254	88.362887	-101.310073
00969	1208598	-9.786122	-0.177424	-0.257830				-0.004487	-0.001581	-0.000577				-148.365599	88.363758	-101.312372
00970	1208648	-9.810882	-0.160857	-0.253581				-0.004024	0.005183	-0.001789				-148.378553	88.362224	-101.324181
00971	1208698	-9.822922	-0.152843	-0.248076				-0.001396	-0.000906	0.000575				-148.392509	88.363378	-101.339871
00972	1208748	-9.804132	-0.167338	-0.253516				-0.001035	0.001848	-0.000050				-148.401971	88.362954	-101.349030
00973	1208798	-9.795429	-0.165794	-0.238909				-0.004105	0.000527	-0.001269				-148.408549	88.363376	-101.356611
00974	1208848	-9.814585	-0.139981	-0.235713				-0.003021	0.000710	-0.001595				-148.399471	88.362835	-101.346720
00975	1208898	-9.793801	-0.185386	-0.231951				-0.002868	0.000744	-0.002716				-148.394458	88.362859	-101.343119
00976	1208948	-9.797095	-0.169525	-0.233073				-0.003415	-0.001308	-0.003882				-148.355486	88.362305	-101.303277
00977	1208998	-9.795919	-0.167947	-0.271512				-0.001321	0.000443	-0.003043				-148.345478	88.363046	-101.294825
00978	1209048	-9.828547	-0.148946	-0.231304				-0.003564	0.000700	-0.000912				-148.342568	88.362686	-101.290911
00979	1209098	-9.812739	-0.146166	-0.251882				-0.006530	-0.002105	-0.003039				-148.320341	88.363414	-101.269035
00980	1209148	-9.810084	-0.162361	-0.225885				-0.002506	-0.001547	-0.002184				-148.294229	88.363296	-101.242270
00981	1209198	-9.820047	-0.155816	-0.244372				-0.001428	0.003095	-0.001005				-148.315660	88.364063	-101.265053
00982	1209248	-9.809673	-0.146119	-0.247041				-0.003438	0.003906	-0.000772				-148.330595	88.362960	-101.279026
00983	1209298	-9.815015	-0.143572	-0.235702				-0.002464	0.000359	-0.001983				-148.329641	88.363007	-101.279665
00984	1209348	-9.805045	-0.166586	-0.261636				-0.005472	0.001855	-0.004563				-148.302433	88.361778	-101.250921
00985	1209398	-9.813505	-0.161060	-0.253940				-0.002402	0.002401	-0.001714				-148.313931	88.362379	-101.263586
00986	1209448	-9.818061	-0.152669	-0.264520				-0.001804	0.002540	-0.002769				-148.304280	88.361497	-101.253342
00987	1209498	-9.814966	-0.158515	-0.252126				-0.002868	0.005008	-0.002693				-148.321947	88.360079	-101.272616
00988	1209548	-9.812756	-0.159985	-0.260589				-0.003207	-0.002619	-0.000231				-148.306996	88.360854	-101.256661
00989	1209598	-9.810615	-0.164676	-0.250842				-0.000313	0.002950	-0.004280				-148.299070	88.360124	-101.250877
00990	1209648	-9.811249	-0.156485	-0.241728				-0.003488	0.001082	-0.003192				-148.278371	88.359709	-101.229027
00991	1209698	-9.810408	-0.158268	-0.258296				-0.002620	0.001302	0.000524				-148.304205	88.360133	-101.256328
00992	1209748	-9.821777	-0.151295	-0.243833				-0.005767	0.000665	0.000308				-148.311794	88.360270	-101.262157
00993	1209798	-9.818886	-0.136063	-0.240222				-0.004012	-0.000042	0.002867				-148.350778	88.361016	-101.302376
00994	1209848	-9.803526	-0.162245	-0.245561				-0.003181	0.000933	0.000654				-148.361818	88.361092	-101.312422
00995	1209898	-9.821771	-0.158441	-0.230112				-0.006387	-0.002255	0.000063				-148.365484	88.362295	-101.316485
00996	1209948	-9.813102	-0.159055	-0.245064				-0.005069	0.001481	-0.001905				-148.358614	88.361684	-101.308141
00997	1209998	-9.809169	-0.165067	-0.252272				-0.004828	0.000967	-0.001815				-148.362813	88.362090	-101.313086
00998	1210048	-9.813971	-0.163327	-0.249258				-0.002599	-0.003974	-0.003579				-148.311745	88.363043	-101.261015
00999	1210098	-9.812080	-0.163874	-0.245764				-0.002187	0.000297	-0.004683				-148.287719	88.362596	-101.238714
01000	1210148	-9.825084	-0.154093	-0.242056				-0.004761	-0.003437	-0.005174				-148.226658	88.363010	-101.176109
01001	1210198	-9.816379	-0.140946	-0.252436				-0.002770	-0.000094	-0.000061				-148.240074	88.363400	-101.191081
01002	1210248	-9.814560	-0.157684	-0.242675				-0.005046	0.002739	-0.003086				-148.229645	88.362259	-101.179206
01003	1210298	-9.826658	-0.138681	-0.249493				-0.002928	-0.001034	0.001027				-148.246667	88.363667	-101.197431
01004	1210348	-9.813547	-0.144994	-0.239508				-0.003958	-0.000379	-0.004514				-148.207452	88.363135	-101.157045
01005	1210398	-9.819318	-0.151259	-0.256102				-0.003164	0.002591	0.002873				-148.259769	88.363812	-101.210572
01006	1210448	-9.826617	-0.151449	-0.230097				-0.002419	-0.001416	-0.002667				-148.230258	88.363495	-101.180476
01007	1210498	-9.809587	-0.138846	-0.236859				-0.000434	-0.001451	-0.004407				-148.198150	88.364266	-101.150238
01008	1210548	-9.821991	-0.156202	-0.237508				-0.003321	-0.002237	-0.002026				-148.170016	88.364487	-101.121147
01009	1210598	-9.794554	-0.156173	-0.246101				-0.003373	0.001640	-0.000821				-148.185979	88.364969	-101.138247
01010	1210648	-9.807840	-0.161178	-0.243582				-0.004991	-0.000978	-0.002142				-148.163764	88.364595	-101.114725
01011	1210698	-9.796345	-0.165660	-0.245792				-0.002138	-0.001958	0.000343				-148.169961	88.366180	-101.122343
01012	1210748	-9.818177	-0.151482	-0.248221				-0.001083	0.003231	-0.002326				-148.167505	88.364995	-101.119598
01013	1210798	-9.805103	-0.169317	-0.247075				-0.002930	0.004145	0.000697				-148.209821	88.364606	-101.163374
01014	1210848	-9.812078	-0.145786	-0.244334				0.001143	0.000458	-0.002798				-148.188189	88.364131	-101.142030
01015	1210898	-9.800040	-0.159119	-0.238946				-0.002688	0.002630	0.001651				-148.229864	88.364758	-101.185000
01016	1210948	-9.812026	-0.167782	-0.246248				-0.004111	-0.000533	-0.000544				-148.223762	88.364398	-101.177901
01017	1210998	-9.807276	-0.171218	-0.237668				-0.004390	0.001100	-0.003450				-148.214297	88.364791	-101.169148
01018	1211048	-9.804268	-0.181287	-0.242214				0.001495	0.001630	-0.001443				-148.210185	88.364101	-101.165495
01019	1211098	-9.804359	-0.152486	-0.247181				-0.006036	-0.001412	-0.001824				-148.201824	88.365021	-101.157540
01020	1211148	-9.794393	-0.172129	-0.240366				-0.007685	0.001307	-0.000333				-148.207996	88.364763	-101.161465
01021	1211198	-9.810459	-0.160931	-0.243533				-0.007208	-0.002790	-0.000772				-148.202362	88.366180	-101.155882
01022	1211248	-9.817930	-0.156879	-0.238843				-0.001646	0.002538	-0.004254				-148.179960	88.364920	-101.132998
01023	1211298	-9.805572	-0.167136	-0.251103				-0.006372	0.000330	-0.000148				-148.195312	88.365897	-101.148545
01024	1211348	-9.809947	-0.161375	-0.250177				-0.003107	0.003129	-0.003827				-148.179917	88.364694	-101.132191
01025	1211398	-9.825341	-0.168867	-0.247678				-0.005033	0.004554	-0.001888				-148.203489	88.363392	-101.156790
01026	1211448	-9.804438	-0.167210	-0.242446				-0.002226	-0.000077	0.000998				-148.212340	88.363579	-101.164995
01027	1211498	-9.800259	-0.163456	-0.232843				-0.002892	-0.001223	0.001791				-148.234457	88.365174	-101.188361
01028	1211548	-9.795937	-0.167801	-0.230548				-0.001861	0.003541	-0.002005				-148.236711	88.364020	-101.190080
01029	1211598	-9.814802	-0.150074	-0.257225				-0.008247	-0.000092	-0.000305				-148.249046	88.365033	-101.202097
01030	1211648	-9.800002	-0.160057	-0.242475				-0.005597	0.000250	0.000844				-148.259113	88.364962	-101.210624
01031	1211698	-9.823151	-0.133356	-0.251201				-0.002823	0.000457	-0.000216				-148.274197	88.365091	-101.227291
01032	1211748	-9.826285	-0.156116	-0.236242				-0.003379	0.005804	-0.004037				-148.271356	88.363150	-101.223443
01033	1211798	-9.808961	-0.164432	-0.248379				-0.000063	-0.000663	-0.001294				-148.270184	88.363895	-101.224416
01034	1211848	-9.821247	-0.148694	-0.257230				-0.006960	0.000805	0.000307				-148.279174	88.363526	-101.231515
01035	1211898	-9.819268	-0.155446	-0.256102				-0.002605	0.002652	-0.001683				-148.292470	88.363628	-101.246131
01036	1211948	-9.813207	-0.161468	-0.223242				-0.004102	0.001536	-0.000592				-148.296594	88.363100	-101.249109
01037	1211998	-9.812929	-0.172676	-0.206388				-0.006939	-0.001139	-0.000731				-148.299628	88.364256	-101.252219
01038	1212048	-9.812960	-0.152330	-0.241985				-0.003143	0.001778	0.001619				-148.323647	88.364251	-101.275267
01039	1212098	-9.805554	-0.162805	-0.225175				-0.002716	0.000164	-0.001281				-148.327239	88.364914	-101.280186
01040	1212148	-9.817533	-0.166510	-0.244982				-0.002763	-0.001747	-0.003888				-148.285414	88.364963	-101.237460
01041	1212198	-9.812222	-0.168079	-0.252946				-0.003152	0.000001	0.001929				-148.316137	88.366107	-101.269400
01042	1212248	-9.830135	-0.167315	-0.246102				-0.004786	-0.001588	-0.003144				-148.282326	88.365949	-101.234237
01043	1212298	-9.814267	-0.143316	-0.242178				-0.002104	0.002757	-0.004280				-148.274199	88.365203	-101.227749
01044	1212348	-9.824148	-0.147487	-0.252854				-0.002740	-0.001230	-0.002438				-148.247914	88.364968	-101.200739
01045	1212398	-9.795317	-0.163328	-0.262469				-0.006490	0.002941	-0.001098				-148.269028	88.365331	-101.221955
01046	1212448	-9.819710	-0.139213	-0.255558				0.001007	0.000136	0.000057				-148.269808	88.365054	-101.223136
01047	1212498	-9.822502	-0.168684	-0.245991				-0.003142	0.002291	-0.002516				-148.274605	88.365485	-101.228924
01048	1212548	-9.797296	-0.166956	-0.243228				-0.004043	0.001302	-0.003067				-148.256793	88.364625	-101.209979
01049	1212598	-9.808208	-0.143526	-0.258497				-0.001930	0.001927	0.002384				-148.300958	88.365106	-101.255846
01050	1212648	-9.788760	-0.175842	-0.258075				-0.002007	-0.000043	-0.000389				-148.297833	88.365152	-101.252106
01051	1212698	-9.784631	-0.164445	-0.255489				-0.001788	-0.000820	-0.000201				-148.305368	88.365918	-101.261375
01052	1212748	-9.812624	-0.150579	-0.262323				-0.005933	0.001165	-0.005051				-148.270064	88.364901	-101.224348
01053	1212798	-9.803207	-0.153578	-0.238155				-0.001481	0.000574	-0.002051				-148.269161	88.365295	-101.225156
01054	1212848	-9.820880	-0.147358	-0.242210				-0.003542	0.001895	-0.002166				-148.261895	88.364403	-101.216916
01055	1212898	-9.815439	-0.158227	-0.252434				-0.004745	0.000616	0.000171				-148.281073	88.365073	-101.236912
